exp,exp_initials,runtime,ver,modtime,sub,blocktype,targets,cuetype,mode,trialtype,trial,trialtime,t1_level,t2_level,t2_lag,t1,t2,distractor1,distractor2,stimfile1,stimfile2,t1_corr,t2_corr,maskfile1,maskfile2,t1_resp,t1_acc,t1_rt,t2_resp,t2_acc,t2_rt,t1_dur,t2_dur,t1mask_soa,t2mask_soa,t1t2_soa
RSVPLG03,si,20260305-161429,1.0.2,20260219-152011,790,Introduction,T1,1,Automatic,main,1,20260305-161456,global,global,750,H,S,A,A,H-A.png,S-A.png,hH,sS,mask-2.png,mask-4.png,s,0,0.7817535999929532,none,-5,0,0.10321770000155084,0.0999180999933742,0.1995607000135351,0.19983769999817014,0.7483888000133447
RSVPLG03,si,20260305-161429,1.0.2,20260219-152011,790,Introduction,T1,1,Automatic,main,2,20260305-161501,local,global,750,S,H,A,A,A-S.png,H-A.png,sS,hH,mask-1.png,mask-3.png,s,1,1.1972500999982003,none,-5,0,0.10093899999628775,0.09836279999581166,0.1997659000044223,0.19943540001986548,0.750165699981153
RSVPLG03,si,20260305-161429,1.0.2,20260219-152011,790,Introduction,T1,1,Automatic,main,3,20260305-161507,global,global,750,S,H,A,E,S-A.png,H-E.png,sS,hH,mask-4.png,mask-4.png,s,1,0.6816477999964263,none,-5,0,0.09998479997739196,0.100339199998416,0.19962849997682497,0.19937190000200644,0.7491985999804456
RSVPLG03,si,20260305-161429,1.0.2,20260219-152011,790,Introduction,T1,1,Automatic,main,4,20260305-161512,local,global,750,H,S,E,E,E-H.png,S-E.png,hH,sS,mask-2.png,mask-4.png,h,1,0.6900156000046991,none,-5,0,0.10003999999025837,0.09964380000019446,0.20035629998892546,0.19945789998746477,0.7500338999961969
RSVPLG03,si,20260305-161429,1.0.2,20260219-152011,790,Introduction,T1,1,Automatic,main,5,20260305-161516,local,local,750,H,H,E,E,E-H.png,E-H.png,hH,hH,mask-3.png,mask-3.png,s,0,0.6893844000005629,none,-5,0,0.09894729999359697,0.10100779999629594,0.19838529999833554,0.19898899999679998,0.7489175999944564
RSVPLG03,si,20260305-161429,1.0.2,20260219-152011,790,Introduction,T1,1,Automatic,main,6,20260305-161521,local,global,750,S,H,A,E,A-S.png,H-E.png,sS,hH,mask-1.png,mask-2.png,s,1,0.6879850999976043,none,-5,0,0.10009270001319237,0.09990939998533577,0.19992130002356134,0.200155900005484,0.7488296000228729
RSVPLG03,si,20260305-161429,1.0.2,20260219-152011,790,Introduction,T1,1,Automatic,main,7,20260305-161526,local,global,750,S,H,E,A,E-S.png,H-A.png,sS,hH,mask-1.png,mask-4.png,s,1,0.3696541999815963,none,-5,0,0.09910099999979138,0.09999779998906888,0.1990648999926634,0.2003390999743715,0.7491942000051495
RSVPLG03,si,20260305-161429,1.0.2,20260219-152011,790,Introduction,T1,1,Automatic,main,8,20260305-161531,global,global,750,S,H,A,A,S-A.png,H-A.png,sS,hH,mask-4.png,mask-3.png,s,1,0.8915331000171136,none,-5,0,0.10065959999337792,0.10007210000185296,0.19971829999121837,0.19963399998960085,0.7505387999990489
RSVPLG03,si,20260305-161429,1.0.2,20260219-152011,790,Introduction,T1,1,Automatic,main,9,20260305-161536,global,local,750,H,S,A,E,H-A.png,E-S.png,hH,sS,mask-1.png,mask-4.png,h,1,0.8831458000058774,none,-5,0,0.10034720000112429,0.10073599999304861,0.20126160001382232,0.1995961999928113,0.7498640000121668
RSVPLG03,si,20260305-161429,1.0.2,20260219-152011,790,Introduction,T1,1,Automatic,main,10,20260305-161541,local,local,750,S,H,A,E,A-S.png,E-H.png,sS,hH,mask-2.png,mask-1.png,s,1,0.47210110002197325,none,-5,0,0.09911660000216216,0.09983099999953993,0.19906559999799356,0.1999218999990262,0.7492065000114962
RSVPLG03,si,20260305-161429,1.0.2,20260219-152011,790,Introduction,T1,1,Automatic,main,11,20260305-161546,local,local,750,H,S,E,A,E-H.png,A-S.png,hH,sS,mask-2.png,mask-3.png,h,1,2.1380454000027385,none,-5,0,0.10208480001892895,0.09978930000215769,0.20055179999326356,0.1992500999767799,0.7512750000169035
RSVPLG03,si,20260305-161429,1.0.2,20260219-152011,790,Introduction,T1,1,Automatic,main,12,20260305-161552,global,local,750,H,H,A,A,H-A.png,A-H.png,hH,hH,mask-3.png,mask-3.png,none,-6,0,none,-5,0,0.09878280002158135,0.10079679999034852,0.20020620001014322,0.19949989998713136,0.7489126000145916
RSVPLG03,si,20260305-161609,1.0.2,20260219-152011,790,Practice,T1,1,Automatic,main,1,20260305-161633,local,local,750,S,H,E,E,E-S.png,E-H.png,sS,hH,mask-1.png,mask-2.png,s,1,0.4679343999887351,none,-5,0,0.0474990000075195,0.049823899986222386,0.09672520001186058,0.09915269998600706,0.7478370000026189
RSVPLG03,si,20260305-161609,1.0.2,20260219-152011,790,Practice,T1,1,Automatic,main,2,20260305-161637,global,global,300,S,H,E,A,S-E.png,H-A.png,sS,hH,mask-1.png,mask-2.png,s,1,1.695782800001325,none,-5,0,0.0492796000035014,0.05036569997901097,0.10015620000194758,0.0997186999884434,0.3001953000202775
RSVPLG03,si,20260305-161609,1.0.2,20260219-152011,790,Practice,T1,1,Automatic,main,3,20260305-161642,global,local,750,S,H,A,E,S-A.png,E-H.png,sS,hH,mask-1.png,mask-4.png,s,1,0.7303823999827728,none,-5,0,0.04864449999877252,0.050275899993721396,0.09981210000114515,0.10002309997798875,0.7489037000050303
RSVPLG03,si,20260305-161609,1.0.2,20260219-152011,790,Practice,T1,1,Automatic,main,4,20260305-161647,global,local,300,H,H,A,E,H-A.png,E-H.png,hH,hH,mask-2.png,mask-1.png,h,1,2.511503999994602,none,-5,0,0.04885700001614168,0.04987050002091564,0.0986611999978777,0.09903870002017356,0.2996962000033818
RSVPLG03,si,20260305-161609,1.0.2,20260219-152011,790,Practice,T1,1,Automatic,main,5,20260305-161653,global,global,750,H,S,A,E,H-A.png,S-E.png,hH,sS,mask-2.png,mask-2.png,s,0,0.5590498000092339,none,-5,0,0.048763200000394136,0.04970820000744425,0.10001569997984916,0.1007349000137765,0.7482775999815203
RSVPLG03,si,20260305-161609,1.0.2,20260219-152011,790,Practice,T1,1,Automatic,main,6,20260305-161658,local,global,300,S,H,E,E,E-S.png,H-E.png,sS,hH,mask-2.png,mask-2.png,s,1,0.5205502000171691,none,-5,0,0.05093620001571253,0.05062789999647066,0.10068239999236539,0.0997413000150118,0.3004713999980595
RSVPLG03,si,20260305-161609,1.0.2,20260219-152011,790,Practice,T1,1,Automatic,main,7,20260305-161702,local,global,750,S,H,A,A,A-S.png,H-A.png,sS,hH,mask-3.png,mask-4.png,s,1,0.33938440002384596,none,-5,0,0.05072470000595786,0.050518900010501966,0.09996160000446253,0.10010589999728836,0.7498781000031158
RSVPLG03,si,20260305-161609,1.0.2,20260219-152011,790,Practice,T1,1,Automatic,main,8,20260305-161706,local,local,300,H,H,A,E,A-H.png,E-H.png,hH,hH,mask-1.png,mask-4.png,h,1,0.4289457999984734,none,-5,0,0.05010930000571534,0.048385700007202104,0.09956539998529479,0.09937650000210851,0.30007349999505095
RSVPLG03,si,20260305-161609,1.0.2,20260219-152011,790,Practice,T1,1,Automatic,main,9,20260305-161710,local,local,300,H,S,E,E,E-H.png,E-S.png,hH,sS,mask-3.png,mask-1.png,s,0,0.3258225000172388,none,-5,0,0.04994519997853786,0.05275830000755377,0.1010076999955345,0.09968700000899844,0.30106899997917935
RSVPLG03,si,20260305-161609,1.0.2,20260219-152011,790,Practice,T1,1,Automatic,main,10,20260305-161714,local,global,750,H,H,E,A,E-H.png,H-A.png,hH,hH,mask-4.png,mask-2.png,h,1,0.3748706999758724,none,-5,0,0.051111800014041364,0.04972839998663403,0.10021660002530552,0.09906119998777285,0.7506476000125986
RSVPLG03,si,20260305-161609,1.0.2,20260219-152011,790,Practice,T1,1,Automatic,main,11,20260305-161719,global,global,750,H,H,A,E,H-A.png,H-E.png,hH,hH,mask-3.png,mask-2.png,h,1,1.0076967000204604,none,-5,0,0.04952380000031553,0.04994179998175241,0.09884350001811981,0.09898369997972623,0.7495827000238933
RSVPLG03,si,20260305-161609,1.0.2,20260219-152011,790,Practice,T1,1,Automatic,main,12,20260305-161724,local,global,300,S,S,E,E,E-S.png,S-E.png,sS,sS,mask-3.png,mask-3.png,none,-6,0,none,-5,0,0.04927999997744337,0.05030740000074729,0.09995159998652525,0.10022329998901114,0.299587799992878
RSVPLG03,si,20260305-161833,1.0.2,20260219-152011,790,Introduction,Both,1,Automatic,main,1,20260305-161902,local,local,750,H,S,A,E,A-H.png,E-S.png,hH,sS,mask-2.png,mask-3.png,h,1,1.0962608000263572,s,1,0.6412147000082768,0.0975687000027392,0.09825579999596812,0.19796970000606962,0.1990800999919884,0.7486717000138015
RSVPLG03,si,20260305-161833,1.0.2,20260219-152011,790,Introduction,Both,1,Automatic,main,2,20260305-161908,local,local,750,H,S,A,E,A-H.png,E-S.png,hH,sS,mask-4.png,mask-3.png,h,1,0.790869600023143,s,1,0.38561870000557974,0.0996517000021413,0.09984099998837337,0.20154229999752715,0.1999597999965772,0.7509887000196613
RSVPLG03,si,20260305-161833,1.0.2,20260219-152011,790,Introduction,Both,1,Automatic,main,3,20260305-161914,global,global,750,H,S,E,E,H-E.png,S-E.png,hH,sS,mask-1.png,mask-4.png,h,1,1.3175942999951076,h,0,0.3701387000037357,0.1000757000001613,0.09962720001931302,0.20112240000162274,0.1992683999997098,0.7499557999835815
RSVPLG03,si,20260305-161833,1.0.2,20260219-152011,790,Introduction,Both,1,Automatic,main,4,20260305-161920,local,global,750,H,H,E,A,E-H.png,H-A.png,hH,hH,mask-3.png,mask-1.png,h,1,1.0380240999802481,s,0,0.5446489000169095,0.09928219998255372,0.10065259999828413,0.19972319999942556,0.2006820999959018,0.7488743999856524
RSVPLG03,si,20260305-161833,1.0.2,20260219-152011,790,Introduction,Both,1,Automatic,main,5,20260305-161926,global,local,750,S,S,E,A,S-E.png,A-S.png,sS,sS,mask-1.png,mask-4.png,h,0,1.914877399976831,s,1,1.0017346999957226,0.09902900000452064,0.09922989999176934,0.20135960000334308,0.19899649999570101,0.7507477000181098
RSVPLG03,si,20260305-161833,1.0.2,20260219-152011,790,Introduction,Both,1,Automatic,main,6,20260305-161933,local,local,750,H,S,A,A,A-H.png,A-S.png,hH,sS,mask-2.png,mask-2.png,h,1,0.8483117000141647,s,1,0.4025532999949064,0.0997882999945432,0.1002681000099983,0.1993755000003148,0.20023489999584854,0.7487962000013795
RSVPLG03,si,20260305-161833,1.0.2,20260219-152011,790,Introduction,Both,1,Automatic,main,7,20260305-161938,global,global,750,H,H,E,A,H-E.png,H-A.png,hH,hH,mask-3.png,mask-4.png,s,0,1.8131301999965217,h,1,0.3471633000008296,0.10109889999148436,0.09889249998377636,0.1990444999828469,0.19928979998803698,0.7499509000044782
RSVPLG03,si,20260305-161833,1.0.2,20260219-152011,790,Introduction,Both,1,Automatic,main,8,20260305-161945,global,local,750,H,H,A,A,H-A.png,A-H.png,hH,hH,mask-2.png,mask-1.png,h,1,2.1142829000018537,h,1,0.38601079999352805,0.10044939999352209,0.10080300000845455,0.19969270000001416,0.20125800001551397,0.7500188999983948
RSVPLG03,si,20260305-161833,1.0.2,20260219-152011,790,Introduction,Both,1,Automatic,main,9,20260305-161952,local,global,750,S,H,E,E,E-S.png,H-E.png,sS,hH,mask-1.png,mask-3.png,h,0,0.6918357999820728,s,0,0.2570367000007536,0.09993860000395216,0.09920840000268072,0.1997851000051014,0.20013599999947473,0.7492180000117514
RSVPLG03,si,20260305-161833,1.0.2,20260219-152011,790,Introduction,Both,1,Automatic,main,10,20260305-161957,local,local,750,S,S,A,E,A-S.png,E-S.png,sS,sS,mask-3.png,mask-4.png,s,1,1.897413200000301,s,1,0.3380337000126019,0.09883539998554625,0.10063599998829886,0.19978009999613278,0.20162639999762177,0.7485715000075288
RSVPLG03,si,20260305-161833,1.0.2,20260219-152011,790,Introduction,Both,1,Automatic,main,11,20260305-162004,local,global,750,S,S,E,E,E-S.png,S-E.png,sS,sS,mask-2.png,mask-1.png,s,1,1.6978965000016615,h,0,0.5140767999982927,0.0982023999968078,0.0987617000064347,0.19988889998057857,0.19961540002259426,0.7497072999831289
RSVPLG03,si,20260305-161833,1.0.2,20260219-152011,790,Introduction,Both,1,Automatic,main,12,20260305-162010,local,global,750,S,S,A,A,A-S.png,S-A.png,sS,sS,mask-1.png,mask-2.png,s,1,1.4670359999872744,h,0,0.18527449999237433,0.10164120001718402,0.10169509999104775,0.20007580000674352,0.20076959999278188,0.7494693000044208
RSVPLG03,si,20260305-161833,1.0.2,20260219-152011,790,Introduction,Both,1,Automatic,main,13,20260305-162016,global,local,750,S,S,E,E,S-E.png,E-S.png,sS,sS,mask-4.png,mask-3.png,s,1,1.2674826000002213,s,1,1.7139469000103418,0.10029499998199753,0.10044229999766685,0.20086640000226907,0.20002770001883619,0.7499475999793503
RSVPLG03,si,20260305-161833,1.0.2,20260219-152011,790,Introduction,Both,1,Automatic,main,14,20260305-162024,global,global,750,S,S,A,A,S-A.png,S-A.png,sS,sS,mask-3.png,mask-1.png,s,1,0.9299112999869976,s,1,0.3346161000081338,0.1009267000190448,0.10134359999210574,0.20081130001926795,0.2009093000087887,0.748724700009916
RSVPLG03,si,20260305-161833,1.0.2,20260219-152011,790,Introduction,Both,1,Automatic,main,15,20260305-162029,global,local,750,S,S,E,A,S-E.png,A-S.png,sS,sS,mask-1.png,mask-3.png,s,1,0.5116610999975819,s,1,0.26690739998593926,0.10117310000350699,0.09849529998609796,0.199739799980307,0.19922249999945052,0.7501691000070423
RSVPLG03,si,20260305-161833,1.0.2,20260219-152011,790,Introduction,Both,1,Automatic,main,16,20260305-162034,global,global,750,H,H,E,A,H-E.png,H-A.png,hH,hH,mask-1.png,mask-3.png,h,1,0.7854081999976188,h,1,0.2256731999805197,0.0989185000071302,0.09982480001053773,0.19911670000874437,0.199562199995853,0.7497074000129942
RSVPLG03,si,20260305-162055,1.0.2,20260219-152011,790,Practice,Both,1,Automatic,main,1,20260305-162114,local,global,300,S,H,A,A,A-S.png,H-A.png,sS,hH,mask-2.png,mask-4.png,h,0,2.034484000003431,s,0,0.08906349999597296,0.04972399998223409,0.05029300000751391,0.098173999984283,0.09996369999134913,0.2987043999892194
RSVPLG03,si,20260305-162055,1.0.2,20260219-152011,790,Practice,Both,1,Automatic,main,2,20260305-162120,local,global,300,H,S,E,E,E-H.png,S-E.png,hH,sS,mask-4.png,mask-3.png,s,0,1.0361656000022776,s,1,0.7864646000089124,0.050747300003422424,0.04975819998071529,0.10085760001675226,0.10010139999212697,0.3006795000110287
RSVPLG03,si,20260305-162055,1.0.2,20260219-152011,790,Practice,Both,1,Automatic,main,3,20260305-162126,global,global,300,H,S,E,E,H-E.png,S-E.png,hH,sS,mask-2.png,mask-3.png,h,1,1.548255200003041,s,1,0.2728916000050958,0.0510970999894198,0.04929910000646487,0.09969659999478608,0.09982030000537634,0.3008628000097815
RSVPLG03,si,20260305-162055,1.0.2,20260219-152011,790,Practice,Both,1,Automatic,main,4,20260305-162131,global,local,300,S,S,E,E,S-E.png,E-S.png,sS,sS,mask-1.png,mask-3.png,s,1,1.4320732000051066,h,0,0.12171150001813658,0.04879359999904409,0.04962509998586029,0.10017940000398085,0.10045769999851473,0.3004613000084646
RSVPLG03,si,20260305-162055,1.0.2,20260219-152011,790,Practice,Both,1,Automatic,main,5,20260305-162137,global,global,750,H,S,E,A,H-E.png,S-A.png,hH,sS,mask-3.png,mask-1.png,h,1,1.2705347000155598,s,1,0.07996589998947456,0.04987409999012016,0.05065429999376647,0.09969549998641014,0.09918829999514855,0.7507153000042308
RSVPLG03,si,20260305-162055,1.0.2,20260219-152011,790,Practice,Both,1,Automatic,main,6,20260305-162142,global,local,750,H,S,E,E,H-E.png,E-S.png,hH,sS,mask-2.png,mask-2.png,h,1,1.0517479999980424,s,1,0.09415999997872859,0.050803300022380427,0.04983370000263676,0.1012586000142619,0.09967779999715276,0.7509519000013825
RSVPLG03,si,20260305-162055,1.0.2,20260219-152011,790,Practice,Both,1,Automatic,main,7,20260305-162147,local,local,300,S,S,E,E,E-S.png,E-S.png,sS,sS,mask-3.png,mask-3.png,s,1,0.869592900009593,s,1,0.20881020001252182,0.05077289999462664,0.04905890001100488,0.1003453999874182,0.09901850001187995,0.30206129999714904
RSVPLG03,si,20260305-162055,1.0.2,20260219-152011,790,Practice,Both,1,Automatic,main,8,20260305-162152,global,global,750,S,H,E,A,S-E.png,H-A.png,sS,hH,mask-4.png,mask-3.png,s,1,0.7758630000171252,h,1,0.15036339999642223,0.05067369999596849,0.04917939999722876,0.10042959998827428,0.09866219997638837,0.7521331000025384
RSVPLG03,si,20260305-162055,1.0.2,20260219-152011,790,Practice,Both,1,Automatic,main,9,20260305-162157,local,local,750,H,H,E,A,E-H.png,A-H.png,hH,hH,mask-1.png,mask-1.png,s,0,1.151299100019969,h,1,0.15252699999837205,0.050304200005484745,0.049046200001612306,0.10041849999106489,0.10004859999753535,0.7522852999973111
RSVPLG03,si,20260305-162055,1.0.2,20260219-152011,790,Practice,Both,1,Automatic,main,10,20260305-162203,local,local,750,S,H,E,A,E-S.png,A-H.png,sS,hH,mask-4.png,mask-3.png,s,1,1.2307676999771502,h,1,0.04248230002122,0.04821910001919605,0.0506786999758333,0.09839340002508834,0.10046129999682307,0.7490667000238318
RSVPLG03,si,20260305-162055,1.0.2,20260219-152011,790,Practice,Both,1,Automatic,main,11,20260305-162208,local,local,300,S,H,A,E,A-S.png,E-H.png,sS,hH,mask-1.png,mask-4.png,h,0,0.9116366999805905,s,0,0.0407499999855645,0.05015399999683723,0.0500144999823533,0.10020119999535382,0.10122219999902882,0.3003037000016775
RSVPLG03,si,20260305-162055,1.0.2,20260219-152011,790,Practice,Both,1,Automatic,main,12,20260305-162213,global,global,300,H,S,E,E,H-E.png,S-E.png,hH,sS,mask-2.png,mask-2.png,h,1,1.2709476000163704,s,1,0.11405439997906797,0.05056539998622611,0.04916550000780262,0.0992254999873694,0.0985938000085298,0.30068409998784773
RSVPLG03,si,20260305-162055,1.0.2,20260219-152011,790,Practice,Both,1,Automatic,main,13,20260305-162218,global,local,750,H,S,E,A,H-E.png,A-S.png,hH,sS,mask-4.png,mask-1.png,s,0,0.5498809000127949,s,1,2.169027299998561,0.05160730000352487,0.05086940000182949,0.10060119998524897,0.09969800000544637,0.7523286999785341
RSVPLG03,si,20260305-162055,1.0.2,20260219-152011,790,Practice,Both,1,Automatic,main,14,20260305-162225,local,global,750,S,S,A,E,A-S.png,S-E.png,sS,sS,mask-3.png,mask-4.png,h,0,0.9913476000074297,s,1,0.20162680000066757,0.048317299981135875,0.05097439998644404,0.09801539999898523,0.10113179998006672,0.7501225000014529
RSVPLG03,si,20260305-162055,1.0.2,20260219-152011,790,Practice,Both,1,Automatic,main,15,20260305-162231,global,local,300,S,H,E,E,S-E.png,E-H.png,sS,hH,mask-2.png,mask-2.png,s,1,0.684854399994947,s,0,0.23969980000401847,0.050015399989206344,0.04995230000349693,0.09903869999106973,0.10201279999455437,0.2991718999983277
RSVPLG03,si,20260305-162055,1.0.2,20260219-152011,790,Practice,Both,1,Automatic,main,16,20260305-162235,local,global,750,H,H,A,E,A-H.png,H-E.png,hH,hH,mask-2.png,mask-2.png,s,0,1.434156500006793,h,1,0.23435329998028465,0.049651000008452684,0.04896980000194162,0.09946240001590922,0.09909949998836964,0.751214300020365
RSVPLG03,si,20260305-162302,1.0.2,20260219-152011,790,Practice,Both,1,Automatic,main,1,20260305-162323,global,local,750,S,H,A,E,S-A.png,E-H.png,sS,hH,mask-3.png,mask-1.png,s,1,0.5129600999935064,h,1,0.21439129998907447,0.0488879999902565,0.051222799986135215,0.098828299989691,0.10097669999231584,0.7487311000004411
RSVPLG03,si,20260305-162302,1.0.2,20260219-152011,790,Practice,Both,1,Automatic,main,2,20260305-162328,global,global,300,S,S,A,E,S-A.png,S-E.png,sS,sS,mask-3.png,mask-3.png,s,1,0.8363959999987856,s,1,0.3852164999989327,0.04956579999998212,0.04947100000572391,0.10118779999902472,0.10003549998509698,0.3003644999989774
RSVPLG03,si,20260305-162302,1.0.2,20260219-152011,790,Practice,Both,1,Automatic,main,3,20260305-162333,local,global,750,H,S,E,A,E-H.png,S-A.png,hH,sS,mask-2.png,mask-3.png,s,0,0.9540807000012137,h,0,0.3271463999990374,0.04866609998862259,0.05053940002107993,0.09834019999834709,0.10111519999918528,0.7491375999816228
RSVPLG03,si,20260305-162302,1.0.2,20260219-152011,790,Practice,Both,1,Automatic,main,4,20260305-162338,local,local,750,H,H,E,A,E-H.png,A-H.png,hH,hH,mask-3.png,mask-4.png,s,0,0.751956699998118,s,0,0.9606479000067338,0.04989110000315122,0.049613899987889454,0.10002529999474064,0.09944689998519607,0.7499354000028688
RSVPLG03,si,20260305-162302,1.0.2,20260219-152011,790,Practice,Both,1,Automatic,main,5,20260305-162344,global,global,750,H,H,E,E,H-E.png,H-E.png,hH,hH,mask-2.png,mask-1.png,h,1,0.9987857000087388,h,1,0.1929594000102952,0.05108020000625402,0.04915320000145584,0.10105389999807812,0.09914930001832545,0.7517731999978423
RSVPLG03,si,20260305-162302,1.0.2,20260219-152011,790,Practice,Both,1,Automatic,main,6,20260305-162349,local,local,300,S,H,A,A,A-S.png,A-H.png,sS,hH,mask-4.png,mask-2.png,h,0,2.456016699987231,s,0,0.38488409999990836,0.05073290001018904,0.04991349999909289,0.10042420000536367,0.09991359998821281,0.2999980000022333
RSVPLG03,si,20260305-162302,1.0.2,20260219-152011,790,Practice,Both,1,Automatic,main,7,20260305-162356,global,local,750,H,S,A,E,H-A.png,E-S.png,hH,sS,mask-1.png,mask-4.png,h,1,2.4055541999987327,s,1,0.3534155999950599,0.050861399999121204,0.049794399994425476,0.1002474999986589,0.09980200001155026,0.7510038999898825
RSVPLG03,si,20260305-162302,1.0.2,20260219-152011,790,Practice,Both,1,Automatic,main,8,20260305-162403,global,global,300,H,S,E,E,H-E.png,S-E.png,hH,sS,mask-3.png,mask-3.png,h,1,1.0313564000243787,s,1,0.585050499998033,0.05037609999999404,0.04888689998188056,0.09887449999223463,0.10076559998560697,0.2992347000108566
RSVPLG03,si,20260305-162302,1.0.2,20260219-152011,790,Practice,Both,1,Automatic,main,9,20260305-162408,local,local,750,S,H,A,E,A-S.png,E-H.png,sS,hH,mask-2.png,mask-4.png,h,0,0.7547043999948073,h,1,0.913703300000634,0.05082020000554621,0.05003079999005422,0.10125549999065697,0.09980739999446087,0.7506914999976289
RSVPLG03,si,20260305-162302,1.0.2,20260219-152011,790,Practice,Both,1,Automatic,main,10,20260305-162414,global,local,300,S,H,E,A,S-E.png,A-H.png,sS,hH,mask-1.png,mask-3.png,s,1,0.6920979999995325,h,1,0.6145358000067063,0.049875799973960966,0.05038530001183972,0.1008058000006713,0.10020379998604767,0.30056199998944066
RSVPLG03,si,20260305-162302,1.0.2,20260219-152011,790,Practice,Both,1,Automatic,main,11,20260305-162419,global,local,300,H,S,E,E,H-E.png,E-S.png,hH,sS,mask-1.png,mask-3.png,h,1,1.0744582999905106,s,1,0.5856130000029225,0.05083079999894835,0.04982469999231398,0.10087680001743138,0.09954429999925196,0.30005080002592877
RSVPLG03,si,20260305-162302,1.0.2,20260219-152011,790,Practice,Both,1,Automatic,main,12,20260305-162425,local,global,300,S,S,A,A,A-S.png,S-A.png,sS,sS,mask-4.png,mask-1.png,h,0,1.3780547000060324,s,1,0.10590879997471347,0.050244899990502745,0.05171090000658296,0.10119630000554025,0.10022200000821613,0.3002109999943059
RSVPLG03,si,20260305-162302,1.0.2,20260219-152011,790,Practice,Both,1,Automatic,main,13,20260305-162430,local,local,300,H,S,E,A,E-H.png,A-S.png,hH,sS,mask-3.png,mask-1.png,s,0,0.5564795999962371,s,1,0.21787550000590272,0.051236100000096485,0.05095410000649281,0.10127879999345168,0.10038150000036694,0.3002468000049703
RSVPLG03,si,20260305-162302,1.0.2,20260219-152011,790,Practice,Both,1,Automatic,main,14,20260305-162434,local,global,300,S,H,A,E,A-S.png,H-E.png,sS,hH,mask-2.png,mask-4.png,h,0,1.4319542000012007,s,0,0.04184230000828393,0.050068699987605214,0.049681800010148436,0.10059289998025633,0.10019600001396611,0.3002476999827195
RSVPLG03,si,20260305-162302,1.0.2,20260219-152011,790,Practice,Both,1,Automatic,main,15,20260305-162440,global,global,750,S,H,E,E,S-E.png,H-E.png,sS,hH,mask-1.png,mask-2.png,s,1,1.4646059999940917,h,1,0.40978200000245124,0.049561699997866526,0.05001289999927394,0.10052710000309162,0.09921789998770691,0.7510482000070624
RSVPLG03,si,20260305-162302,1.0.2,20260219-152011,790,Practice,Both,1,Automatic,main,16,20260305-162446,local,global,750,S,S,E,E,E-S.png,S-E.png,sS,sS,mask-4.png,mask-2.png,s,1,0.8585047999804374,h,0,0.34552530001383275,0.04810790001647547,0.05091940000420436,0.09897849999833852,0.09911389998160303,0.7487865000148304
RSVPLG03,si,20260305-162555,1.0.2,20260219-152011,790,Experiment,Both,1,Automatic,warmup,1,20260305-162618,local,local,300,H,H,A,E,A-H.png,E-H.png,hH,hH,mask-1.png,mask-4.png,h,1,1.0164246000058483,s,0,0.06571000002440996,0.04932510000071488,0.04930460001924075,0.10092299999087118,0.10052900001755916,0.30041119997622445
RSVPLG03,si,20260305-162555,1.0.2,20260219-152011,790,Experiment,Both,1,Automatic,warmup,2,20260305-162623,local,global,300,H,S,E,A,E-H.png,S-A.png,hH,sS,mask-1.png,mask-2.png,h,1,0.5339503000141121,s,1,0.40286819997709244,0.04990680000628345,0.050247700011823326,0.09958549999282695,0.10019830000237562,0.2997021999908611
RSVPLG03,si,20260305-162555,1.0.2,20260219-152011,790,Experiment,Both,1,Automatic,warmup,3,20260305-162627,global,local,750,H,H,E,E,H-E.png,E-H.png,hH,hH,mask-2.png,mask-4.png,h,1,0.4234079000016209,s,0,0.16066749999299645,0.049112799984868616,0.05073909999919124,0.0990954999870155,0.10113610001280904,0.7503011999942828
RSVPLG03,si,20260305-162555,1.0.2,20260219-152011,790,Experiment,Both,1,Automatic,warmup,4,20260305-162632,local,local,750,S,H,E,A,E-S.png,A-H.png,sS,hH,mask-3.png,mask-2.png,s,1,0.5149294000002556,h,1,0.24906309999641962,0.04956220000167377,0.04976569997961633,0.09887650000746362,0.09977020000224002,0.7505395000043791
RSVPLG03,si,20260305-162555,1.0.2,20260219-152011,790,Experiment,Both,1,Automatic,main,5,20260305-162637,global,global,300,S,H,E,A,S-E.png,H-A.png,sS,hH,mask-2.png,mask-3.png,s,1,0.43819950000033714,h,1,0.1358953000162728,0.04970909998519346,0.04973330002394505,0.09858809999423102,0.10112330000265501,0.299176999978954
RSVPLG03,si,20260305-162555,1.0.2,20260219-152011,790,Experiment,Both,1,Automatic,main,6,20260305-162641,local,global,300,S,S,E,A,E-S.png,S-A.png,sS,sS,mask-2.png,mask-1.png,s,1,0.8067324000003282,s,1,0.17731470000580885,0.04897149998578243,0.04939810000360012,0.0998566999915056,0.09990770000149496,0.2998881999810692
RSVPLG03,si,20260305-162555,1.0.2,20260219-152011,790,Experiment,Both,1,Automatic,main,7,20260305-162646,local,global,750,H,H,E,A,E-H.png,H-A.png,hH,hH,mask-2.png,mask-3.png,s,0,0.43439879998913966,h,1,0.018184099986683577,0.050769199995556846,0.05008580000139773,0.0995184000057634,0.09886339999502525,0.7532522999972571
RSVPLG03,si,20260305-162555,1.0.2,20260219-152011,790,Experiment,Both,1,Automatic,main,8,20260305-162651,local,global,300,S,H,A,A,A-S.png,H-A.png,sS,hH,mask-3.png,mask-1.png,h,0,0.799806199996965,s,0,0.0017453000182285905,0.050990099989576265,0.051465900003677234,0.09948839998105541,0.10095610001008026,0.29968349999398924
RSVPLG03,si,20260305-162555,1.0.2,20260219-152011,790,Experiment,Both,1,Automatic,main,9,20260305-162655,global,local,750,H,H,A,E,H-A.png,E-H.png,hH,hH,mask-3.png,mask-1.png,h,1,1.1399833000032231,h,1,0.2097448000276927,0.04993999999715015,0.05023329998948611,0.09912420000182465,0.10029949998715892,0.750859899999341
RSVPLG03,si,20260305-162555,1.0.2,20260219-152011,790,Experiment,Both,1,Automatic,main,10,20260305-162701,local,global,750,S,S,A,E,A-S.png,S-E.png,sS,sS,mask-4.png,mask-1.png,h,0,0.898014799982775,h,0,0.24899689998710528,0.05018349998863414,0.05038359999889508,0.10062599999946542,0.098950200015679,0.7521073999814689
RSVPLG03,si,20260305-162555,1.0.2,20260219-152011,790,Experiment,Both,1,Automatic,main,11,20260305-162706,local,local,750,S,S,E,E,E-S.png,E-S.png,sS,sS,mask-3.png,mask-1.png,s,1,0.8196365000039805,s,1,0.3541352000029292,0.04936429997906089,0.05131720000645146,0.1003208999754861,0.10042880001128651,0.7502152999804821
RSVPLG03,si,20260305-162555,1.0.2,20260219-152011,790,Experiment,Both,1,Automatic,main,12,20260305-162711,local,global,750,H,H,A,E,A-H.png,H-E.png,hH,hH,mask-1.png,mask-3.png,h,1,0.5775161000201479,h,1,0.18550630001118407,0.04812849999871105,0.049333900009514764,0.09820869998657145,0.09908499999437481,0.7502631999959704
RSVPLG03,si,20260305-162555,1.0.2,20260219-152011,790,Experiment,Both,1,Automatic,main,13,20260305-162716,global,global,750,H,S,A,A,H-A.png,S-A.png,hH,sS,mask-1.png,mask-4.png,h,1,0.4635388999886345,s,1,0.057977400021627545,0.04962780000641942,0.04877930000657216,0.10018510001827963,0.1000769000092987,0.7524242000072263
RSVPLG03,si,20260305-162555,1.0.2,20260219-152011,790,Experiment,Both,1,Automatic,main,14,20260305-162721,local,local,750,S,S,E,E,E-S.png,E-S.png,sS,sS,mask-4.png,mask-3.png,s,1,0.6925708000198938,s,1,0.1611648999969475,0.05015950000961311,0.050108399998862296,0.10009170000557788,0.09992110001621768,0.75109770000563
RSVPLG03,si,20260305-162555,1.0.2,20260219-152011,790,Experiment,Both,1,Automatic,main,15,20260305-162726,global,local,300,S,S,E,E,S-E.png,E-S.png,sS,sS,mask-3.png,mask-3.png,s,1,0.6520985999959521,h,0,0.009601199999451637,0.04905020000296645,0.04973430000245571,0.0988904999976512,0.09907500000554137,0.3001550000044517
RSVPLG03,si,20260305-162555,1.0.2,20260219-152011,790,Experiment,Both,1,Automatic,main,16,20260305-162730,global,local,300,H,H,E,E,H-E.png,E-H.png,hH,hH,mask-1.png,mask-1.png,h,1,0.5313113000011072,s,0,0.024955800006864592,0.0499409000040032,0.049262500018812716,0.0991984999855049,0.10020179999992251,0.29942189998109825
RSVPLG03,si,20260305-162555,1.0.2,20260219-152011,790,Experiment,Both,1,Automatic,main,17,20260305-162735,global,global,300,S,S,A,A,S-A.png,S-A.png,sS,sS,mask-4.png,mask-3.png,s,1,0.3104174000036437,s,1,0.1058848999964539,0.04970450000837445,0.049028400011593476,0.10031149999122135,0.09970000002067536,0.3002536999993026
RSVPLG03,si,20260305-162555,1.0.2,20260219-152011,790,Experiment,Both,1,Automatic,main,18,20260305-162739,local,local,300,H,S,A,E,A-H.png,E-S.png,hH,sS,mask-4.png,mask-3.png,s,0,0.6732422999921255,s,1,0.07527440000558272,0.05001800000900403,0.05107369998586364,0.09982510001282208,0.09997089998796582,0.299251100019319
RSVPLG03,si,20260305-162555,1.0.2,20260219-152011,790,Experiment,Both,1,Automatic,main,19,20260305-162743,global,global,300,H,S,E,E,H-E.png,S-E.png,hH,sS,mask-4.png,mask-4.png,h,1,0.68527419999009,s,1,0.026529000024311244,0.04977749998215586,0.04970160001539625,0.09966849998454563,0.09998830000404269,0.3011329999717418
RSVPLG03,si,20260305-162555,1.0.2,20260219-152011,790,Experiment,Both,1,Automatic,main,20,20260305-162747,global,global,750,S,S,E,E,S-E.png,S-E.png,sS,sS,mask-4.png,mask-4.png,s,1,0.6101820000039879,s,1,0.2096873999980744,0.04865440001594834,0.050275899993721396,0.09750980001990683,0.10020200000144541,0.7491808000195306
RSVPLG03,si,20260305-162555,1.0.2,20260219-152011,790,Experiment,Both,1,Automatic,main,21,20260305-162752,global,global,750,H,H,E,E,H-E.png,H-E.png,hH,hH,mask-1.png,mask-2.png,h,1,0.312724999996135,h,1,0.10555500001646578,0.04953699998441152,0.04911229998106137,0.09884679998503998,0.098527499998454,0.7517691999964882
RSVPLG03,si,20260305-162555,1.0.2,20260219-152011,790,Experiment,Both,1,Automatic,main,22,20260305-162757,global,local,750,S,S,A,E,S-A.png,E-S.png,sS,sS,mask-3.png,mask-1.png,s,1,0.4985943000065163,s,1,0.11260210000909865,0.05064709999714978,0.04909310000948608,0.10003359999973327,0.09952049999265,0.7524432000063825
RSVPLG03,si,20260305-162555,1.0.2,20260219-152011,790,Experiment,Both,1,Automatic,main,23,20260305-162802,global,global,300,H,S,E,E,H-E.png,S-E.png,hH,sS,mask-2.png,mask-3.png,h,1,1.4744461000082083,s,1,1.6188737000047695,0.05158369999844581,0.049574600008782,0.10030249998089857,0.10050450000562705,0.30063139999401756
RSVPLG03,si,20260305-162555,1.0.2,20260219-152011,790,Experiment,Both,1,Automatic,main,24,20260305-162807,local,global,300,H,S,A,E,A-H.png,S-E.png,hH,sS,mask-3.png,mask-1.png,h,1,1.0080596999905538,s,1,0.002368499990552664,0.052410999982384965,0.05164920000243001,0.10103789999266155,0.10030030002235435,0.301642999984324
RSVPLG03,si,20260305-162555,1.0.2,20260219-152011,790,Experiment,Both,1,Automatic,main,25,20260305-162812,local,global,750,S,S,A,A,A-S.png,S-A.png,sS,sS,mask-2.png,mask-1.png,h,0,0.49884990000282414,s,1,0.049280400009592995,0.050358799984678626,0.05006619999767281,0.10006339999381453,0.10068990002037026,0.7506011999794282
RSVPLG03,si,20260305-162555,1.0.2,20260219-152011,790,Experiment,Both,1,Automatic,main,26,20260305-162934,local,local,300,S,S,A,E,A-S.png,E-S.png,sS,sS,mask-1.png,mask-3.png,h,0,0.44901320000644773,s,1,0.001349600002868101,0.05060239997692406,0.050603500014403835,0.1016681999899447,0.10095150000415742,0.30097009998280555
RSVPLG03,si,20260305-162555,1.0.2,20260219-152011,790,Experiment,Both,1,Automatic,main,27,20260305-162938,local,global,750,S,H,E,A,E-S.png,H-A.png,sS,hH,mask-2.png,mask-2.png,s,1,0.3203057999780867,h,1,0.010188499989453703,0.049917600001208484,0.04989609998301603,0.10067650000564754,0.10003799997502938,0.7517387000261806
RSVPLG03,si,20260305-162555,1.0.2,20260219-152011,790,Experiment,Both,1,Automatic,main,28,20260305-162943,global,global,750,S,S,A,E,S-A.png,S-E.png,sS,sS,mask-1.png,mask-3.png,s,1,0.20426709999446757,h,0,0.01646529999561608,0.04842019997886382,0.050004999997327104,0.09911609999835491,0.0999500000034459,0.7501538999786135
RSVPLG03,si,20260305-162555,1.0.2,20260219-152011,790,Experiment,Both,1,Automatic,main,29,20260305-162947,global,local,750,S,H,E,E,S-E.png,E-H.png,sS,hH,mask-3.png,mask-3.png,s,1,0.3723238999955356,s,0,0.0887430000002496,0.051439000002574176,0.05030470000929199,0.10024860000703484,0.10017380001954734,0.7516039999900386
RSVPLG03,si,20260305-162555,1.0.2,20260219-152011,790,Experiment,Both,1,Automatic,main,30,20260305-162951,local,global,300,H,H,E,A,E-H.png,H-A.png,hH,hH,mask-2.png,mask-3.png,s,0,0.5104892000090331,h,1,0.6150185999867972,0.04993779998039827,0.051415499998256564,0.10174759998335503,0.10023429998545907,0.30111080000642687
RSVPLG03,si,20260305-162555,1.0.2,20260219-152011,790,Experiment,Both,1,Automatic,main,31,20260305-162956,local,global,750,H,H,E,E,E-H.png,H-E.png,hH,hH,mask-3.png,mask-1.png,s,0,0.2960274000070058,h,1,0.002071700000669807,0.04958809999516234,0.05085610001697205,0.09930119998170994,0.10187770001357421,0.7506777999806218
RSVPLG03,si,20260305-162555,1.0.2,20260219-152011,790,Experiment,Both,1,Automatic,main,32,20260305-163000,local,local,750,S,S,A,E,A-S.png,E-S.png,sS,sS,mask-2.png,mask-2.png,h,0,0.5624976999824867,h,0,0.08120469999266788,0.050975499994819984,0.05131390001042746,0.10022769999341108,0.09996270001283847,0.7511796999897342
RSVPLG03,si,20260305-162555,1.0.2,20260219-152011,790,Experiment,Both,1,Automatic,main,33,20260305-163005,global,global,300,S,S,E,A,S-E.png,S-A.png,sS,sS,mask-1.png,mask-3.png,h,0,0.714230800018413,s,1,1.1450428000243846,0.04869250001502223,0.04994450000231154,0.0985573000216391,0.10100980001152493,0.29953479999676347
RSVPLG03,si,20260305-162555,1.0.2,20260219-152011,790,Experiment,Both,1,Automatic,main,34,20260305-163010,global,local,300,H,H,E,E,H-E.png,E-H.png,hH,hH,mask-3.png,mask-3.png,h,1,1.7316073999973014,s,0,0.3704351000196766,0.04781690001254901,0.05054920000839047,0.09901229999377392,0.09961450000992045,0.29996080001001246
RSVPLG03,si,20260305-162555,1.0.2,20260219-152011,790,Experiment,Both,1,Automatic,main,35,20260305-163016,global,local,750,H,S,A,E,H-A.png,E-S.png,hH,sS,mask-4.png,mask-4.png,h,1,1.377963999984786,s,1,0.25775240000803024,0.050235900009283796,0.049557600024854764,0.10033700001076795,0.1003958000219427,0.7514350999845192
RSVPLG03,si,20260305-162555,1.0.2,20260219-152011,790,Experiment,Both,1,Automatic,main,36,20260305-163022,global,local,750,H,S,A,A,H-A.png,A-S.png,hH,sS,mask-3.png,mask-1.png,h,1,0.669570099998964,s,1,0.6335415999928955,0.05073470002389513,0.0486504000145942,0.10076410000328906,0.10039340000366792,0.752382700011367
RSVPLG03,si,20260305-162555,1.0.2,20260219-152011,790,Experiment,Both,1,Automatic,main,37,20260305-163028,global,global,750,H,S,E,E,H-E.png,S-E.png,hH,sS,mask-1.png,mask-2.png,h,1,0.4534332000184804,s,1,0.016757699981098995,0.051356099982513115,0.050474399991799146,0.10104799998225644,0.10146599999279715,0.7514530000044033
RSVPLG03,si,20260305-162555,1.0.2,20260219-152011,790,Experiment,Both,1,Automatic,main,38,20260305-163032,global,local,750,H,S,E,E,H-E.png,E-S.png,hH,sS,mask-3.png,mask-1.png,h,1,0.48763750001671724,s,1,0.6586874000204261,0.04983340000035241,0.04922820001957007,0.09927899998729117,0.0985872000164818,0.7519318999839015
RSVPLG03,si,20260305-162555,1.0.2,20260219-152011,790,Experiment,Both,1,Automatic,main,39,20260305-163038,local,local,300,S,S,E,A,E-S.png,A-S.png,sS,sS,mask-2.png,mask-3.png,s,1,0.7080506999918725,h,0,0.035670600016601384,0.04866800000309013,0.0497015000146348,0.09995540001546033,0.0998402000113856,0.3003160000080243
RSVPLG03,si,20260305-162555,1.0.2,20260219-152011,790,Experiment,Both,1,Automatic,main,40,20260305-163042,local,local,300,S,H,A,E,A-S.png,E-H.png,sS,hH,mask-2.png,mask-1.png,h,0,1.6172304999781772,s,0,0.264596100023482,0.050750000023981556,0.05080540000926703,0.10071920001064427,0.09979090001434088,0.30019650000031106
RSVPLG03,si,20260305-162555,1.0.2,20260219-152011,790,Experiment,Both,1,Automatic,main,41,20260305-163048,local,global,750,H,H,A,A,A-H.png,H-A.png,hH,hH,mask-1.png,mask-1.png,h,1,1.1318600999948103,s,0,0.03426340001169592,0.050049299985403195,0.04863230002229102,0.10076000000117347,0.09937170002376661,0.7513578999787569
RSVPLG03,si,20260305-162555,1.0.2,20260219-152011,790,Experiment,Both,1,Automatic,main,42,20260305-163053,global,global,300,H,S,E,E,H-E.png,S-E.png,hH,sS,mask-4.png,mask-4.png,h,1,0.6046243000018876,s,1,0.7484891999920364,0.05079239999759011,0.05023649998474866,0.10015879999264143,0.10004089999711141,0.3002775000059046
RSVPLG03,si,20260305-162555,1.0.2,20260219-152011,790,Experiment,Both,1,Automatic,main,43,20260305-163058,global,global,300,S,H,E,A,S-E.png,H-A.png,sS,hH,mask-1.png,mask-4.png,s,1,0.7643340000067838,h,1,0.0021767999860458076,0.048717199999373406,0.0502756999921985,0.09959959998377599,0.10001110000303015,0.29992540000239387
RSVPLG03,si,20260305-162555,1.0.2,20260219-152011,790,Experiment,Both,1,Automatic,main,44,20260305-163102,global,global,750,S,S,E,E,S-E.png,S-E.png,sS,sS,mask-1.png,mask-4.png,s,1,0.7566231999953743,s,1,0.12263830000301823,0.04897699999855831,0.04940839999471791,0.09830260000308044,0.10041410001576878,0.7497865000041202
RSVPLG03,si,20260305-162555,1.0.2,20260219-152011,790,Experiment,Both,1,Automatic,main,45,20260305-163107,global,local,750,H,S,E,E,H-E.png,E-S.png,hH,sS,mask-1.png,mask-3.png,h,1,0.8450051999825519,s,1,0.6868150999944191,0.04964170002494939,0.04869609998422675,0.0994059000222478,0.09987669999827631,0.7512562000192702
RSVPLG03,si,20260305-162555,1.0.2,20260219-152011,790,Experiment,Both,1,Automatic,main,46,20260305-163113,global,local,300,H,S,E,A,H-E.png,A-S.png,hH,sS,mask-1.png,mask-2.png,s,0,0.7083454000239726,s,1,0.20990180000080727,0.04902139998739585,0.05043489998206496,0.1000386000087019,0.10111819999292493,0.29976550000719726
RSVPLG03,si,20260305-162555,1.0.2,20260219-152011,790,Experiment,Both,1,Automatic,main,47,20260305-163118,global,global,750,H,S,E,A,H-E.png,S-A.png,hH,sS,mask-1.png,mask-1.png,h,1,0.5456258000049274,s,1,0.06551590000162832,0.05071509999106638,0.05004130001179874,0.10083309997571632,0.10071830000379123,0.7518428999755997
RSVPLG03,si,20260305-162555,1.0.2,20260219-152011,790,Experiment,Both,1,Automatic,main,48,20260305-163122,global,local,300,S,S,A,A,S-A.png,A-S.png,sS,sS,mask-2.png,mask-3.png,s,1,0.5860457000089809,h,0,0.30553060001693666,0.05115539999678731,0.05052150000119582,0.09910819999640808,0.10029689999646507,0.30041969998274
RSVPLG03,si,20260305-162555,1.0.2,20260219-152011,790,Experiment,Both,1,Automatic,main,49,20260305-163127,local,local,750,S,H,E,A,E-S.png,A-H.png,sS,hH,mask-4.png,mask-1.png,s,1,2.0119566999783274,h,1,0.04224360000807792,0.049052400019718334,0.051173899992136285,0.09975210000993684,0.10228920000372455,0.7499913000210654
RSVPLG03,si,20260305-162555,1.0.2,20260219-152011,790,Experiment,Both,1,Automatic,main,50,20260305-163133,global,local,750,H,H,A,E,H-A.png,E-H.png,hH,hH,mask-1.png,mask-1.png,h,1,0.8652084000059403,s,0,0.14571829998749308,0.050378199986880645,0.04871219999040477,0.10112729997490533,0.10025360001600347,0.7525890999822877
RSVPLG03,si,20260305-162555,1.0.2,20260219-152011,790,Experiment,Both,1,Automatic,main,51,20260305-163146,local,global,300,S,H,E,E,E-S.png,H-E.png,sS,hH,mask-2.png,mask-1.png,s,1,0.8800269000057597,h,1,0.12092909999773838,0.049722000025212765,0.052365000010468066,0.10017820002394728,0.10055709999869578,0.29982340001151897
RSVPLG03,si,20260305-162555,1.0.2,20260219-152011,790,Experiment,Both,1,Automatic,main,52,20260305-163150,global,global,750,H,H,A,A,H-A.png,H-A.png,hH,hH,mask-4.png,mask-4.png,h,1,0.43768060000729747,s,0,0.06557579999207519,0.050475799973355606,0.05028369999490678,0.10100199998123571,0.10014600001159124,0.7512744999839924
RSVPLG03,si,20260305-162555,1.0.2,20260219-152011,790,Experiment,Both,1,Automatic,main,53,20260305-163155,local,global,300,H,S,E,E,E-H.png,S-E.png,hH,sS,mask-1.png,mask-2.png,s,0,0.8112850000034086,h,0,0.19403330000932328,0.049883500003488734,0.04912219999823719,0.0999436000129208,0.09848760001477785,0.3017565000045579
RSVPLG03,si,20260305-162555,1.0.2,20260219-152011,790,Experiment,Both,1,Automatic,main,54,20260305-163200,local,local,750,S,H,A,E,A-S.png,E-H.png,sS,hH,mask-3.png,mask-3.png,s,1,1.460138399997959,h,1,0.1296223999815993,0.04984689998673275,0.050031499995384365,0.0996918999881018,0.10089629999129102,0.751325099990936
RSVPLG03,si,20260305-162555,1.0.2,20260219-152011,790,Experiment,Both,1,Automatic,main,55,20260305-163205,local,local,300,H,H,A,A,A-H.png,A-H.png,hH,hH,mask-3.png,mask-3.png,h,1,0.7076225999917369,h,1,0.17099610000150278,0.050606600008904934,0.05016300000716001,0.10049109999090433,0.09955830001854338,0.30171299999346957
RSVPLG03,si,20260305-162555,1.0.2,20260219-152011,790,Experiment,Both,1,Automatic,main,56,20260305-163210,global,global,300,H,S,E,A,H-E.png,S-A.png,hH,sS,mask-3.png,mask-2.png,h,1,0.662343800009694,s,1,0.057670699985465035,0.050910100020701066,0.050233100017067045,0.10101700000814162,0.09989760001190007,0.3013968000013847
RSVPLG03,si,20260305-162555,1.0.2,20260219-152011,790,Experiment,Both,1,Automatic,main,57,20260305-163215,local,local,300,S,H,A,E,A-S.png,E-H.png,sS,hH,mask-1.png,mask-3.png,h,0,3.3991876999789383,s,0,0.029246399994008243,0.050041999988025054,0.05117439999594353,0.09933629998704419,0.10122769998270087,0.3000854999991134
RSVPLG03,si,20260305-162555,1.0.2,20260219-152011,790,Experiment,Both,1,Automatic,main,58,20260305-163222,local,local,300,H,H,E,A,E-H.png,A-H.png,hH,hH,mask-3.png,mask-2.png,h,1,1.3992671000014525,s,0,0.018239500001072884,0.04922590000205673,0.050132400006987154,0.10011739999754354,0.09973149999859743,0.2996539000014309
RSVPLG03,si,20260305-162555,1.0.2,20260219-152011,790,Experiment,Both,1,Automatic,main,59,20260305-163227,global,global,300,S,H,E,E,S-E.png,H-E.png,sS,hH,mask-2.png,mask-3.png,h,0,1.6920902999991085,s,0,0.07306470000185072,0.04840290002175607,0.05159950000233948,0.09980820000055246,0.10054060001857579,0.29828899999847636
RSVPLG03,si,20260305-162555,1.0.2,20260219-152011,790,Experiment,Both,1,Automatic,main,60,20260305-163232,global,global,750,S,S,A,E,S-A.png,S-E.png,sS,sS,mask-4.png,mask-4.png,s,1,1.131556800013641,s,1,0.17746409997926094,0.0500797999848146,0.049689300009049475,0.10045279999030754,0.09933019999880344,0.7521617999882437
RSVPLG03,si,20260305-162555,1.0.2,20260219-152011,790,Experiment,Both,1,Automatic,main,61,20260305-163238,global,global,750,H,H,A,E,H-A.png,H-E.png,hH,hH,mask-1.png,mask-2.png,h,1,0.5823807999840938,h,1,0.09750990002066828,0.05088579998118803,0.05125350001617335,0.10076959998696111,0.10009600000921637,0.7515453999803867
RSVPLG03,si,20260305-162555,1.0.2,20260219-152011,790,Experiment,Both,1,Automatic,main,62,20260305-163243,global,local,300,H,H,A,E,H-A.png,E-H.png,hH,hH,mask-3.png,mask-4.png,h,1,0.8388542000029702,s,0,0.3700387999997474,0.04941030000918545,0.049171999999089167,0.09943719999864697,0.10022480000043288,0.3005114000116009
RSVPLG03,si,20260305-162555,1.0.2,20260219-152011,790,Experiment,Both,1,Automatic,main,63,20260305-163248,local,local,750,H,H,E,A,E-H.png,A-H.png,hH,hH,mask-3.png,mask-1.png,h,1,1.040936800010968,h,1,0.17860620000283234,0.049695399997290224,0.04997860000003129,0.09955379998427816,0.10060419997898862,0.7504595000064
RSVPLG03,si,20260305-162555,1.0.2,20260219-152011,790,Experiment,Both,1,Automatic,main,64,20260305-163253,local,local,300,S,S,E,A,E-S.png,A-S.png,sS,sS,mask-4.png,mask-1.png,s,1,0.7676835999882314,s,1,0.16250229999423027,0.04977179999696091,0.049641899997368455,0.10152709999238141,0.10040250001475215,0.3010184000013396
RSVPLG03,si,20260305-162555,1.0.2,20260219-152011,790,Experiment,Both,1,Automatic,main,65,20260305-163258,local,local,750,H,H,E,A,E-H.png,A-H.png,hH,hH,mask-3.png,mask-1.png,h,1,1.4046322999929544,s,0,0.1693673999980092,0.04982090002158657,0.049604700005147606,0.10103000001981854,0.09941530000651255,0.7506534999993164
RSVPLG03,si,20260305-162555,1.0.2,20260219-152011,790,Experiment,Both,1,Automatic,main,66,20260305-163303,local,global,750,S,S,A,E,A-S.png,S-E.png,sS,sS,mask-4.png,mask-4.png,s,1,1.2248194999992847,h,0,0.05055429998901673,0.05076280000503175,0.048834399989573285,0.09970609997981228,0.09910880000097677,0.7524759999942034
RSVPLG03,si,20260305-162555,1.0.2,20260219-152011,790,Experiment,Both,1,Automatic,main,67,20260305-163309,global,local,300,S,S,E,A,S-E.png,A-S.png,sS,sS,mask-4.png,mask-3.png,s,1,0.6701024000067264,s,1,1.8420778999861795,0.0516473000170663,0.048736700002336875,0.10073269999702461,0.10013570002047345,0.3022861999925226
RSVPLG03,si,20260305-162555,1.0.2,20260219-152011,790,Experiment,Both,1,Automatic,main,68,20260305-163315,global,local,750,S,S,E,E,S-E.png,E-S.png,sS,sS,mask-2.png,mask-4.png,s,1,0.8259869999892544,s,1,0.5784137999871746,0.04946159999235533,0.049868699978105724,0.09986930000013672,0.09908639997593127,0.7507618000090588
RSVPLG03,si,20260305-162555,1.0.2,20260219-152011,790,Experiment,Both,1,Automatic,main,69,20260305-163321,global,local,300,H,H,E,E,H-E.png,E-H.png,hH,hH,mask-2.png,mask-3.png,h,1,1.259746299998369,s,0,0.008965699991676956,0.04843029999756254,0.05094349998398684,0.0998189999954775,0.10144729999592528,0.2994069000124
RSVPLG03,si,20260305-162555,1.0.2,20260219-152011,790,Experiment,Both,1,Automatic,main,70,20260305-163326,global,local,300,S,H,A,E,S-A.png,E-H.png,sS,hH,mask-2.png,mask-1.png,s,1,0.6717627999896649,s,0,0.2344567999825813,0.04962959999102168,0.04928750000544824,0.10011389999999665,0.09970829999656416,0.30075649998616427
RSVPLG03,si,20260305-162555,1.0.2,20260219-152011,790,Experiment,Both,1,Automatic,main,71,20260305-163330,global,local,300,S,S,E,E,S-E.png,E-S.png,sS,sS,mask-3.png,mask-1.png,s,1,0.6121211999852676,h,0,0.1367364000179805,0.0496454999956768,0.050206500018248335,0.09931210000650026,0.10008350000134669,0.3003597999922931
RSVPLG03,si,20260305-162555,1.0.2,20260219-152011,790,Experiment,Both,1,Automatic,main,72,20260305-163335,global,global,300,S,H,A,E,S-A.png,H-E.png,sS,hH,mask-2.png,mask-4.png,s,1,0.5898325000016484,h,1,0.0577220999985002,0.05080280001857318,0.050403400004142895,0.10046270000748336,0.09949389999383129,0.30121830001007766
RSVPLG03,si,20260305-162555,1.0.2,20260219-152011,790,Experiment,Both,1,Automatic,main,73,20260305-163339,local,local,750,H,H,A,E,A-H.png,E-H.png,hH,hH,mask-4.png,mask-1.png,h,1,0.5462925000174437,h,1,0.22206259999074973,0.049444599979324266,0.04757439999957569,0.10045599998557009,0.09654679999221116,0.7542774000030477
RSVPLG03,si,20260305-162555,1.0.2,20260219-152011,790,Experiment,Both,1,Automatic,main,74,20260305-163344,local,local,300,H,H,E,E,E-H.png,E-H.png,hH,hH,mask-2.png,mask-1.png,h,1,0.8109200999897439,h,1,0.1689433999999892,0.050052300008246675,0.04989599998225458,0.10059919999912381,0.09902919997693971,0.3017645000072662
RSVPLG03,si,20260305-162555,1.0.2,20260219-152011,790,Experiment,Both,1,Automatic,main,75,20260305-163349,local,local,750,S,H,A,A,A-S.png,A-H.png,sS,hH,mask-2.png,mask-2.png,h,0,0.7134225000045262,s,0,0.0016219000099226832,0.04925419998471625,0.0502695000031963,0.0987306000024546,0.10021610002149828,0.7500051999813877
RSVPLG03,si,20260305-162555,1.0.2,20260219-152011,790,Experiment,Both,1,Automatic,main,76,20260305-163356,global,global,750,S,H,E,A,S-E.png,H-A.png,sS,hH,mask-3.png,mask-2.png,h,0,0.6426418000191916,s,0,0.1628478999773506,0.05156700001680292,0.050266800011741,0.10036250000121072,0.09942810001666658,0.7520899999944959
RSVPLG03,si,20260305-162555,1.0.2,20260219-152011,790,Experiment,Both,1,Automatic,main,77,20260305-163401,global,local,750,H,H,A,A,H-A.png,A-H.png,hH,hH,mask-1.png,mask-4.png,h,1,0.4991314000217244,h,1,0.12135869998019189,0.0505325999984052,0.05073479999555275,0.10043309998582117,0.1016966000024695,0.7506444999889936
RSVPLG03,si,20260305-162555,1.0.2,20260219-152011,790,Experiment,Both,1,Automatic,main,78,20260305-163406,local,global,750,S,H,A,E,A-S.png,H-E.png,sS,hH,mask-3.png,mask-3.png,s,1,1.2738396000058856,h,1,0.13688519998686388,0.05081769998650998,0.049629999994067475,0.10105440000188537,0.10002600000007078,0.7518390000041109
RSVPLG03,si,20260305-162555,1.0.2,20260219-152011,790,Experiment,Both,1,Automatic,main,79,20260305-163411,global,local,750,S,H,E,E,S-E.png,E-H.png,sS,hH,mask-1.png,mask-2.png,s,1,0.49184130001231097,s,0,0.16984170000068843,0.048838999995496124,0.04908850000356324,0.09885929999290965,0.0999798999982886,0.7512449999921955
RSVPLG03,si,20260305-162555,1.0.2,20260219-152011,790,Experiment,Both,1,Automatic,main,80,20260305-163416,local,global,750,H,S,A,E,A-H.png,S-E.png,hH,sS,mask-4.png,mask-3.png,h,1,1.4357884000055492,s,1,0.5468146999774035,0.05006979999598116,0.04971380002098158,0.09974139998666942,0.09929900002316572,0.7507269999769051
RSVPLG03,si,20260305-162555,1.0.2,20260219-152011,790,Experiment,Both,1,Automatic,main,81,20260305-163422,local,global,300,H,H,A,E,A-H.png,H-E.png,hH,hH,mask-3.png,mask-3.png,h,1,0.8044290000107139,s,0,0.988390900020022,0.04836450002039783,0.05033189998357557,0.098156200023368,0.09914969999226741,0.29997450002701953
RSVPLG03,si,20260305-162555,1.0.2,20260219-152011,790,Experiment,Both,1,Automatic,main,82,20260305-163427,local,global,300,H,S,E,A,E-H.png,S-A.png,hH,sS,mask-4.png,mask-4.png,h,1,0.5598393999971449,h,0,0.09719040000345558,0.04992979997768998,0.051271900010760874,0.09992009997949935,0.1010322000074666,0.2998962999845389
RSVPLG03,si,20260305-162555,1.0.2,20260219-152011,790,Experiment,Both,1,Automatic,main,83,20260305-163431,local,global,300,S,H,A,E,A-S.png,H-E.png,sS,hH,mask-1.png,mask-2.png,s,1,1.0540279000124428,h,1,0.10624100000131875,0.0504590000200551,0.04911969997920096,0.10101420001592487,0.10016939998604357,0.3016213000228163
RSVPLG03,si,20260305-162555,1.0.2,20260219-152011,790,Experiment,Both,1,Automatic,main,84,20260305-163436,global,local,300,S,H,E,A,S-E.png,A-H.png,sS,hH,mask-2.png,mask-4.png,s,1,0.7792484999808948,s,0,0.16900160000659525,0.049972300010267645,0.049452300008852035,0.10100200001033954,0.09950410001329146,0.30093440000200644
RSVPLG03,si,20260305-162555,1.0.2,20260219-152011,790,Experiment,Both,1,Automatic,main,85,20260305-163441,local,global,300,H,H,E,E,E-H.png,H-E.png,hH,hH,mask-1.png,mask-1.png,h,1,1.4057704000151716,s,0,0.04145830002380535,0.049832799995783716,0.050330900005064905,0.10032110000611283,0.09963330000755377,0.30105539999203756
RSVPLG03,si,20260305-162555,1.0.2,20260219-152011,790,Experiment,Both,1,Automatic,main,86,20260305-163446,local,local,750,S,H,A,A,A-S.png,A-H.png,sS,hH,mask-4.png,mask-3.png,s,1,0.7874544999795035,h,1,0.09712639998178929,0.04999649999081157,0.04825619998155162,0.09993299999041483,0.10017220000736415,0.7526263000036124
RSVPLG03,si,20260305-162555,1.0.2,20260219-152011,790,Experiment,Both,1,Automatic,main,87,20260305-163451,global,global,750,H,S,E,A,H-E.png,S-A.png,hH,sS,mask-4.png,mask-3.png,s,0,1.5221936000161804,h,0,0.12240910000400618,0.05025309999473393,0.04996989999199286,0.10087860000203364,0.09877630000119098,0.7525711999915075
RSVPLG03,si,20260305-162555,1.0.2,20260219-152011,790,Experiment,Both,1,Automatic,main,88,20260305-163457,local,global,750,H,S,E,E,E-H.png,S-E.png,hH,sS,mask-4.png,mask-1.png,h,1,0.9436180999909993,s,1,0.4081389000057243,0.049633000016910955,0.04934970001340844,0.09957409999333322,0.09971199999563396,0.7502021999971475
RSVPLG03,si,20260305-162555,1.0.2,20260219-152011,790,Experiment,Both,1,Automatic,main,89,20260305-163502,global,global,300,S,S,E,A,S-E.png,S-A.png,sS,sS,mask-4.png,mask-2.png,h,0,1.1386598000244703,h,0,0.09809189999941736,0.04959379998035729,0.05036250001285225,0.10087870000279509,0.10021140001481399,0.30051989998901263
RSVPLG03,si,20260305-162555,1.0.2,20260219-152011,790,Experiment,Both,1,Automatic,main,90,20260305-163507,local,local,750,S,H,E,E,E-S.png,E-H.png,sS,hH,mask-4.png,mask-4.png,s,1,0.9367594000068493,h,1,0.1784670999913942,0.05020569998305291,0.04941730000427924,0.10052589999395423,0.10059539999929257,0.7514663999900222
RSVPLG03,si,20260305-162555,1.0.2,20260219-152011,790,Experiment,Both,1,Automatic,main,91,20260305-163512,global,local,750,S,S,A,A,S-A.png,A-S.png,sS,sS,mask-2.png,mask-2.png,h,0,0.7033921999973245,s,1,0.02214250000542961,0.048330799996620044,0.05009489998337813,0.10022829999797978,0.10117509998963214,0.7509245999972336
RSVPLG03,si,20260305-162555,1.0.2,20260219-152011,790,Experiment,Both,1,Automatic,main,92,20260305-163517,local,global,750,S,S,E,A,E-S.png,S-A.png,sS,sS,mask-4.png,mask-4.png,s,1,1.0490666000114288,h,0,0.16183170001022518,0.04885009999270551,0.05032690000371076,0.09980500000528991,0.10137349998694845,0.7503277999931015
RSVPLG03,si,20260305-162555,1.0.2,20260219-152011,790,Experiment,Both,1,Automatic,main,93,20260305-163523,local,local,300,S,H,E,A,E-S.png,A-H.png,sS,hH,mask-2.png,mask-1.png,s,1,0.7945619000238366,s,0,0.1447180999966804,0.04963689998839982,0.04949989999295212,0.10022939997725189,0.09943080000812188,0.30058089998783544
RSVPLG03,si,20260305-162555,1.0.2,20260219-152011,790,Experiment,Both,1,Automatic,main,94,20260305-163528,local,global,300,S,S,E,A,E-S.png,S-A.png,sS,sS,mask-2.png,mask-2.png,s,1,0.5165776999783702,s,1,0.12225309998029843,0.050304000003961846,0.05139129998860881,0.1006006000097841,0.10033369998564012,0.30038990001776256
RSVPLG03,si,20260305-162555,1.0.2,20260219-152011,790,Experiment,Both,1,Automatic,main,95,20260305-163532,global,global,300,H,H,E,E,H-E.png,H-E.png,hH,hH,mask-4.png,mask-3.png,s,0,3.488179100007983,s,0,0.08801959999254905,0.04997480000020005,0.0495525999867823,0.1003690000216011,0.09947950000059791,0.30050770001253113
RSVPLG03,si,20260305-162555,1.0.2,20260219-152011,790,Experiment,Both,1,Automatic,main,96,20260305-163539,local,global,300,H,S,A,A,A-H.png,S-A.png,hH,sS,mask-1.png,mask-2.png,h,1,0.949315400008345,h,0,0.09749460002058186,0.050963700021384284,0.049492100020870566,0.10122660000342876,0.09992160002002493,0.30168800000683405
RSVPLG03,si,20260305-162555,1.0.2,20260219-152011,790,Experiment,Both,1,Automatic,main,97,20260305-163544,local,local,300,H,H,E,A,E-H.png,A-H.png,hH,hH,mask-3.png,mask-4.png,h,1,0.8912909000064246,h,1,0.12250960001256317,0.05025140001089312,0.0507690999947954,0.10072139999829233,0.09975560000748374,0.30142309999791905
RSVPLG03,si,20260305-162555,1.0.2,20260219-152011,790,Experiment,Both,1,Automatic,main,98,20260305-163549,local,local,300,S,S,E,A,E-S.png,A-S.png,sS,sS,mask-3.png,mask-1.png,s,1,1.4393015999812633,h,0,0.04085950000444427,0.049727800011169165,0.049554700002772734,0.10002570002689026,0.0994866999972146,0.30026810002163984
RSVPLG03,si,20260305-162555,1.0.2,20260219-152011,790,Experiment,Both,1,Automatic,main,99,20260305-163554,global,local,300,S,H,A,E,S-A.png,E-H.png,sS,hH,mask-1.png,mask-1.png,s,1,0.7904233000008389,h,1,0.04990640000323765,0.05012659999192692,0.04938929999480024,0.100110900006257,0.0994871000002604,0.3007426999974996
RSVPLG03,si,20260305-162555,1.0.2,20260219-152011,790,Experiment,Both,1,Automatic,main,100,20260305-163558,local,local,750,S,S,A,E,A-S.png,E-S.png,sS,sS,mask-3.png,mask-2.png,s,1,0.43284319998929277,s,1,0.12098629999672994,0.04972459998680279,0.049840799998492,0.10005519998958334,0.09998940001241863,0.7507163999835029
RSVPLG03,si,20260305-163709,1.0.2,20260219-152011,790,Experiment,Both,1,Automatic,warmup,1,20260305-163734,global,local,750,S,S,A,E,S-A.png,E-S.png,sS,sS,mask-3.png,mask-2.png,s,1,0.47071799999685027,s,1,0.12990599998738617,0.04851789999520406,0.05000449999351986,0.09849299999768846,0.10038319998420775,0.7495962000102736
RSVPLG03,si,20260305-163709,1.0.2,20260219-152011,790,Experiment,Both,1,Automatic,warmup,2,20260305-163739,global,global,750,H,S,A,E,H-A.png,S-E.png,hH,sS,mask-1.png,mask-4.png,h,1,0.4727984000055585,s,1,0.19433170001138933,0.04971669998485595,0.050865099998191,0.10157989998697303,0.1008680000086315,0.7497563999786507
RSVPLG03,si,20260305-163709,1.0.2,20260219-152011,790,Experiment,Both,1,Automatic,warmup,3,20260305-163744,local,global,300,S,H,E,E,E-S.png,H-E.png,sS,hH,mask-3.png,mask-4.png,s,1,0.6431691000179853,h,1,0.7376487000146881,0.05018489999929443,0.04968880000524223,0.0990311999921687,0.0996508999960497,0.29864270001417026
RSVPLG03,si,20260305-163709,1.0.2,20260219-152011,790,Experiment,Both,1,Automatic,warmup,4,20260305-163749,local,local,300,H,S,E,E,E-H.png,E-S.png,hH,sS,mask-4.png,mask-4.png,h,1,1.0391883999982383,h,0,0.363068899983773,0.04979859999730252,0.04964230000041425,0.09851809998508543,0.0997839999909047,0.29891690000658855
RSVPLG03,si,20260305-163709,1.0.2,20260219-152011,790,Experiment,Both,1,Automatic,main,5,20260305-163754,local,global,750,S,H,A,A,A-S.png,H-A.png,sS,hH,mask-1.png,mask-2.png,s,1,1.2595931999967434,s,0,0.21837350001442246,0.049474599974928424,0.05178219999652356,0.1000785999931395,0.10150349998730235,0.7491428999928758
RSVPLG03,si,20260305-163709,1.0.2,20260219-152011,790,Experiment,Both,1,Automatic,main,6,20260305-163759,global,local,750,H,H,A,E,H-A.png,E-H.png,hH,hH,mask-2.png,mask-3.png,h,1,1.313119700003881,s,0,0.16217709999182262,0.04916370002320036,0.050175300013506785,0.09914080001180992,0.10149749999982305,0.7491019000008237
RSVPLG03,si,20260305-163709,1.0.2,20260219-152011,790,Experiment,Both,1,Automatic,main,7,20260305-163805,global,global,750,S,S,E,A,S-E.png,S-A.png,sS,sS,mask-1.png,mask-2.png,s,1,0.8120816000155173,h,0,0.2014838999893982,0.04926229998818599,0.05064899998251349,0.10044109998852946,0.10004319998552091,0.7485795000102371
RSVPLG03,si,20260305-163709,1.0.2,20260219-152011,790,Experiment,Both,1,Automatic,main,8,20260305-163810,local,global,750,H,S,A,A,A-H.png,S-A.png,hH,sS,mask-4.png,mask-3.png,h,1,0.7502792000013869,h,0,0.09864949999609962,0.049886299995705485,0.051222800015239045,0.10030799999367446,0.10053310001967475,0.7503835999814328
RSVPLG03,si,20260305-163709,1.0.2,20260219-152011,790,Experiment,Both,1,Automatic,main,9,20260305-163815,local,local,750,S,H,A,A,A-S.png,A-H.png,sS,hH,mask-4.png,mask-4.png,s,1,1.0235567000054289,s,0,0.13868919998640195,0.04923800000688061,0.04915549998986535,0.09956339999916963,0.09993909997865558,0.7499702000059187
RSVPLG03,si,20260305-163709,1.0.2,20260219-152011,790,Experiment,Both,1,Automatic,main,10,20260305-163821,local,local,300,H,H,E,A,E-H.png,A-H.png,hH,hH,mask-3.png,mask-1.png,h,1,0.4964576000056695,h,1,0.08930469999904744,0.05030540001462214,0.050567600002978,0.10064390001934953,0.10009239998180419,0.29944200001773424
RSVPLG03,si,20260305-163709,1.0.2,20260219-152011,790,Experiment,Both,1,Automatic,main,11,20260305-163825,local,local,300,S,S,E,E,E-S.png,E-S.png,sS,sS,mask-3.png,mask-2.png,s,1,1.265098100004252,h,0,0.05004429997643456,0.051193299994338304,0.05075130000477657,0.0992569999943953,0.09936330001801252,0.2999901000002865
RSVPLG03,si,20260305-163709,1.0.2,20260219-152011,790,Experiment,Both,1,Automatic,main,12,20260305-163830,local,global,300,H,H,A,A,A-H.png,H-A.png,hH,hH,mask-4.png,mask-2.png,h,1,0.8891820999851916,h,1,0.1456989000143949,0.05020550001063384,0.04907480001566,0.0998777000058908,0.09922940001706593,0.30081179999979213
RSVPLG03,si,20260305-163709,1.0.2,20260219-152011,790,Experiment,Both,1,Automatic,main,13,20260305-163835,global,global,300,S,H,A,A,S-A.png,H-A.png,sS,hH,mask-1.png,mask-1.png,s,1,1.5313977999903727,h,1,0.11388530000112951,0.04942620001384057,0.05015870000352152,0.0991576999949757,0.10049060001620091,0.2993127999943681
RSVPLG03,si,20260305-163709,1.0.2,20260219-152011,790,Experiment,Both,1,Automatic,main,14,20260305-163840,global,global,300,S,H,A,A,S-A.png,H-A.png,sS,hH,mask-1.png,mask-2.png,h,0,1.2258946000074502,s,0,0.06620229998952709,0.05068089999258518,0.050657000014325604,0.10004819999448955,0.0997780000034254,0.30057499997201376
RSVPLG03,si,20260305-163709,1.0.2,20260219-152011,790,Experiment,Both,1,Automatic,main,15,20260305-163845,local,global,750,S,S,E,A,E-S.png,S-A.png,sS,sS,mask-1.png,mask-1.png,s,1,0.760543799988227,s,1,0.5386668000137433,0.05008849999285303,0.04942769999615848,0.10014199998113327,0.10034730000188574,0.7497364000009838
RSVPLG03,si,20260305-163709,1.0.2,20260219-152011,790,Experiment,Both,1,Automatic,main,16,20260305-163851,global,global,300,S,H,A,E,S-A.png,H-E.png,sS,hH,mask-1.png,mask-1.png,s,1,0.6291548000008333,h,1,0.33776309998938814,0.05057140000280924,0.049450799997430295,0.09966150001855567,0.1001319000206422,0.299822300003143
RSVPLG03,si,20260305-163709,1.0.2,20260219-152011,790,Experiment,Both,1,Automatic,main,17,20260305-163856,global,local,750,H,H,E,A,H-E.png,A-H.png,hH,hH,mask-3.png,mask-3.png,h,1,0.5747097000130452,h,1,0.21770949999336153,0.04997280001407489,0.05010339998989366,0.10076820000540465,0.09987439998076297,0.7497994000150356
RSVPLG03,si,20260305-163709,1.0.2,20260219-152011,790,Experiment,Both,1,Automatic,main,18,20260305-163901,local,global,300,S,S,A,E,A-S.png,S-E.png,sS,sS,mask-4.png,mask-2.png,s,1,1.6493066000111867,h,0,0.3127508999896236,0.05073459999402985,0.05058080001617782,0.10062030001427047,0.10043670001323335,0.2996673999878112
RSVPLG03,si,20260305-163709,1.0.2,20260219-152011,790,Experiment,Both,1,Automatic,main,19,20260305-163906,global,local,300,S,S,A,A,S-A.png,A-S.png,sS,sS,mask-3.png,mask-2.png,s,1,1.5279401000007056,h,0,1.647941900009755,0.05005010002059862,0.05055050001828931,0.09906620002584532,0.10031110001727939,0.2986984000017401
RSVPLG03,si,20260305-163709,1.0.2,20260219-152011,790,Experiment,Both,1,Automatic,main,20,20260305-163912,global,global,300,S,S,A,E,S-A.png,S-E.png,sS,sS,mask-3.png,mask-2.png,s,1,0.7038318999984767,s,1,0.12103420001221821,0.05070630001137033,0.049468700017314404,0.10188290002406575,0.10024790000170469,0.3014889000041876
RSVPLG03,si,20260305-163709,1.0.2,20260219-152011,790,Experiment,Both,1,Automatic,main,21,20260305-163916,local,local,750,S,S,E,A,E-S.png,A-S.png,sS,sS,mask-3.png,mask-3.png,s,1,1.6723719000001438,s,1,0.16111410001758486,0.05072160001145676,0.049609100009547547,0.09943150001345202,0.09982589998980984,0.7492819000035524
RSVPLG03,si,20260305-163709,1.0.2,20260219-152011,790,Experiment,Both,1,Automatic,main,22,20260305-163922,global,global,750,H,S,E,A,H-E.png,S-A.png,hH,sS,mask-4.png,mask-3.png,h,1,0.7730700999964029,s,1,0.249871499981964,0.05069340000045486,0.05001060001086444,0.09999110002536327,0.09933160000946373,0.7513514000165742
RSVPLG03,si,20260305-163709,1.0.2,20260219-152011,790,Experiment,Both,1,Automatic,main,23,20260305-163927,local,global,300,H,H,E,A,E-H.png,H-A.png,hH,hH,mask-1.png,mask-4.png,h,1,1.2933614999928977,s,0,1.4614099999889731,0.050190300011308864,0.048947099974611774,0.100799800013192,0.09988439999870025,0.30058580002514645
RSVPLG03,si,20260305-163709,1.0.2,20260219-152011,790,Experiment,Both,1,Automatic,main,24,20260305-163932,global,local,300,S,H,E,A,S-E.png,A-H.png,sS,hH,mask-3.png,mask-4.png,s,1,1.8241646999958903,h,1,0.03410079999594018,0.052166299981763586,0.049607799999648705,0.10000849998323247,0.0989623999921605,0.3011597000004258
RSVPLG03,si,20260305-163709,1.0.2,20260219-152011,790,Experiment,Both,1,Automatic,main,25,20260305-163938,global,local,750,S,S,A,A,S-A.png,A-S.png,sS,sS,mask-2.png,mask-3.png,s,1,1.1640250000054948,h,0,0.1900063999928534,0.04955809999955818,0.051287699985550717,0.0997219999844674,0.10153590000118129,0.7488640999945346
RSVPLG03,si,20260305-163709,1.0.2,20260219-152011,790,Experiment,Both,1,Automatic,main,26,20260305-163946,local,global,750,S,S,E,A,E-S.png,S-A.png,sS,sS,mask-3.png,mask-1.png,s,1,0.7531242000113707,s,1,0.0804974999919068,0.04973180001252331,0.04967519998899661,0.10042640002211556,0.10043530000257306,0.7497736000223085
RSVPLG03,si,20260305-163709,1.0.2,20260219-152011,790,Experiment,Both,1,Automatic,main,27,20260305-163951,local,local,300,S,S,E,A,E-S.png,A-S.png,sS,sS,mask-1.png,mask-3.png,s,1,0.728087499999674,s,1,0.5300775000068825,0.05078890000004321,0.048864300013519824,0.1007065000012517,0.09980470000300556,0.30110000001150183
RSVPLG03,si,20260305-163709,1.0.2,20260219-152011,790,Experiment,Both,1,Automatic,main,28,20260305-163956,local,local,750,H,H,E,E,E-H.png,E-H.png,hH,hH,mask-4.png,mask-1.png,h,1,0.31386620001285337,h,1,0.10616979998303577,0.05061999999452382,0.04959270000108518,0.10004839999601245,0.09962140000425279,0.7514616000116803
RSVPLG03,si,20260305-163709,1.0.2,20260219-152011,790,Experiment,Both,1,Automatic,main,29,20260305-164001,global,local,300,H,H,A,E,H-A.png,E-H.png,hH,hH,mask-4.png,mask-4.png,h,1,0.6893462000007275,s,0,0.0015607000095769763,0.05093189998297021,0.05103550001513213,0.09987269999692217,0.09947960000135936,0.3004308999807108
RSVPLG03,si,20260305-163709,1.0.2,20260219-152011,790,Experiment,Both,1,Automatic,main,30,20260305-164005,global,local,300,H,S,A,A,H-A.png,A-S.png,hH,sS,mask-4.png,mask-3.png,h,1,0.7096219999948516,h,0,0.08958349999738857,0.05003559999749996,0.04887659999076277,0.1005478999868501,0.09994759998517111,0.30100360000506043
RSVPLG03,si,20260305-163709,1.0.2,20260219-152011,790,Experiment,Both,1,Automatic,main,31,20260305-164010,local,global,300,H,H,A,E,A-H.png,H-E.png,hH,hH,mask-3.png,mask-4.png,h,1,0.9886050999921281,s,0,0.7311143000260927,0.04951389998313971,0.05019700000411831,0.09999349998543039,0.10014830000000075,0.29964169999584556
RSVPLG03,si,20260305-163709,1.0.2,20260219-152011,790,Experiment,Both,1,Automatic,main,32,20260305-164015,local,local,750,H,H,E,E,E-H.png,E-H.png,hH,hH,mask-2.png,mask-4.png,h,1,0.4793997000087984,h,1,0.09578590001910925,0.05083779999404214,0.04979829999501817,0.1008404000021983,0.09909709999919869,0.7503249000001233
RSVPLG03,si,20260305-163709,1.0.2,20260219-152011,790,Experiment,Both,1,Automatic,main,33,20260305-164020,global,global,750,H,S,E,E,H-E.png,S-E.png,hH,sS,mask-2.png,mask-1.png,h,1,0.9214242000016384,h,0,0.36134420000598766,0.05065439999452792,0.04632649998529814,0.09991900000022724,0.09604599999147467,0.7541888999985531
RSVPLG03,si,20260305-163709,1.0.2,20260219-152011,790,Experiment,Both,1,Automatic,main,34,20260305-164026,local,local,300,H,S,A,A,A-H.png,A-S.png,hH,sS,mask-3.png,mask-3.png,h,1,0.5613524000218604,s,1,0.0021767000143881887,0.04967780000879429,0.04965180001454428,0.10042659999453463,0.10039710000273772,0.29994289999012835
RSVPLG03,si,20260305-163709,1.0.2,20260219-152011,790,Experiment,Both,1,Automatic,main,35,20260305-164030,global,global,750,H,S,A,E,H-A.png,S-E.png,hH,sS,mask-3.png,mask-4.png,h,1,0.4073744999768678,s,1,0.03394379999372177,0.049684800003888085,0.04958160000387579,0.09890189999714494,0.09833989999606274,0.7501610000035726
RSVPLG03,si,20260305-163709,1.0.2,20260219-152011,790,Experiment,Both,1,Automatic,main,36,20260305-164034,global,local,750,S,H,A,A,S-A.png,A-H.png,sS,hH,mask-2.png,mask-3.png,s,1,0.3880568999738898,h,1,0.008985299995401874,0.04982789998757653,0.04997610001009889,0.09855460000107996,0.09950049998587929,0.7492512000026181
RSVPLG03,si,20260305-163709,1.0.2,20260219-152011,790,Experiment,Both,1,Automatic,main,37,20260305-164039,local,global,750,H,H,E,A,E-H.png,H-A.png,hH,hH,mask-2.png,mask-4.png,h,1,0.3852070000139065,h,1,0.08148059999803081,0.04907259999890812,0.050255200010724366,0.09900469999411143,0.09998780000023544,0.7471472999895923
RSVPLG03,si,20260305-163709,1.0.2,20260219-152011,790,Experiment,Both,1,Automatic,main,38,20260305-164044,local,local,750,S,H,A,E,A-S.png,E-H.png,sS,hH,mask-1.png,mask-4.png,s,1,0.6041220000188332,h,1,0.050446400011423975,0.04985260000103153,0.049563399981707335,0.09960680000949651,0.10019729999476112,0.7504911000141874
RSVPLG03,si,20260305-163709,1.0.2,20260219-152011,790,Experiment,Both,1,Automatic,main,39,20260305-164049,local,global,300,H,S,E,E,E-H.png,S-E.png,hH,sS,mask-1.png,mask-4.png,h,1,0.7138583000050858,h,0,0.34563530000741594,0.04979039999307133,0.049702799995429814,0.09939630000735633,0.09982780000427738,0.2995775000017602
RSVPLG03,si,20260305-163709,1.0.2,20260219-152011,790,Experiment,Both,1,Automatic,main,40,20260305-164053,global,local,750,S,H,A,E,S-A.png,E-H.png,sS,hH,mask-4.png,mask-4.png,s,1,1.6783815000089817,h,1,0.02650740000535734,0.04920829998445697,0.04885259998263791,0.09927320000133477,0.10078179999254644,0.7501599999959581
RSVPLG03,si,20260305-163709,1.0.2,20260219-152011,790,Experiment,Both,1,Automatic,main,41,20260305-164059,local,local,750,S,S,E,E,E-S.png,E-S.png,sS,sS,mask-3.png,mask-3.png,s,1,0.48196929998812266,s,1,0.19430930001544766,0.05097499999101274,0.05070540000451729,0.10106029998860322,0.09999560000142083,0.7497565999801736
RSVPLG03,si,20260305-163709,1.0.2,20260219-152011,790,Experiment,Both,1,Automatic,main,42,20260305-164104,local,global,750,H,H,A,A,A-H.png,H-A.png,hH,hH,mask-1.png,mask-2.png,h,1,1.0307813999825157,h,1,0.09798379999119788,0.04855509998742491,0.04962750000413507,0.09841770000639372,0.09982460000901483,0.7492188999895006
RSVPLG03,si,20260305-163709,1.0.2,20260219-152011,790,Experiment,Both,1,Automatic,main,43,20260305-164109,global,global,750,S,H,A,E,S-A.png,H-E.png,sS,hH,mask-3.png,mask-2.png,s,1,0.3650548000005074,h,1,0.08249969998723827,0.0507344999932684,0.05097300000488758,0.10149090000777505,0.09988940000766888,0.750778799992986
RSVPLG03,si,20260305-163709,1.0.2,20260219-152011,790,Experiment,Both,1,Automatic,main,44,20260305-164114,global,global,300,H,S,A,A,H-A.png,S-A.png,hH,sS,mask-4.png,mask-4.png,h,1,0.7457742000115104,s,1,0.2177908000012394,0.048387000017100945,0.05089480002061464,0.09947480002301745,0.10091599999577738,0.2984424000023864
RSVPLG03,si,20260305-163709,1.0.2,20260219-152011,790,Experiment,Both,1,Automatic,main,45,20260305-164119,global,global,300,S,H,A,A,S-A.png,H-A.png,sS,hH,mask-3.png,mask-3.png,s,1,0.7307849999924656,s,0,0.17721049999818206,0.049865700013469905,0.04928560002008453,0.0998812000034377,0.09927110001444817,0.29976409999653697
RSVPLG03,si,20260305-163709,1.0.2,20260219-152011,790,Experiment,Both,1,Automatic,main,46,20260305-164123,global,global,300,S,H,E,E,S-E.png,H-E.png,sS,hH,mask-2.png,mask-4.png,s,1,0.5646386000153143,h,1,0.23988810001173988,0.0496768000011798,0.050764900021022186,0.10072600000421517,0.10093800001777709,0.3005795999779366
RSVPLG03,si,20260305-163709,1.0.2,20260219-152011,790,Experiment,Both,1,Automatic,main,47,20260305-164128,global,local,750,S,H,A,E,S-A.png,E-H.png,sS,hH,mask-3.png,mask-1.png,s,1,0.5972677999816369,h,1,0.4092919999966398,0.05179949998273514,0.048990799987223,0.10050079997745343,0.09895439998945221,0.7510250000050291
RSVPLG03,si,20260305-163709,1.0.2,20260219-152011,790,Experiment,Both,1,Automatic,main,48,20260305-164133,local,global,750,S,S,A,E,A-S.png,S-E.png,sS,sS,mask-4.png,mask-3.png,h,0,0.9248889000155032,s,1,0.1866155999887269,0.05113500001607463,0.04990229997201823,0.10077350001665764,0.10073939998983406,0.7501178000238724
RSVPLG03,si,20260305-163709,1.0.2,20260219-152011,790,Experiment,Both,1,Automatic,main,49,20260305-164139,local,local,750,S,H,A,A,A-S.png,A-H.png,sS,hH,mask-3.png,mask-2.png,s,1,0.6401291999791283,h,1,0.0343468000064604,0.04953699998441152,0.05116820000694133,0.09838199999649078,0.10064769999007694,0.7480339999892749
RSVPLG03,si,20260305-163709,1.0.2,20260219-152011,790,Experiment,Both,1,Automatic,main,50,20260305-164143,global,local,750,H,H,A,E,H-A.png,E-H.png,hH,hH,mask-4.png,mask-2.png,h,1,1.316039900004398,s,0,0.042088499991223216,0.050430100003723055,0.049363499972969294,0.10004680001293309,0.09960699998191558,0.7504006000235677
RSVPLG03,si,20260305-163709,1.0.2,20260219-152011,790,Experiment,Both,1,Automatic,main,51,20260305-164151,global,local,750,S,S,A,A,S-A.png,A-S.png,sS,sS,mask-1.png,mask-2.png,s,1,0.49837919999845326,h,0,0.0245576000015717,0.04829140001675114,0.0491526999976486,0.09957290001329966,0.09911290000309236,0.7498198999965098
RSVPLG03,si,20260305-163709,1.0.2,20260219-152011,790,Experiment,Both,1,Automatic,main,52,20260305-164155,local,local,300,H,S,E,E,E-H.png,E-S.png,hH,sS,mask-3.png,mask-1.png,h,1,1.1119868999812752,h,0,0.08995960000902414,0.05040969999390654,0.048932199977571145,0.10072059999220073,0.09824539997498505,0.30158600001595914
RSVPLG03,si,20260305-163709,1.0.2,20260219-152011,790,Experiment,Both,1,Automatic,main,53,20260305-164200,local,global,300,S,H,E,E,E-S.png,H-E.png,sS,hH,mask-1.png,mask-4.png,s,1,0.5323027000122238,h,1,0.025056000013137236,0.048656600003596395,0.05030660002375953,0.09840630000689998,0.10017590000643395,0.29837740000220947
RSVPLG03,si,20260305-163709,1.0.2,20260219-152011,790,Experiment,Both,1,Automatic,main,54,20260305-164205,local,local,750,H,H,A,E,A-H.png,E-H.png,hH,hH,mask-1.png,mask-2.png,h,1,0.38627409999025986,h,1,0.04231719998642802,0.04862360001425259,0.050689199997577816,0.0984918000176549,0.10006050000083633,0.7489458000054583
RSVPLG03,si,20260305-163709,1.0.2,20260219-152011,790,Experiment,Both,1,Automatic,main,55,20260305-164209,local,local,750,H,H,A,A,A-H.png,A-H.png,hH,hH,mask-4.png,mask-1.png,h,1,0.48951689997920766,h,1,0.11458130000391975,0.050047800003085285,0.048601899994537234,0.0993216999922879,0.09871960000600666,0.7507738999847788
RSVPLG03,si,20260305-163709,1.0.2,20260219-152011,790,Experiment,Both,1,Automatic,main,56,20260305-164214,global,global,300,S,S,E,E,S-E.png,S-E.png,sS,sS,mask-3.png,mask-4.png,s,1,1.075188299990259,s,1,0.12164490000577644,0.04962209999212064,0.04991689999587834,0.10032550001051277,0.1016331999853719,0.29837760000373237
RSVPLG03,si,20260305-163709,1.0.2,20260219-152011,790,Experiment,Both,1,Automatic,main,57,20260305-164219,local,local,750,S,S,E,E,E-S.png,E-S.png,sS,sS,mask-3.png,mask-4.png,s,1,0.6953030999866314,h,0,0.4578578000073321,0.04973420000169426,0.04977789998520166,0.0998564999899827,0.10056140000233427,0.7501909999991767
RSVPLG03,si,20260305-163709,1.0.2,20260219-152011,790,Experiment,Both,1,Automatic,main,58,20260305-164224,global,global,750,S,S,A,E,S-A.png,S-E.png,sS,sS,mask-2.png,mask-1.png,s,1,0.5808113999955822,s,1,0.19447680001030676,0.04909399998723529,0.05051989998901263,0.09947459999239072,0.10126160000800155,0.7493468000029679
RSVPLG03,si,20260305-163709,1.0.2,20260219-152011,790,Experiment,Both,1,Automatic,main,59,20260305-164229,global,local,300,H,S,E,E,H-E.png,E-S.png,hH,sS,mask-3.png,mask-2.png,h,1,0.7004593999881763,h,0,0.3139991999778431,0.05087700000149198,0.04982479999307543,0.10110990001703613,0.10044080001534894,0.2998033000039868
RSVPLG03,si,20260305-163709,1.0.2,20260219-152011,790,Experiment,Both,1,Automatic,main,60,20260305-164234,local,local,300,H,H,A,E,A-H.png,E-H.png,hH,hH,mask-4.png,mask-2.png,h,1,0.634115799999563,h,1,0.09769679998862557,0.04933860001619905,0.0502412999921944,0.10141570001724176,0.10094800000661053,0.29921070000273176
RSVPLG03,si,20260305-163709,1.0.2,20260219-152011,790,Experiment,Both,1,Automatic,main,61,20260305-164238,global,local,300,S,S,A,A,S-A.png,A-S.png,sS,sS,mask-4.png,mask-2.png,s,1,1.3017177000001539,h,0,0.026014500006567687,0.04963819999829866,0.049776599975302815,0.10037159998319112,0.099622299982002,0.30110969999805093
RSVPLG03,si,20260305-163709,1.0.2,20260219-152011,790,Experiment,Both,1,Automatic,main,62,20260305-164243,local,local,300,S,H,A,E,A-S.png,E-H.png,sS,hH,mask-1.png,mask-1.png,s,1,1.8988709000113886,s,0,0.14502339999307878,0.050000499992165715,0.04981310002040118,0.09982599999057129,0.09977500000968575,0.3008788999868557
RSVPLG03,si,20260305-163709,1.0.2,20260219-152011,790,Experiment,Both,1,Automatic,main,63,20260305-164249,global,local,300,S,H,E,A,S-E.png,A-H.png,sS,hH,mask-4.png,mask-2.png,s,1,1.59028259999468,h,1,0.0738495999830775,0.04974379998748191,0.049016900011338294,0.09963979999884032,0.09967440000036731,0.30015509997610934
RSVPLG03,si,20260305-163709,1.0.2,20260219-152011,790,Experiment,Both,1,Automatic,main,64,20260305-164254,global,global,300,H,S,A,A,H-A.png,S-A.png,hH,sS,mask-4.png,mask-2.png,h,1,0.8320758000190835,h,0,0.6498022000014316,0.05062799999723211,0.04963069999939762,0.10129459999734536,0.10031029998208396,0.30135380002320744
RSVPLG03,si,20260305-163709,1.0.2,20260219-152011,790,Experiment,Both,1,Automatic,main,65,20260305-164259,global,local,300,S,H,A,A,S-A.png,A-H.png,sS,hH,mask-3.png,mask-2.png,s,1,0.6049313000112306,h,1,0.12230089999502525,0.0497818999865558,0.05055569999967702,0.1000105999992229,0.10035829999833368,0.2994323000020813
RSVPLG03,si,20260305-163709,1.0.2,20260219-152011,790,Experiment,Both,1,Automatic,main,66,20260305-164304,local,global,750,H,H,A,A,A-H.png,H-A.png,hH,hH,mask-3.png,mask-1.png,h,1,0.9011147000128403,h,1,0.09794680000049993,0.04983420000644401,0.050816600007237867,0.10066569998161867,0.1004675000149291,0.7499177999852691
RSVPLG03,si,20260305-163709,1.0.2,20260219-152011,790,Experiment,Both,1,Automatic,main,67,20260305-164309,global,local,750,H,S,A,A,H-A.png,A-S.png,hH,sS,mask-2.png,mask-3.png,h,1,0.6633820999995805,s,1,0.3622884000069462,0.04862919999868609,0.049752799997804686,0.09948599999188446,0.09973919999902137,0.7492270999937318
RSVPLG03,si,20260305-163709,1.0.2,20260219-152011,790,Experiment,Both,1,Automatic,main,68,20260305-164314,global,global,300,H,S,E,E,H-E.png,S-E.png,hH,sS,mask-1.png,mask-3.png,h,1,0.7915032000164501,s,1,0.02604220001376234,0.05074060001061298,0.0510919000080321,0.1007409000012558,0.10093980000237934,0.3000162999960594
RSVPLG03,si,20260305-163709,1.0.2,20260219-152011,790,Experiment,Both,1,Automatic,main,69,20260305-164318,local,global,750,S,S,E,A,E-S.png,S-A.png,sS,sS,mask-1.png,mask-2.png,s,1,1.21522690000711,h,0,0.03350459999637678,0.05023059999803081,0.04976549997809343,0.10031480001634918,0.09929990000091493,0.7503302000113763
RSVPLG03,si,20260305-163709,1.0.2,20260219-152011,790,Experiment,Both,1,Automatic,main,70,20260305-164324,local,local,300,S,S,E,A,E-S.png,A-S.png,sS,sS,mask-2.png,mask-2.png,s,1,0.5302220000012312,s,1,0.10538520000409335,0.049945799983106554,0.04795310000190511,0.10087219998240471,0.09955500002251938,0.30192169998190366
RSVPLG03,si,20260305-163709,1.0.2,20260219-152011,790,Experiment,Both,1,Automatic,main,71,20260305-164328,global,global,750,S,H,E,A,S-E.png,H-A.png,sS,hH,mask-1.png,mask-3.png,h,0,1.012714499986032,h,1,0.09476050001103431,0.05177469999762252,0.05002450000029057,0.10220809999736957,0.0989654999866616,0.7512128000089433
RSVPLG03,si,20260305-163709,1.0.2,20260219-152011,790,Experiment,Both,1,Automatic,main,72,20260305-164333,global,local,750,S,S,A,E,S-A.png,E-S.png,sS,sS,mask-3.png,mask-4.png,s,1,1.4629438999982085,s,1,0.2429032000072766,0.04999719999614172,0.04969439998967573,0.10161750001134351,0.10147779999533668,0.7502300000051036
RSVPLG03,si,20260305-163709,1.0.2,20260219-152011,790,Experiment,Both,1,Automatic,main,73,20260305-164339,global,local,300,S,S,A,A,S-A.png,A-S.png,sS,sS,mask-1.png,mask-4.png,h,0,0.6126026000129059,s,1,0.024722699978156015,0.051347100001294166,0.05069939998793416,0.10044189999462105,0.09966599999461323,0.30095010000513867
RSVPLG03,si,20260305-163709,1.0.2,20260219-152011,790,Experiment,Both,1,Automatic,main,74,20260305-164344,global,local,300,S,S,E,E,S-E.png,E-S.png,sS,sS,mask-2.png,mask-3.png,s,1,0.5291675000044052,h,0,0.3771938999998383,0.04830589998164214,0.050026899989461526,0.09957299998495728,0.09973519999766722,0.2990769000025466
RSVPLG03,si,20260305-163709,1.0.2,20260219-152011,790,Experiment,Both,1,Automatic,main,75,20260305-164348,local,global,300,S,H,A,E,A-S.png,H-E.png,sS,hH,mask-1.png,mask-3.png,s,1,0.7958394000015687,s,0,0.18659840000327677,0.04987659998005256,0.04960440000286326,0.09984399998211302,0.10130660000140779,0.29986649999045767
RSVPLG03,si,20260305-163709,1.0.2,20260219-152011,790,Experiment,Both,1,Automatic,main,76,20260305-164501,local,global,750,H,H,E,A,E-H.png,H-A.png,hH,hH,mask-4.png,mask-4.png,h,1,0.9953797000052873,h,1,0.13690670000505634,0.050854000000981614,0.04871649999404326,0.1000501999806147,0.0992911999928765,0.7509970999963116
RSVPLG03,si,20260305-163709,1.0.2,20260219-152011,790,Experiment,Both,1,Automatic,main,77,20260305-164506,local,local,300,S,H,E,E,E-S.png,E-H.png,sS,hH,mask-4.png,mask-2.png,s,1,0.6036061000195332,h,1,0.138553700002376,0.04969459999119863,0.05044160000397824,0.09951189998537302,0.10118070000316948,0.2988807999936398
RSVPLG03,si,20260305-163709,1.0.2,20260219-152011,790,Experiment,Both,1,Automatic,main,78,20260305-164511,local,local,300,H,S,A,E,A-H.png,E-S.png,hH,sS,mask-3.png,mask-3.png,h,1,1.001616199995624,s,1,1.3355376000108663,0.05167730001267046,0.04926179998437874,0.1007646000070963,0.10027979998267256,0.30103040000540204
RSVPLG03,si,20260305-163709,1.0.2,20260219-152011,790,Experiment,Both,1,Automatic,main,79,20260305-164517,global,global,750,S,H,E,E,S-E.png,H-E.png,sS,hH,mask-2.png,mask-1.png,s,1,0.43012930001714267,h,1,0.2481363999831956,0.04870789998676628,0.04958610000903718,0.10043140000198036,0.09929600000032224,0.7499079999979585
RSVPLG03,si,20260305-163709,1.0.2,20260219-152011,790,Experiment,Both,1,Automatic,main,80,20260305-164522,local,global,300,S,S,A,E,A-S.png,S-E.png,sS,sS,mask-1.png,mask-2.png,h,0,0.6105850999883842,h,0,0.20222079998347908,0.051454000000376254,0.04923629999393597,0.10049809998599812,0.1000208999903407,0.30203829999663867
RSVPLG03,si,20260305-163709,1.0.2,20260219-152011,790,Experiment,Both,1,Automatic,main,81,20260305-164526,local,local,300,H,S,E,E,E-H.png,E-S.png,hH,sS,mask-2.png,mask-1.png,h,1,0.9659590999945067,s,1,0.17381539999041706,0.050557600014144555,0.04964270000346005,0.10013730000355281,0.10042400000384077,0.3005151000106707
RSVPLG03,si,20260305-163709,1.0.2,20260219-152011,790,Experiment,Both,1,Automatic,main,82,20260305-164531,global,local,300,H,H,A,A,H-A.png,A-H.png,hH,hH,mask-3.png,mask-1.png,h,1,0.5989226000092458,h,1,0.15398979999008588,0.05035559998941608,0.051445600023726,0.10008019997621886,0.09973440002067946,0.2995010999729857
RSVPLG03,si,20260305-163709,1.0.2,20260219-152011,790,Experiment,Both,1,Automatic,main,83,20260305-164536,local,global,300,H,H,E,A,E-H.png,H-A.png,hH,hH,mask-3.png,mask-4.png,h,1,1.053438200004166,h,1,0.3850936999951955,0.04999420000240207,0.04974220000440255,0.09977999998955056,0.09952499999781139,0.29999749999842606
RSVPLG03,si,20260305-163709,1.0.2,20260219-152011,790,Experiment,Both,1,Automatic,main,84,20260305-164541,local,global,300,H,S,A,A,A-H.png,S-A.png,hH,sS,mask-2.png,mask-1.png,h,1,0.42693239997606725,h,0,0.16263569999136962,0.04860410001128912,0.050606500008143485,0.0983051999937743,0.10028799998690374,0.29897790000541136
RSVPLG03,si,20260305-163709,1.0.2,20260219-152011,790,Experiment,Both,1,Automatic,main,85,20260305-164545,global,local,750,S,S,E,A,S-E.png,A-S.png,sS,sS,mask-2.png,mask-3.png,h,0,1.6816260000050534,s,1,0.041425100003834814,0.049747199984267354,0.04959060001419857,0.10145299998112023,0.09843099999125116,0.7513019999896642
RSVPLG03,si,20260305-163709,1.0.2,20260219-152011,790,Experiment,Both,1,Automatic,main,86,20260305-164551,local,global,300,H,S,A,A,A-H.png,S-A.png,hH,sS,mask-2.png,mask-2.png,h,1,0.6115347000013571,h,0,0.13740450001205318,0.050490699999500066,0.05081770001561381,0.10000109998509288,0.09983550000470132,0.2993719999794848
RSVPLG03,si,20260305-163709,1.0.2,20260219-152011,790,Experiment,Both,1,Automatic,main,87,20260305-164556,global,global,300,S,H,E,A,S-E.png,H-A.png,sS,hH,mask-4.png,mask-1.png,s,1,0.7048219999996945,s,0,0.29654460001620464,0.04873860001680441,0.05003819998819381,0.09950889999163337,0.1005781999847386,0.2996593000134453
RSVPLG03,si,20260305-163709,1.0.2,20260219-152011,790,Experiment,Both,1,Automatic,main,88,20260305-164600,global,global,750,S,H,E,E,S-E.png,H-E.png,sS,hH,mask-2.png,mask-3.png,s,1,0.34005440000328235,h,1,0.3038088000030257,0.04995399998733774,0.04934310002136044,0.10021050000796095,0.09915920000639744,0.750071399990702
RSVPLG03,si,20260305-163709,1.0.2,20260219-152011,790,Experiment,Both,1,Automatic,main,89,20260305-164605,global,global,750,S,S,A,E,S-A.png,S-E.png,sS,sS,mask-1.png,mask-4.png,s,1,0.4275582999980543,s,1,0.27405959999305196,0.04982030001701787,0.04845040000509471,0.0986863000143785,0.09988620001240633,0.7501504000101704
RSVPLG03,si,20260305-163709,1.0.2,20260219-152011,790,Experiment,Both,1,Automatic,main,90,20260305-164610,global,local,750,S,H,E,E,S-E.png,E-H.png,sS,hH,mask-2.png,mask-4.png,s,1,0.5450176000013016,s,0,0.24949950000154786,0.0518177000049036,0.049931400018977,0.10018959999433719,0.10040210001170635,0.7505183999892324
RSVPLG03,si,20260305-163709,1.0.2,20260219-152011,790,Experiment,Both,1,Automatic,main,91,20260305-164615,local,local,750,S,H,E,A,E-S.png,A-H.png,sS,hH,mask-4.png,mask-3.png,s,1,1.2417240999930073,h,1,0.21058220000122674,0.04494110000086948,0.05032229999778792,0.09557900001527742,0.09904979998827912,0.745938300009584
RSVPLG03,si,20260305-163709,1.0.2,20260219-152011,790,Experiment,Both,1,Automatic,main,92,20260305-164621,global,global,300,S,S,E,E,S-E.png,S-E.png,sS,sS,mask-3.png,mask-1.png,s,1,0.7476454999996349,s,1,0.2262433999858331,0.050800599972717464,0.04966749998857267,0.1000832999998238,0.1003428999974858,0.30048489998443983
RSVPLG03,si,20260305-163709,1.0.2,20260219-152011,790,Experiment,Both,1,Automatic,main,93,20260305-164626,local,global,750,S,H,A,E,A-S.png,H-E.png,sS,hH,mask-1.png,mask-2.png,s,1,0.8638417000183836,h,1,0.15356199999223463,0.048979599989252165,0.050921999994898215,0.10066539997933432,0.10086469998350367,0.7496898999961559
RSVPLG03,si,20260305-163709,1.0.2,20260219-152011,790,Experiment,Both,1,Automatic,main,94,20260305-164631,local,local,300,S,S,A,E,A-S.png,E-S.png,sS,sS,mask-1.png,mask-1.png,s,1,0.6586809000000358,s,1,0.21036019999883138,0.050187200016807765,0.04882359999464825,0.10019270001794212,0.09865180001361296,0.30089630000293255
RSVPLG03,si,20260305-163709,1.0.2,20260219-152011,790,Experiment,Both,1,Automatic,main,95,20260305-164636,global,global,750,S,H,E,A,S-E.png,H-A.png,sS,hH,mask-2.png,mask-4.png,s,1,0.4844959000183735,h,1,0.20157549998839386,0.050607999990461394,0.050735500000882894,0.1010507999744732,0.10054549999767914,0.7505245999782346
RSVPLG03,si,20260305-163709,1.0.2,20260219-152011,790,Experiment,Both,1,Automatic,main,96,20260305-164641,global,global,750,H,S,A,E,H-A.png,S-E.png,hH,sS,mask-4.png,mask-4.png,h,1,1.2019689999870025,s,1,0.15469049999956042,0.04972439998527989,0.05061910001677461,0.0994897999917157,0.10045350002474152,0.7489544999843929
RSVPLG03,si,20260305-163709,1.0.2,20260219-152011,790,Experiment,Both,1,Automatic,main,97,20260305-164646,local,global,300,H,H,E,A,E-H.png,H-A.png,hH,hH,mask-2.png,mask-4.png,h,1,0.9079705000040121,s,0,0.8018509999965318,0.04974090002360754,0.049834300007205456,0.10004400002071634,0.10023360000923276,0.2994491000135895
RSVPLG03,si,20260305-163709,1.0.2,20260219-152011,790,Experiment,Both,1,Automatic,main,98,20260305-164652,global,local,300,S,S,E,A,S-E.png,A-S.png,sS,sS,mask-3.png,mask-3.png,s,1,1.5734568999905605,h,0,0.6094964999938384,0.050967800023499876,0.05076260000350885,0.09947020001709461,0.1004413999908138,0.2988340000156313
RSVPLG03,si,20260305-163709,1.0.2,20260219-152011,790,Experiment,Both,1,Automatic,main,99,20260305-164658,local,local,750,H,H,A,E,A-H.png,E-H.png,hH,hH,mask-2.png,mask-3.png,h,1,0.8893018999951892,h,1,0.19448360000387765,0.05097209999803454,0.050255500013008714,0.1006282000162173,0.10050010000122711,0.7502020999963861
RSVPLG03,si,20260305-163709,1.0.2,20260219-152011,790,Experiment,Both,1,Automatic,main,100,20260305-164703,local,global,750,S,S,A,E,A-S.png,S-E.png,sS,sS,mask-2.png,mask-4.png,h,0,1.0281361999805085,h,0,0.10525710001820698,0.05077190001611598,0.04945489999954589,0.09981690000859089,0.0991613999940455,0.7500860000145622
