exp,exp_initials,runtime,ver,modtime,sub,blocktype,targets,cuetype,mode,trialtype,trial,trialtime,t1_level,t2_level,t2_lag,t1,t2,distractor1,distractor2,stimfile1,stimfile2,t1_corr,t2_corr,maskfile1,maskfile2,t1_resp,t1_acc,t1_rt,t2_resp,t2_acc,t2_rt,t1_dur,t2_dur,t1mask_soa,t2mask_soa,t1t2_soa
RSVPLG03,JM,20260304-092113,1.0.2,20251105-084826,783,Practice,T1,1,Automatic,main,1,20260304-092143,global,local,300,S,H,E,A,S-E.png,A-H.png,sS,hH,mask-4.png,mask-1.png,h,0,2.4751369999721646,none,-5,0,0.04211799998302013,0.047595599899068475,0.09433410002384335,0.10015329997986555,0.2946078000823036
RSVPLG03,JM,20260304-092113,1.0.2,20251105-084826,783,Practice,T1,1,Automatic,main,2,20260304-092149,local,local,300,S,H,A,E,A-S.png,E-H.png,sS,hH,mask-1.png,mask-4.png,s,1,0.7047124999808148,none,-5,0,0.04766139993444085,0.047598799923434854,0.09990949998609722,0.1006680999416858,0.29917150002438575
RSVPLG03,JM,20260304-092113,1.0.2,20251105-084826,783,Practice,T1,1,Automatic,main,3,20260304-092154,local,global,300,H,S,A,A,A-H.png,S-A.png,hH,sS,mask-4.png,mask-2.png,h,1,0.5104466000339016,none,-5,0,0.04753679991699755,0.04841110005509108,0.0993597999913618,0.09929880010895431,0.2998424998950213
RSVPLG03,JM,20260304-092113,1.0.2,20251105-084826,783,Practice,T1,1,Automatic,main,4,20260304-092158,local,global,750,S,H,E,A,E-S.png,H-A.png,sS,hH,mask-1.png,mask-4.png,s,1,0.7549361999845132,none,-5,0,0.046897900057956576,0.04781450005248189,0.09971620002761483,0.10099459998309612,0.749218099983409
RSVPLG03,JM,20260304-092113,1.0.2,20251105-084826,783,Practice,T1,1,Automatic,main,5,20260304-092203,local,local,750,S,S,E,E,E-S.png,E-S.png,sS,sS,mask-1.png,mask-1.png,s,1,0.7308603000128642,none,-5,0,0.0485022000502795,0.048538300092332065,0.09965870005544275,0.09968360001221299,0.7501809999812394
RSVPLG03,JM,20260304-092113,1.0.2,20251105-084826,783,Practice,T1,1,Automatic,main,6,20260304-092207,global,global,750,S,S,E,A,S-E.png,S-A.png,sS,sS,mask-2.png,mask-1.png,s,1,0.7219083000672981,none,-5,0,0.048182499944232404,0.047525899950414896,0.10120789997745305,0.09924669994506985,0.7516190999886021
RSVPLG03,JM,20260304-092113,1.0.2,20251105-084826,783,Practice,T1,1,Automatic,main,7,20260304-092212,global,local,750,S,S,A,E,S-A.png,E-S.png,sS,sS,mask-3.png,mask-1.png,s,1,0.7942389999516308,none,-5,0,0.04871390003245324,0.04619919997639954,0.10073599999304861,0.09960359998513013,0.7512670999858528
RSVPLG03,JM,20260304-092113,1.0.2,20251105-084826,783,Practice,T1,1,Automatic,main,8,20260304-092217,local,global,300,S,S,E,A,E-S.png,S-A.png,sS,sS,mask-1.png,mask-2.png,s,1,0.9111307000275701,none,-5,0,0.047818000079132617,0.04750029998831451,0.10088420007377863,0.09879349998664111,0.3015381000004709
RSVPLG03,JM,20260304-092113,1.0.2,20251105-084826,783,Practice,T1,1,Automatic,main,9,20260304-092222,global,global,750,S,H,A,A,S-A.png,H-A.png,sS,hH,mask-1.png,mask-4.png,h,0,0.7188146999105811,none,-5,0,0.04751820000819862,0.047506900038570166,0.09860510006546974,0.10150170000270009,0.748543499968946
RSVPLG03,JM,20260304-092113,1.0.2,20251105-084826,783,Practice,T1,1,Automatic,main,10,20260304-092226,local,local,750,S,H,A,E,A-S.png,E-H.png,sS,hH,mask-1.png,mask-4.png,s,1,0.6833650000626221,none,-5,0,0.04659169993828982,0.0467188999755308,0.0997876999899745,0.09993440005928278,0.7491074999561533
RSVPLG03,JM,20260304-092113,1.0.2,20251105-084826,783,Practice,T1,1,Automatic,main,11,20260304-092231,global,global,300,H,S,A,E,H-A.png,S-E.png,hH,sS,mask-3.png,mask-1.png,h,1,0.6196049998980016,none,-5,0,0.04751760000362992,0.04763850010931492,0.09968460001982749,0.10045810008887202,0.2992228999501094
RSVPLG03,JM,20260304-092113,1.0.2,20251105-084826,783,Practice,T1,1,Automatic,main,12,20260304-092236,global,global,300,S,H,E,E,S-E.png,H-E.png,sS,hH,mask-1.png,mask-1.png,s,1,0.5498676999704912,none,-5,0,0.047643400030210614,0.047677500057034194,0.10178190004080534,0.09883590007666498,0.30122559994924814
RSVPLG03,JM,20260304-092113,1.0.2,20251105-084826,783,Practice,T1,1,Automatic,main,13,20260304-092240,local,local,300,S,S,E,A,E-S.png,A-S.png,sS,sS,mask-4.png,mask-2.png,s,1,0.717721400083974,none,-5,0,0.04768509999848902,0.04769000003580004,0.09906939999200404,0.09987689997069538,0.29993440001271665
RSVPLG03,JM,20260304-092113,1.0.2,20251105-084826,783,Practice,T1,1,Automatic,main,14,20260304-092244,global,local,750,S,H,E,E,S-E.png,E-H.png,sS,hH,mask-2.png,mask-3.png,s,1,0.6543410000158474,none,-5,0,0.046881499933078885,0.04764890007209033,0.09764849999919534,0.09986150008626282,0.7484775999328122
RSVPLG03,JM,20260304-092113,1.0.2,20251105-084826,783,Practice,T1,1,Automatic,main,15,20260304-092249,local,global,750,H,S,E,E,E-H.png,S-E.png,hH,sS,mask-1.png,mask-3.png,s,0,0.7720710999565199,none,-5,0,0.047700900002382696,0.04750200000125915,0.09957550000399351,0.09948939993046224,0.7498684000456706
RSVPLG03,JM,20260304-092113,1.0.2,20251105-084826,783,Practice,T1,1,Automatic,main,16,20260304-092254,global,local,300,H,S,E,E,H-E.png,E-S.png,hH,sS,mask-3.png,mask-4.png,h,1,0.780761000001803,none,-5,0,0.04754659999161959,0.04749430005904287,0.0998686000239104,0.10058399999979883,0.30014579999260604
RSVPLG03,JM,20260304-092320,1.0.2,20251105-084826,783,Practice,Both,1,Automatic,main,1,20260304-092359,global,local,750,H,H,A,E,H-A.png,E-H.png,hH,hH,mask-3.png,mask-3.png,h,1,1.1353585000615567,h,1,0.5194329000078142,0.042060600011609495,0.048691999982111156,0.09538309997878969,0.09988200000952929,0.7439420999726281
RSVPLG03,JM,20260304-092320,1.0.2,20251105-084826,783,Practice,Both,1,Automatic,main,2,20260304-092405,global,global,300,H,S,A,E,H-A.png,S-E.png,hH,sS,mask-3.png,mask-2.png,h,1,0.7590419999323785,h,0,0.44155750004574656,0.04767889995127916,0.047653500107117,0.09985180001240224,0.09983240009751171,0.29848589992616326
RSVPLG03,JM,20260304-092320,1.0.2,20251105-084826,783,Practice,Both,1,Automatic,main,3,20260304-092410,local,global,300,H,H,E,A,E-H.png,H-A.png,hH,hH,mask-4.png,mask-1.png,h,1,0.6958354000234976,h,1,0.3136728999670595,0.04671059991233051,0.048656900064088404,0.09994259988889098,0.10192360007204115,0.2981775999069214
RSVPLG03,JM,20260304-092320,1.0.2,20251105-084826,783,Practice,Both,1,Automatic,main,4,20260304-092415,local,global,750,H,S,E,A,E-H.png,S-A.png,hH,sS,mask-4.png,mask-2.png,h,1,0.6126178000122309,s,1,0.21700010006316006,0.04801129992119968,0.047690399922430515,0.10025000001769513,0.09997420001309365,0.7502138999989256
RSVPLG03,JM,20260304-092320,1.0.2,20251105-084826,783,Practice,Both,1,Automatic,main,5,20260304-092420,local,global,300,S,H,A,E,A-S.png,H-E.png,sS,hH,mask-3.png,mask-2.png,h,0,0.5742363000754267,h,1,0.24855769996065646,0.04599200002849102,0.047858300036750734,0.0992850000038743,0.10196980007458478,0.2990328000159934
RSVPLG03,JM,20260304-092320,1.0.2,20251105-084826,783,Practice,Both,1,Automatic,main,6,20260304-092424,global,local,750,S,S,A,A,S-A.png,A-S.png,sS,sS,mask-4.png,mask-3.png,s,1,0.5682958000106737,s,1,0.2109149000607431,0.04667959990911186,0.047054999973624945,0.09876719990279526,0.10015750001184642,0.7488187999697402
RSVPLG03,JM,20260304-092320,1.0.2,20251105-084826,783,Practice,Both,1,Automatic,main,7,20260304-092429,global,global,750,H,S,A,A,H-A.png,S-A.png,hH,sS,mask-3.png,mask-2.png,h,1,0.5748377999989316,s,1,0.1994487999472767,0.04673549998551607,0.04766589996870607,0.09977690002415329,0.09984669997356832,0.7502026000292972
RSVPLG03,JM,20260304-092320,1.0.2,20251105-084826,783,Practice,Both,1,Automatic,main,8,20260304-092434,global,global,750,S,H,E,E,S-E.png,H-E.png,sS,hH,mask-2.png,mask-2.png,s,1,0.3554022000171244,h,1,0.10530220007058233,0.0480237000156194,0.04829279996920377,0.09936430002562702,0.10084620001725852,0.7497152000432834
RSVPLG03,JM,20260304-092320,1.0.2,20251105-084826,783,Practice,Both,1,Automatic,main,9,20260304-092439,local,local,300,H,S,A,A,A-H.png,A-S.png,hH,sS,mask-2.png,mask-3.png,h,1,0.5727625000290573,h,0,0.1675076000392437,0.048912899917922914,0.047341300058178604,0.10158299992326647,0.09977980004623532,0.3000910999253392
RSVPLG03,JM,20260304-092320,1.0.2,20251105-084826,783,Practice,Both,1,Automatic,main,10,20260304-092443,global,local,300,S,S,E,E,S-E.png,E-S.png,sS,sS,mask-3.png,mask-1.png,s,1,0.5168993999250233,s,1,0.2810141999507323,0.047504100017249584,0.04750310000963509,0.09950050001498312,0.09953379991929978,0.2998725000070408
RSVPLG03,JM,20260304-092320,1.0.2,20251105-084826,783,Practice,Both,1,Automatic,main,11,20260304-092448,global,local,300,S,S,E,A,S-E.png,A-S.png,sS,sS,mask-2.png,mask-2.png,s,1,0.6187052000313997,s,1,0.2525489000836387,0.04651310003828257,0.04723570006899536,0.0994905000552535,0.09822080004960299,0.29979560000356287
RSVPLG03,JM,20260304-092320,1.0.2,20251105-084826,783,Practice,Both,1,Automatic,main,12,20260304-092452,local,global,750,H,S,E,A,E-H.png,S-A.png,hH,sS,mask-3.png,mask-3.png,h,1,0.4485450000502169,s,1,0.15577010007109493,0.04876110004261136,0.04881900001782924,0.09990430006291717,0.0999866999918595,0.7499234999995679
RSVPLG03,JM,20260304-092320,1.0.2,20251105-084826,783,Practice,Both,1,Automatic,main,13,20260304-092457,global,global,300,S,H,A,A,S-A.png,H-A.png,sS,hH,mask-1.png,mask-3.png,s,1,0.38207389996387064,h,1,0.05981349991634488,0.04569000005722046,0.048711400013417006,0.09970450005494058,0.10112000000663102,0.29839090001769364
RSVPLG03,JM,20260304-092320,1.0.2,20251105-084826,783,Practice,Both,1,Automatic,main,14,20260304-092501,local,local,750,H,S,E,E,E-H.png,E-S.png,hH,sS,mask-1.png,mask-1.png,h,1,0.39869069994892925,s,1,0.29193549999035895,0.047658300027251244,0.047681699972599745,0.09970990009605885,0.10083649994339794,0.7496271000709385
RSVPLG03,JM,20260304-092320,1.0.2,20251105-084826,783,Practice,Both,1,Automatic,main,15,20260304-092506,local,local,750,H,H,A,A,A-H.png,A-H.png,hH,hH,mask-3.png,mask-2.png,h,1,0.25416540005244315,h,1,0.13507479999680072,0.04668419994413853,0.045676899957470596,0.09995750000234693,0.09988269989844412,0.7501533000031486
RSVPLG03,JM,20260304-092320,1.0.2,20251105-084826,783,Practice,Both,1,Automatic,main,16,20260304-092511,local,local,300,S,H,A,A,A-S.png,A-H.png,sS,hH,mask-4.png,mask-2.png,h,0,0.3568966999882832,h,1,0.13919969997368753,0.04756540001835674,0.04622520005796105,0.09977690002415329,0.09892060002312064,0.29946729994844645
RSVPLG03,JM,20260304-092615,1.0.2,20251105-084826,783,Experiment,T1,1,Automatic,warmup,1,20260304-092644,global,global,300,H,H,E,A,H-E.png,H-A.png,hH,hH,mask-2.png,mask-1.png,h,1,0.5593343999935314,none,-5,0,0.04696140007581562,0.047118599992245436,0.09868809999898076,0.1002668000292033,0.30033630004618317
RSVPLG03,JM,20260304-092615,1.0.2,20251105-084826,783,Experiment,T1,1,Automatic,warmup,2,20260304-092648,global,global,750,S,H,A,E,S-A.png,H-E.png,sS,hH,mask-1.png,mask-4.png,s,1,0.773439500015229,none,-5,0,0.04877700004726648,0.04769109992776066,0.10012890002690256,0.10089130001142621,0.750377600081265
RSVPLG03,JM,20260304-092615,1.0.2,20251105-084826,783,Experiment,T1,1,Automatic,warmup,3,20260304-092653,local,global,300,H,S,A,E,A-H.png,S-E.png,hH,sS,mask-1.png,mask-1.png,h,1,0.7876092001097277,none,-5,0,0.04589680000208318,0.04668569995556027,0.10020640003494918,0.09886080003343523,0.3007767000235617
RSVPLG03,JM,20260304-092615,1.0.2,20251105-084826,783,Experiment,T1,1,Automatic,warmup,4,20260304-092657,local,local,300,H,H,E,A,E-H.png,A-H.png,hH,hH,mask-3.png,mask-4.png,h,1,0.6765990999992937,none,-5,0,0.04703959997277707,0.0468634000280872,0.10125549999065697,0.09979260002728552,0.3016354999272153
RSVPLG03,JM,20260304-092615,1.0.2,20251105-084826,783,Experiment,T1,1,Automatic,main,5,20260304-092702,local,global,750,S,H,E,A,E-S.png,H-A.png,sS,hH,mask-2.png,mask-1.png,s,1,0.3593576999846846,none,-5,0,0.047758799977600574,0.04776570003014058,0.1008699000813067,0.10192290006671101,0.7503805999876931
RSVPLG03,JM,20260304-092615,1.0.2,20251105-084826,783,Experiment,T1,1,Automatic,main,6,20260304-092706,local,global,750,H,S,A,A,A-H.png,S-A.png,hH,sS,mask-2.png,mask-1.png,h,1,0.9152285000309348,none,-5,0,0.04667949990835041,0.048794299946166575,0.09990509995259345,0.10103460005484521,0.7489557999651879
RSVPLG03,JM,20260304-092615,1.0.2,20251105-084826,783,Experiment,T1,1,Automatic,main,7,20260304-092711,global,global,300,S,S,A,E,S-A.png,S-E.png,sS,sS,mask-1.png,mask-4.png,s,1,0.48945520003326237,none,-5,0,0.04743229993619025,0.048354099970310926,0.10036269994452596,0.09973839996382594,0.2996074999682605
RSVPLG03,JM,20260304-092615,1.0.2,20251105-084826,783,Experiment,T1,1,Automatic,main,8,20260304-092715,local,global,300,H,S,E,E,E-H.png,S-E.png,hH,sS,mask-2.png,mask-2.png,s,0,0.40832919999957085,none,-5,0,0.04706459993030876,0.04795809998176992,0.10023270000237972,0.09911509999074042,0.30042330001015216
RSVPLG03,JM,20260304-092615,1.0.2,20251105-084826,783,Experiment,T1,1,Automatic,main,9,20260304-092719,local,global,750,H,S,E,E,E-H.png,S-E.png,hH,sS,mask-3.png,mask-1.png,h,1,0.49093990004621446,none,-5,0,0.04728990001603961,0.04765890003181994,0.10014059999957681,0.09981640009209514,0.750418399926275
RSVPLG03,JM,20260304-092615,1.0.2,20251105-084826,783,Experiment,T1,1,Automatic,main,10,20260304-092724,global,global,300,H,S,A,E,H-A.png,S-E.png,hH,sS,mask-3.png,mask-4.png,h,1,0.46723089995794,none,-5,0,0.04854660003911704,0.04862150002736598,0.10010559996590018,0.0998070000205189,0.3013199999695644
RSVPLG03,JM,20260304-092615,1.0.2,20251105-084826,783,Experiment,T1,1,Automatic,main,11,20260304-092728,global,local,750,S,S,E,A,S-E.png,A-S.png,sS,sS,mask-1.png,mask-1.png,s,1,0.3352254000492394,none,-5,0,0.04748379997909069,0.047649099957197905,0.1005119999172166,0.09947969997301698,0.7498715999536216
RSVPLG03,JM,20260304-092615,1.0.2,20251105-084826,783,Experiment,T1,1,Automatic,main,12,20260304-092732,global,global,750,S,S,E,E,S-E.png,S-E.png,sS,sS,mask-2.png,mask-1.png,s,1,0.3027840999420732,none,-5,0,0.04679629998281598,0.04783120006322861,0.09971460001543164,0.09999540005810559,0.7506105999927968
RSVPLG03,JM,20260304-092615,1.0.2,20251105-084826,783,Experiment,T1,1,Automatic,main,13,20260304-092736,local,local,300,H,H,A,A,A-H.png,A-H.png,hH,hH,mask-1.png,mask-1.png,h,1,0.4813543000491336,none,-5,0,0.04768959991633892,0.04726150003261864,0.09950119990389794,0.10056110005825758,0.2993250999134034
RSVPLG03,JM,20260304-092615,1.0.2,20251105-084826,783,Experiment,T1,1,Automatic,main,14,20260304-092740,local,global,750,S,S,E,E,E-S.png,S-E.png,sS,sS,mask-2.png,mask-3.png,s,1,0.3297772000078112,none,-5,0,0.04759760003071278,0.04683610005304217,0.10054400004446507,0.09993800008669496,0.7503624999662861
RSVPLG03,JM,20260304-092615,1.0.2,20251105-084826,783,Experiment,T1,1,Automatic,main,15,20260304-092745,local,global,750,S,S,A,A,A-S.png,S-A.png,sS,sS,mask-4.png,mask-1.png,h,0,0.2993870999198407,none,-5,0,0.047468199976719916,0.046585300005972385,0.09953810006845742,0.09861819993238896,0.7509691000450402
RSVPLG03,JM,20260304-092615,1.0.2,20251105-084826,783,Experiment,T1,1,Automatic,main,16,20260304-092749,local,local,300,S,S,A,E,A-S.png,E-S.png,sS,sS,mask-3.png,mask-2.png,s,1,0.30584769998677075,none,-5,0,0.0476765000494197,0.04716219997499138,0.10157190007157624,0.0999551999848336,0.30024880007840693
RSVPLG03,JM,20260304-092615,1.0.2,20251105-084826,783,Experiment,T1,1,Automatic,main,17,20260304-092753,global,local,300,H,H,E,A,H-E.png,A-H.png,hH,hH,mask-3.png,mask-1.png,h,1,0.2774701000889763,none,-5,0,0.04850289993919432,0.04568089998792857,0.101492999936454,0.09813970001414418,0.30176609999034554
RSVPLG03,JM,20260304-092615,1.0.2,20251105-084826,783,Experiment,T1,1,Automatic,main,18,20260304-092757,local,global,300,S,H,E,E,E-S.png,H-E.png,sS,hH,mask-3.png,mask-2.png,s,1,0.3087769999401644,none,-5,0,0.04755349992774427,0.04664580000098795,0.09953569993376732,0.09880319994408637,0.29982179997023195
RSVPLG03,JM,20260304-092615,1.0.2,20251105-084826,783,Experiment,T1,1,Automatic,main,19,20260304-092801,local,local,750,S,S,A,A,A-S.png,A-S.png,sS,sS,mask-3.png,mask-1.png,s,1,0.317331500002183,none,-5,0,0.04571179999038577,0.04749040002934635,0.0997757000150159,0.09945840004365891,0.750135499984026
RSVPLG03,JM,20260304-092615,1.0.2,20251105-084826,783,Experiment,T1,1,Automatic,main,20,20260304-092805,global,local,300,H,H,E,E,H-E.png,E-H.png,hH,hH,mask-1.png,mask-2.png,h,1,0.328598799998872,none,-5,0,0.04727690003346652,0.0468752000015229,0.09938110003713518,0.10012099996674806,0.3003893999848515
RSVPLG03,JM,20260304-092615,1.0.2,20251105-084826,783,Experiment,T1,1,Automatic,main,21,20260304-092809,local,global,750,H,S,A,E,A-H.png,S-E.png,hH,sS,mask-3.png,mask-2.png,h,1,0.2598911999957636,none,-5,0,0.047681599971838295,0.046966199995949864,0.09969800000544637,0.1002781999995932,0.7502169000217691
RSVPLG03,JM,20260304-092615,1.0.2,20251105-084826,783,Experiment,T1,1,Automatic,main,22,20260304-092813,local,local,750,S,S,E,E,E-S.png,E-S.png,sS,sS,mask-4.png,mask-1.png,s,1,0.2370628999779001,none,-5,0,0.04497859999537468,0.047811799915507436,0.09820320003200322,0.09986959991510957,0.7501418000319973
RSVPLG03,JM,20260304-092615,1.0.2,20251105-084826,783,Experiment,T1,1,Automatic,main,23,20260304-092818,global,global,750,S,H,E,E,S-E.png,H-E.png,sS,hH,mask-4.png,mask-1.png,s,1,0.03034900000784546,none,-5,0,0.045925899990834296,0.04772949998732656,0.09857629996258765,0.10000859992578626,0.7498759999871254
RSVPLG03,JM,20260304-092615,1.0.2,20251105-084826,783,Experiment,T1,1,Automatic,main,24,20260304-092822,local,local,300,S,H,E,E,E-S.png,E-H.png,sS,hH,mask-4.png,mask-4.png,s,1,0.27840199996717274,none,-5,0,0.047671200009062886,0.0474903000285849,0.09985520003829151,0.09984430007170886,0.2997088999254629
RSVPLG03,JM,20260304-092615,1.0.2,20251105-084826,783,Experiment,T1,1,Automatic,main,25,20260304-092825,global,local,750,H,H,A,A,H-A.png,A-H.png,hH,hH,mask-3.png,mask-1.png,h,1,0.11920940002892166,none,-5,0,0.04753850004635751,0.04681999993044883,0.09895699995104223,0.09834609995596111,0.7507068000268191
RSVPLG03,JM,20260304-092615,1.0.2,20251105-084826,783,Experiment,T1,1,Automatic,main,26,20260304-092834,local,global,750,S,H,E,E,E-S.png,H-E.png,sS,hH,mask-2.png,mask-2.png,s,1,0.24409490008838475,none,-5,0,0.04769440006930381,0.047689200029708445,0.098943299963139,0.09996429993771017,0.7498827000381425
RSVPLG03,JM,20260304-092615,1.0.2,20251105-084826,783,Experiment,T1,1,Automatic,main,27,20260304-092838,global,local,750,H,S,E,A,H-E.png,A-S.png,hH,sS,mask-1.png,mask-4.png,h,1,0.24228510004468262,none,-5,0,0.04686820006463677,0.04768950003199279,0.1001617000438273,0.09987290005665272,0.7502895999932662
RSVPLG03,JM,20260304-092615,1.0.2,20251105-084826,783,Experiment,T1,1,Automatic,main,28,20260304-092843,local,local,300,S,H,A,A,A-S.png,A-H.png,sS,hH,mask-1.png,mask-2.png,s,1,0.39821110002230853,none,-5,0,0.04772430006414652,0.047763300011865795,0.10064960003364831,0.09968480002135038,0.3003061000490561
RSVPLG03,JM,20260304-092615,1.0.2,20251105-084826,783,Experiment,T1,1,Automatic,main,29,20260304-092846,local,local,300,S,H,E,A,E-S.png,A-H.png,sS,hH,mask-4.png,mask-4.png,s,1,0.38008060003630817,none,-5,0,0.04872530000284314,0.047761900001205504,0.10122609999962151,0.10000530001707375,0.30092960002366453
RSVPLG03,JM,20260304-092615,1.0.2,20251105-084826,783,Experiment,T1,1,Automatic,main,30,20260304-092850,global,local,300,H,H,A,E,H-A.png,E-H.png,hH,hH,mask-3.png,mask-4.png,h,1,0.2883566999807954,none,-5,0,0.04746869998052716,0.046904000104404986,0.09971109998878092,0.10091090004425496,0.29949129989836365
RSVPLG03,JM,20260304-092615,1.0.2,20251105-084826,783,Experiment,T1,1,Automatic,main,31,20260304-092854,local,local,300,H,H,A,A,A-H.png,A-H.png,hH,hH,mask-4.png,mask-3.png,h,1,0.38237510004546493,none,-5,0,0.04767560004256666,0.04687469999771565,0.09985790005885065,0.10016040003392845,0.3003296999959275
RSVPLG03,JM,20260304-092615,1.0.2,20251105-084826,783,Experiment,T1,1,Automatic,main,32,20260304-092858,local,local,300,H,S,A,E,A-H.png,E-S.png,hH,sS,mask-2.png,mask-1.png,h,1,0.2598092999542132,none,-5,0,0.047499499982222915,0.04679390008095652,0.10094629996456206,0.09987340006045997,0.3022190999472514
RSVPLG03,JM,20260304-092615,1.0.2,20251105-084826,783,Experiment,T1,1,Automatic,main,33,20260304-092902,global,local,750,H,H,E,A,H-E.png,A-H.png,hH,hH,mask-1.png,mask-4.png,h,1,0.13427919999230653,none,-5,0,0.04764530004467815,0.047632499947212636,0.10178919997997582,0.09971879993099719,0.7519767000339925
RSVPLG03,JM,20260304-092615,1.0.2,20251105-084826,783,Experiment,T1,1,Automatic,main,34,20260304-092906,local,global,300,S,H,A,E,A-S.png,H-E.png,sS,hH,mask-4.png,mask-1.png,h,0,0.27182780008297414,none,-5,0,0.04753590002655983,0.04751209996175021,0.09950470004696399,0.10051299992483109,0.2997434000717476
RSVPLG03,JM,20260304-092615,1.0.2,20251105-084826,783,Experiment,T1,1,Automatic,main,35,20260304-092910,global,local,750,S,S,A,A,S-A.png,A-S.png,sS,sS,mask-2.png,mask-1.png,s,1,0.1553917999844998,none,-5,0,0.0475212000310421,0.047500799992121756,0.09951109997928143,0.09956870006863028,0.7501525999978185
RSVPLG03,JM,20260304-092615,1.0.2,20251105-084826,783,Experiment,T1,1,Automatic,main,36,20260304-092914,global,global,750,H,S,E,E,H-E.png,S-E.png,hH,sS,mask-3.png,mask-2.png,h,1,0.054174200049601495,none,-5,0,0.04769920010585338,0.04850040003657341,0.09971710003446788,0.10019919998012483,0.7501249000197276
RSVPLG03,JM,20260304-092615,1.0.2,20251105-084826,783,Experiment,T1,1,Automatic,main,37,20260304-092918,global,global,300,H,S,A,E,H-A.png,S-E.png,hH,sS,mask-2.png,mask-3.png,h,1,0.27784460003022105,none,-5,0,0.046980099985376,0.046516899950802326,0.09854069992434233,0.0998120999429375,0.30013600003439933
RSVPLG03,JM,20260304-092615,1.0.2,20251105-084826,783,Experiment,T1,1,Automatic,main,38,20260304-092922,global,global,300,S,S,A,E,S-A.png,S-E.png,sS,sS,mask-3.png,mask-4.png,s,1,0.28064050001557916,none,-5,0,0.048421300016343594,0.046716100070625544,0.1005934999557212,0.09966410009656101,0.30165129993110895
RSVPLG03,JM,20260304-092615,1.0.2,20251105-084826,783,Experiment,T1,1,Automatic,main,39,20260304-092926,global,global,750,H,H,A,E,H-A.png,H-E.png,hH,hH,mask-1.png,mask-1.png,h,1,0.09539810009300709,none,-5,0,0.045909899985417724,0.04741160001140088,0.09835330001078546,0.09922189998906106,0.7494353000074625
RSVPLG03,JM,20260304-092615,1.0.2,20251105-084826,783,Experiment,T1,1,Automatic,main,40,20260304-092930,local,global,300,S,S,A,A,A-S.png,S-A.png,sS,sS,mask-2.png,mask-1.png,h,0,0.37521560001187027,none,-5,0,0.046647400013171136,0.04806800000369549,0.09894539997912943,0.10127930005546659,0.2993167999666184
RSVPLG03,JM,20260304-092615,1.0.2,20251105-084826,783,Experiment,T1,1,Automatic,main,41,20260304-092933,local,local,750,S,H,E,E,E-S.png,E-H.png,sS,hH,mask-1.png,mask-3.png,s,1,0.18379089992959052,none,-5,0,0.045389800099655986,0.04686160001438111,0.09870160010177642,0.09939550003036857,0.7494973000138998
RSVPLG03,JM,20260304-092615,1.0.2,20251105-084826,783,Experiment,T1,1,Automatic,main,42,20260304-092938,global,global,750,H,S,A,E,H-A.png,S-E.png,hH,sS,mask-2.png,mask-1.png,h,1,0.19267609994858503,none,-5,0,0.047057799994945526,0.048456700053066015,0.09930739994160831,0.09988820005673915,0.750365599989891
RSVPLG03,JM,20260304-092615,1.0.2,20251105-084826,783,Experiment,T1,1,Automatic,main,43,20260304-092942,global,local,300,S,H,A,E,S-A.png,E-H.png,sS,hH,mask-1.png,mask-3.png,s,1,0.37960310000926256,none,-5,0,0.04745589999947697,0.04755469993688166,0.10078560002148151,0.1006444999948144,0.2989872000180185
RSVPLG03,JM,20260304-092615,1.0.2,20251105-084826,783,Experiment,T1,1,Automatic,main,44,20260304-092946,local,local,750,S,H,A,E,A-S.png,E-H.png,sS,hH,mask-4.png,mask-1.png,s,1,0.09644930006470531,none,-5,0,0.04627090005669743,0.046496199909597635,0.0993910999968648,0.09868299996014684,0.7509298000950366
RSVPLG03,JM,20260304-092615,1.0.2,20251105-084826,783,Experiment,T1,1,Automatic,main,45,20260304-092950,global,global,300,H,H,A,E,H-A.png,H-E.png,hH,hH,mask-3.png,mask-2.png,h,1,0.3591794000240043,none,-5,0,0.04640089999884367,0.04583509999793023,0.1003883999073878,0.09919490001630038,0.3013958999654278
RSVPLG03,JM,20260304-092615,1.0.2,20251105-084826,783,Experiment,T1,1,Automatic,main,46,20260304-092954,local,local,750,S,S,E,A,E-S.png,A-S.png,sS,sS,mask-1.png,mask-2.png,s,1,0.1491080999840051,none,-5,0,0.04689290001988411,0.04948069993406534,0.09969519998412579,0.10088269994594157,0.7502795000327751
RSVPLG03,JM,20260304-092615,1.0.2,20251105-084826,783,Experiment,T1,1,Automatic,main,47,20260304-092958,global,global,300,S,S,A,A,S-A.png,S-A.png,sS,sS,mask-4.png,mask-4.png,s,1,0.19114389992319047,none,-5,0,0.04731500009074807,0.04756869992706925,0.10019880009349436,0.09953989996574819,0.30186850007157773
RSVPLG03,JM,20260304-092615,1.0.2,20251105-084826,783,Experiment,T1,1,Automatic,main,48,20260304-093001,local,local,750,S,S,A,A,A-S.png,A-S.png,sS,sS,mask-3.png,mask-4.png,s,1,0.29824399994686246,none,-5,0,0.04752540006302297,0.047536800033412874,0.10057080001570284,0.10152320004999638,0.7502440999960527
RSVPLG03,JM,20260304-092615,1.0.2,20251105-084826,783,Experiment,T1,1,Automatic,main,49,20260304-093006,global,global,300,H,S,A,A,H-A.png,S-A.png,hH,sS,mask-1.png,mask-2.png,h,1,0.3094319000374526,none,-5,0,0.046551600098609924,0.046534699969924986,0.0996510999975726,0.09930010000243783,0.30033830006141216
RSVPLG03,JM,20260304-092615,1.0.2,20251105-084826,783,Experiment,T1,1,Automatic,main,50,20260304-093009,local,local,750,S,S,A,A,A-S.png,A-S.png,sS,sS,mask-4.png,mask-4.png,s,1,0.049265600042417645,none,-5,0,0.04753440001513809,0.04739920003339648,0.09942599991336465,0.10041820001788437,0.7504172999178991
RSVPLG03,JM,20260304-092615,1.0.2,20251105-084826,783,Experiment,T1,1,Automatic,main,51,20260304-093016,global,global,300,H,S,A,A,H-A.png,S-A.png,hH,sS,mask-2.png,mask-1.png,h,1,0.3504921999992803,none,-5,0,0.04768170008901507,0.047532099997624755,0.10151700000278652,0.09805160004179925,0.30175149999558926
RSVPLG03,JM,20260304-092615,1.0.2,20251105-084826,783,Experiment,T1,1,Automatic,main,52,20260304-093020,global,local,300,H,S,A,E,H-A.png,E-S.png,hH,sS,mask-1.png,mask-3.png,h,1,0.31276679993607104,none,-5,0,0.04750300000887364,0.048757200012914836,0.10047669999767095,0.10167070000898093,0.29993440001271665
RSVPLG03,JM,20260304-092615,1.0.2,20251105-084826,783,Experiment,T1,1,Automatic,main,53,20260304-093023,local,global,300,S,S,E,E,E-S.png,S-E.png,sS,sS,mask-4.png,mask-1.png,s,1,0.3018397999694571,none,-5,0,0.04852860001847148,0.04851679992862046,0.10151549999136478,0.10152059991378337,0.3004077000077814
RSVPLG03,JM,20260304-092615,1.0.2,20251105-084826,783,Experiment,T1,1,Automatic,main,54,20260304-093027,local,global,300,S,S,E,E,E-S.png,S-E.png,sS,sS,mask-4.png,mask-3.png,s,1,0.2808777999598533,none,-5,0,0.04750510002486408,0.04750460002105683,0.09951179998461157,0.10150630003772676,0.29977849998977035
RSVPLG03,JM,20260304-092615,1.0.2,20251105-084826,783,Experiment,T1,1,Automatic,main,55,20260304-093031,global,global,750,S,S,A,E,S-A.png,S-E.png,sS,sS,mask-4.png,mask-3.png,s,1,0.4923071999801323,none,-5,0,0.04749999998603016,0.04854200000409037,0.10049360000994056,0.10053629998583347,0.750032200012356
RSVPLG03,JM,20260304-092615,1.0.2,20251105-084826,783,Experiment,T1,1,Automatic,main,56,20260304-093035,local,global,300,H,H,A,A,A-H.png,H-A.png,hH,hH,mask-4.png,mask-4.png,h,1,0.39854859991464764,none,-5,0,0.04731230007018894,0.04608190001454204,0.09992080007214099,0.09859950002282858,0.300668100011535
RSVPLG03,JM,20260304-092615,1.0.2,20251105-084826,783,Experiment,T1,1,Automatic,main,57,20260304-093039,global,global,300,H,S,A,A,H-A.png,S-A.png,hH,sS,mask-1.png,mask-2.png,h,1,0.4015081999823451,none,-5,0,0.045476899947971106,0.04850429994985461,0.09938120003789663,0.10048359993379563,0.29955450003035367
RSVPLG03,JM,20260304-092615,1.0.2,20251105-084826,783,Experiment,T1,1,Automatic,main,58,20260304-093043,global,local,300,H,H,E,A,H-E.png,A-H.png,hH,hH,mask-3.png,mask-2.png,h,1,0.30404059996362776,none,-5,0,0.048492299974896014,0.04784080001991242,0.09950800007209182,0.09900639997795224,0.3010242000455037
RSVPLG03,JM,20260304-092615,1.0.2,20251105-084826,783,Experiment,T1,1,Automatic,main,59,20260304-093047,global,global,750,S,H,A,E,S-A.png,H-E.png,sS,hH,mask-4.png,mask-2.png,s,1,0.11484749999362975,none,-5,0,0.04669890005607158,0.04778750007972121,0.09995240007992834,0.10062430007383227,0.7496794000035152
RSVPLG03,JM,20260304-092615,1.0.2,20251105-084826,783,Experiment,T1,1,Automatic,main,60,20260304-093051,local,local,300,H,S,A,A,A-H.png,A-S.png,hH,sS,mask-2.png,mask-4.png,h,1,0.27457840007264167,none,-5,0,0.046707000001333654,0.04761320003308356,0.09976159990765154,0.09976849996019155,0.30119549995288253
RSVPLG03,JM,20260304-092615,1.0.2,20251105-084826,783,Experiment,T1,1,Automatic,main,61,20260304-093055,global,global,750,H,S,E,A,H-E.png,S-A.png,hH,sS,mask-1.png,mask-4.png,h,1,0.2067506000166759,none,-5,0,0.04860099998768419,0.04692569992039353,0.1008239999646321,0.1000295999692753,0.7511681000469252
RSVPLG03,JM,20260304-092615,1.0.2,20251105-084826,783,Experiment,T1,1,Automatic,main,62,20260304-093059,global,local,750,S,H,A,A,S-A.png,A-H.png,sS,hH,mask-4.png,mask-4.png,s,1,0.09327409998513758,none,-5,0,0.04746000003069639,0.04669109999667853,0.1004345000255853,0.09854679997079074,0.7513601001119241
RSVPLG03,JM,20260304-092615,1.0.2,20251105-084826,783,Experiment,T1,1,Automatic,main,63,20260304-093103,local,local,750,S,S,A,E,A-S.png,E-S.png,sS,sS,mask-2.png,mask-2.png,s,1,0.18754119996447116,none,-5,0,0.04778129991609603,0.04750930005684495,0.10003400000277907,0.09859810001216829,0.7510764999315143
RSVPLG03,JM,20260304-092615,1.0.2,20251105-084826,783,Experiment,T1,1,Automatic,main,64,20260304-093107,local,global,750,H,S,E,A,E-H.png,S-A.png,hH,sS,mask-2.png,mask-2.png,s,0,0.20301069994457066,none,-5,0,0.0485571000026539,0.04770490003284067,0.10120619996450841,0.09921410004608333,0.7516382000176236
RSVPLG03,JM,20260304-092615,1.0.2,20251105-084826,783,Experiment,T1,1,Automatic,main,65,20260304-093112,local,local,750,H,S,E,E,E-H.png,E-S.png,hH,sS,mask-4.png,mask-3.png,s,0,0.20729230006691068,none,-5,0,0.04750740004237741,0.04757040005642921,0.10049480001907796,0.1011854000389576,0.7492480999790132
RSVPLG03,JM,20260304-092615,1.0.2,20251105-084826,783,Experiment,T1,1,Automatic,main,66,20260304-093116,global,global,300,S,H,A,E,S-A.png,H-E.png,sS,hH,mask-4.png,mask-4.png,s,1,0.4065138000296429,none,-5,0,0.04771509999409318,0.047677300055511296,0.09989780001342297,0.10184929997194558,0.2995214000111446
RSVPLG03,JM,20260304-092615,1.0.2,20251105-084826,783,Experiment,T1,1,Automatic,main,67,20260304-093120,local,local,300,H,H,E,E,E-H.png,E-H.png,hH,hH,mask-2.png,mask-2.png,s,0,0.3558443000074476,none,-5,0,0.047653699992224574,0.04721729992888868,0.09986590000335127,0.100122099975124,0.2999117000726983
RSVPLG03,JM,20260304-092615,1.0.2,20251105-084826,783,Experiment,T1,1,Automatic,main,68,20260304-093124,global,local,750,H,H,A,A,H-A.png,A-H.png,hH,hH,mask-1.png,mask-4.png,h,1,0.3035325000528246,none,-5,0,0.047660999931395054,0.04767060000449419,0.09886019991245121,0.09990449994802475,0.7503654999891296
RSVPLG03,JM,20260304-092615,1.0.2,20251105-084826,783,Experiment,T1,1,Automatic,main,69,20260304-093128,global,global,750,H,S,E,E,H-E.png,S-E.png,hH,sS,mask-4.png,mask-3.png,h,1,0.19208459998480976,none,-5,0,0.04774039995390922,0.046887399978004396,0.0988497999496758,0.09898999996948987,0.7503981000045314
RSVPLG03,JM,20260304-092615,1.0.2,20251105-084826,783,Experiment,T1,1,Automatic,main,70,20260304-093132,local,global,300,H,S,A,A,A-H.png,S-A.png,hH,sS,mask-4.png,mask-4.png,h,1,0.3198969999793917,none,-5,0,0.047505400027148426,0.04752119991462678,0.0984979000641033,0.10151319997385144,0.29873100004624575
RSVPLG03,JM,20260304-092615,1.0.2,20251105-084826,783,Experiment,T1,1,Automatic,main,71,20260304-093136,local,global,750,H,H,A,E,A-H.png,H-E.png,hH,hH,mask-3.png,mask-2.png,h,1,0.09385960001964122,none,-5,0,0.04754189995583147,0.04756229999475181,0.10065039992332458,0.09965250000823289,0.7508538999827579
RSVPLG03,JM,20260304-092615,1.0.2,20251105-084826,783,Experiment,T1,1,Automatic,main,72,20260304-093140,global,local,750,S,H,A,A,S-A.png,A-H.png,sS,hH,mask-4.png,mask-4.png,s,1,0.13159969996195287,none,-5,0,0.04851319990120828,0.044742299942299724,0.10159159998875111,0.09733339992817491,0.7534083999926224
RSVPLG03,JM,20260304-092615,1.0.2,20251105-084826,783,Experiment,T1,1,Automatic,main,73,20260304-093144,local,global,750,S,S,A,A,A-S.png,S-A.png,sS,sS,mask-3.png,mask-2.png,h,0,0.38758939993567765,none,-5,0,0.047684599994681776,0.04868010000791401,0.09904980007559061,0.1018501000944525,0.7502743999939412
RSVPLG03,JM,20260304-092615,1.0.2,20251105-084826,783,Experiment,T1,1,Automatic,main,74,20260304-093149,global,global,750,H,H,A,A,H-A.png,H-A.png,hH,hH,mask-2.png,mask-3.png,h,1,0.2759885999839753,none,-5,0,0.04858609999064356,0.04766210005618632,0.10100569995120168,0.09984290006104857,0.75148629990872
RSVPLG03,JM,20260304-092615,1.0.2,20251105-084826,783,Experiment,T1,1,Automatic,main,75,20260304-093153,local,local,300,H,H,A,A,A-H.png,A-H.png,hH,hH,mask-1.png,mask-4.png,h,1,0.41557209996972233,none,-5,0,0.04661110008601099,0.04759410000406206,0.09880250005517155,0.10065019992180169,0.299621400074102
RSVPLG03,JM,20260304-092615,1.0.2,20251105-084826,783,Experiment,T1,1,Automatic,main,76,20260304-093159,local,local,300,S,H,A,E,A-S.png,E-H.png,sS,hH,mask-4.png,mask-1.png,h,0,0.4001596999587491,none,-5,0,0.04774179996456951,0.04702309996355325,0.09939699992537498,0.09924779995344579,0.30104900000151247
RSVPLG03,JM,20260304-092615,1.0.2,20251105-084826,783,Experiment,T1,1,Automatic,main,77,20260304-093203,local,local,750,H,H,E,E,E-H.png,E-H.png,hH,hH,mask-4.png,mask-1.png,s,0,0.31674169993493706,none,-5,0,0.046606300049461424,0.048655200051143765,0.09977820003405213,0.09990140004083514,0.7496345000108704
RSVPLG03,JM,20260304-092615,1.0.2,20251105-084826,783,Experiment,T1,1,Automatic,main,78,20260304-093207,local,local,750,H,S,A,E,A-H.png,E-S.png,hH,sS,mask-2.png,mask-4.png,h,1,0.19021730008535087,none,-5,0,0.045847700093872845,0.04572450008708984,0.0989270000718534,0.09878550004214048,0.751056500012055
RSVPLG03,JM,20260304-092615,1.0.2,20251105-084826,783,Experiment,T1,1,Automatic,main,79,20260304-093211,global,local,750,S,S,E,A,S-E.png,A-S.png,sS,sS,mask-2.png,mask-1.png,s,1,0.36339650000445545,none,-5,0,0.046554400003515184,0.04751090006902814,0.10071189992595464,0.10165159997995943,0.7498882999643683
RSVPLG03,JM,20260304-092615,1.0.2,20251105-084826,783,Experiment,T1,1,Automatic,main,80,20260304-093215,local,global,750,H,S,E,E,E-H.png,S-E.png,hH,sS,mask-1.png,mask-2.png,s,0,0.1870543999830261,none,-5,0,0.04767240001820028,0.047690900042653084,0.09983980003744364,0.09985300002153963,0.7519639000529423
RSVPLG03,JM,20260304-092615,1.0.2,20251105-084826,783,Experiment,T1,1,Automatic,main,81,20260304-093220,local,global,300,S,H,A,A,A-S.png,H-A.png,sS,hH,mask-4.png,mask-3.png,h,0,0.29709389992058277,none,-5,0,0.04728109994903207,0.048097999999299645,0.10041569999884814,0.09919869992882013,0.3001805000239983
RSVPLG03,JM,20260304-092615,1.0.2,20251105-084826,783,Experiment,T1,1,Automatic,main,82,20260304-093223,global,local,300,S,S,E,A,S-E.png,A-S.png,sS,sS,mask-2.png,mask-1.png,s,1,0.3964287000708282,none,-5,0,0.04728810000233352,0.048493599984794855,0.09850520000327379,0.10053910000715405,0.29891110002063215
RSVPLG03,JM,20260304-092615,1.0.2,20251105-084826,783,Experiment,T1,1,Automatic,main,83,20260304-093227,global,local,750,H,S,A,E,H-A.png,E-S.png,hH,sS,mask-4.png,mask-3.png,h,1,0.2736358999973163,none,-5,0,0.04750290000811219,0.048500699922442436,0.0995031000347808,0.09950140002183616,0.7500665000407025
RSVPLG03,JM,20260304-092615,1.0.2,20251105-084826,783,Experiment,T1,1,Automatic,main,84,20260304-093232,global,local,300,S,S,E,A,S-E.png,A-S.png,sS,sS,mask-4.png,mask-1.png,s,1,0.30078029993455857,none,-5,0,0.04753570002503693,0.04935680003836751,0.10011300002224743,0.10164840007200837,0.29988519998732954
RSVPLG03,JM,20260304-092615,1.0.2,20251105-084826,783,Experiment,T1,1,Automatic,main,85,20260304-093236,global,local,750,H,H,E,A,H-E.png,A-H.png,hH,hH,mask-1.png,mask-2.png,h,1,0.07784019992686808,none,-5,0,0.04648259992245585,0.04763539996929467,0.09962909994646907,0.10078979993704706,0.7498763999901712
RSVPLG03,JM,20260304-092615,1.0.2,20251105-084826,783,Experiment,T1,1,Automatic,main,86,20260304-093240,global,local,300,H,S,E,E,H-E.png,E-S.png,hH,sS,mask-3.png,mask-1.png,h,1,0.5103048000019044,none,-5,0,0.04608640004880726,0.04780439997557551,0.10039240005426109,0.10010309994686395,0.2999062000308186
RSVPLG03,JM,20260304-092615,1.0.2,20251105-084826,783,Experiment,T1,1,Automatic,main,87,20260304-093244,global,local,750,S,S,E,A,S-E.png,A-S.png,sS,sS,mask-4.png,mask-2.png,s,1,0.3200716000283137,none,-5,0,0.046463700011372566,0.04676129994913936,0.09965969994664192,0.10090699989814311,0.7505069000180811
RSVPLG03,JM,20260304-092615,1.0.2,20251105-084826,783,Experiment,T1,1,Automatic,main,88,20260304-093248,local,global,750,H,S,A,A,A-H.png,S-A.png,hH,sS,mask-1.png,mask-1.png,h,1,0.06059160002041608,none,-5,0,0.048035799991339445,0.046714600059203804,0.10069900006055832,0.09995810000691563,0.7523367999820039
RSVPLG03,JM,20260304-092615,1.0.2,20251105-084826,783,Experiment,T1,1,Automatic,main,89,20260304-093252,global,local,300,H,H,E,E,H-E.png,E-H.png,hH,hH,mask-2.png,mask-4.png,h,1,0.25266080000437796,none,-5,0,0.04763520008418709,0.046856199973262846,0.10152320004999638,0.09991850005462766,0.30178340000566095
RSVPLG03,JM,20260304-092615,1.0.2,20251105-084826,783,Experiment,T1,1,Automatic,main,90,20260304-093256,global,global,300,H,S,A,A,H-A.png,S-A.png,hH,sS,mask-4.png,mask-4.png,h,1,0.2362790999468416,none,-5,0,0.04782790003810078,0.046506899991072714,0.10202540003228933,0.09952479996718466,0.30234420008491725
RSVPLG03,JM,20260304-092615,1.0.2,20251105-084826,783,Experiment,T1,1,Automatic,main,91,20260304-093300,global,global,750,H,S,A,E,H-A.png,S-E.png,hH,sS,mask-4.png,mask-1.png,h,1,0.04126259998884052,none,-5,0,0.04772819997742772,0.046709900023415685,0.09906510007567704,0.09932240005582571,0.7505661000031978
RSVPLG03,JM,20260304-092615,1.0.2,20251105-084826,783,Experiment,T1,1,Automatic,main,92,20260304-093304,local,global,300,H,S,E,A,E-H.png,S-A.png,hH,sS,mask-4.png,mask-2.png,s,0,0.3216323000378907,none,-5,0,0.04754210007376969,0.047545299981720746,0.09955489996355027,0.09955120005179197,0.3002845000009984
RSVPLG03,JM,20260304-092615,1.0.2,20251105-084826,783,Experiment,T1,1,Automatic,main,93,20260304-093308,global,local,300,S,H,A,E,S-A.png,E-H.png,sS,hH,mask-4.png,mask-2.png,s,1,0.25188670004718006,none,-5,0,0.04843529989011586,0.04747049999423325,0.10151499998755753,0.10049760004039854,0.3006593999452889
RSVPLG03,JM,20260304-092615,1.0.2,20251105-084826,783,Experiment,T1,1,Automatic,main,94,20260304-093311,global,local,300,H,S,A,E,H-A.png,E-S.png,hH,sS,mask-4.png,mask-3.png,h,1,0.2559587999712676,none,-5,0,0.04849549999926239,0.047512899967841804,0.10149280005134642,0.10058749991003424,0.30073960009031
RSVPLG03,JM,20260304-092615,1.0.2,20251105-084826,783,Experiment,T1,1,Automatic,main,95,20260304-093315,local,global,300,S,H,A,A,A-S.png,H-A.png,sS,hH,mask-1.png,mask-2.png,h,0,0.15745659999083728,none,-5,0,0.04590289993211627,0.0485756000271067,0.10002080001868308,0.09986990003380924,0.2986875999486074
RSVPLG03,JM,20260304-092615,1.0.2,20251105-084826,783,Experiment,T1,1,Automatic,main,96,20260304-093319,local,global,300,H,S,A,A,A-H.png,S-A.png,hH,sS,mask-3.png,mask-3.png,h,1,0.4208393000299111,none,-5,0,0.04750759992748499,0.04597079998347908,0.09962959995027632,0.10054440004751086,0.29945039993617684
RSVPLG03,JM,20260304-092615,1.0.2,20251105-084826,783,Experiment,T1,1,Automatic,main,97,20260304-093323,global,global,300,H,S,A,A,H-A.png,S-A.png,hH,sS,mask-3.png,mask-1.png,h,1,0.3792230000253767,none,-5,0,0.04755220003426075,0.048598699970170856,0.10033230006229132,0.10057380003854632,0.300608400022611
RSVPLG03,JM,20260304-092615,1.0.2,20251105-084826,783,Experiment,T1,1,Automatic,main,98,20260304-093327,local,local,300,H,H,A,A,A-H.png,A-H.png,hH,hH,mask-3.png,mask-4.png,h,1,0.25556540000252426,none,-5,0,0.048580799950286746,0.046516999951563776,0.09956769994460046,0.10060679994057864,0.30083690001629293
RSVPLG03,JM,20260304-092615,1.0.2,20251105-084826,783,Experiment,T1,1,Automatic,main,99,20260304-093331,global,global,750,H,S,A,A,H-A.png,S-A.png,hH,sS,mask-4.png,mask-2.png,h,1,0.2845045999856666,none,-5,0,0.04751319997012615,0.046828299993649125,0.09891109995078295,0.09976070001721382,0.7501199999824166
RSVPLG03,JM,20260304-092615,1.0.2,20251105-084826,783,Experiment,T1,1,Automatic,main,100,20260304-093335,local,local,750,S,H,E,E,E-S.png,E-H.png,sS,hH,mask-1.png,mask-3.png,s,1,0.1264148000627756,none,-5,0,0.04750469990540296,0.047505300026386976,0.09957269998267293,0.09997580002527684,0.7496149999788031
RSVPLG03,JM,20260304-093357,1.0.2,20251105-084826,783,Experiment,Both,1,Automatic,warmup,1,20260304-093417,local,global,750,H,H,E,A,E-H.png,H-A.png,hH,hH,mask-1.png,mask-3.png,s,0,0.2647047000937164,h,1,1.9804102000780404,0.045924299978651106,0.04752939997706562,0.09860739996656775,0.10151549999136478,0.7492641999851912
RSVPLG03,JM,20260304-093357,1.0.2,20251105-084826,783,Experiment,Both,1,Automatic,warmup,2,20260304-093423,global,local,750,S,S,E,A,S-E.png,A-S.png,sS,sS,mask-2.png,mask-1.png,s,1,0.7125835999613628,s,1,0.10812610003631562,0.04651899996679276,0.04853480006568134,0.09962260001339018,0.10160320007707924,0.7483522999100387
RSVPLG03,JM,20260304-093357,1.0.2,20251105-084826,783,Experiment,Both,1,Automatic,warmup,3,20260304-093428,local,global,300,H,H,E,A,E-H.png,H-A.png,hH,hH,mask-1.png,mask-4.png,s,0,0.5040000000735745,h,1,0.020855500013567507,0.04673679999541491,0.04855309997219592,0.09929110005032271,0.10155549994669855,0.29864010005258024
RSVPLG03,JM,20260304-093357,1.0.2,20251105-084826,783,Experiment,Both,1,Automatic,warmup,4,20260304-093432,global,local,300,S,H,A,E,S-A.png,E-H.png,sS,hH,mask-4.png,mask-2.png,s,1,0.5907570000272244,s,0,0.1353800999931991,0.04558129992801696,0.04505269997753203,0.09969149995595217,0.09809810004662722,0.30012429994530976
RSVPLG03,JM,20260304-093357,1.0.2,20251105-084826,783,Experiment,Both,1,Automatic,main,5,20260304-093437,local,local,300,S,H,E,A,E-S.png,A-H.png,sS,hH,mask-2.png,mask-2.png,s,1,0.4502970000030473,h,1,0.008938799961470068,0.04669600003398955,0.047705099917948246,0.09989610000047833,0.10031669994350523,0.29949130001477897
RSVPLG03,JM,20260304-093357,1.0.2,20251105-084826,783,Experiment,Both,1,Automatic,main,6,20260304-093441,global,global,300,S,S,E,A,S-E.png,S-A.png,sS,sS,mask-4.png,mask-3.png,s,1,0.4260024999966845,s,1,0.06799809995573014,0.04719189996831119,0.046948099974542856,0.10002310003619641,0.09988199989311397,0.3000617000507191
RSVPLG03,JM,20260304-093357,1.0.2,20251105-084826,783,Experiment,Both,1,Automatic,main,7,20260304-093445,global,global,750,S,S,E,A,S-E.png,S-A.png,sS,sS,mask-2.png,mask-4.png,s,1,0.3435564999235794,s,1,0.07311879994813353,0.047529099974781275,0.046784000005573034,0.10055299999658018,0.09980450000148267,0.7508451999165118
RSVPLG03,JM,20260304-093357,1.0.2,20251105-084826,783,Experiment,Both,1,Automatic,main,8,20260304-093449,local,global,300,H,H,A,E,A-H.png,H-E.png,hH,hH,mask-3.png,mask-4.png,h,1,0.4336747999768704,h,1,0.16988850000780076,0.04848969995509833,0.0474897000240162,0.100321099977009,0.09910280001349747,0.30055139993783087
RSVPLG03,JM,20260304-093357,1.0.2,20251105-084826,783,Experiment,Both,1,Automatic,main,9,20260304-093454,global,local,300,S,H,A,A,S-A.png,A-H.png,sS,hH,mask-1.png,mask-1.png,s,1,0.573960299952887,s,0,0.10510799998883158,0.046505500096827745,0.04761289991438389,0.09956730005796999,0.10103049990721047,0.29853810009080917
RSVPLG03,JM,20260304-093357,1.0.2,20251105-084826,783,Experiment,Both,1,Automatic,main,10,20260304-093458,local,local,750,S,H,A,E,A-S.png,E-H.png,sS,hH,mask-4.png,mask-2.png,s,1,0.37383290007710457,h,1,0.04973299999255687,0.047666899976320565,0.047656500013545156,0.09985729993786663,0.09983969992026687,0.749986800015904
RSVPLG03,JM,20260304-093357,1.0.2,20251105-084826,783,Experiment,Both,1,Automatic,main,11,20260304-093503,local,global,750,S,S,E,E,E-S.png,S-E.png,sS,sS,mask-2.png,mask-3.png,s,1,0.3262828999431804,s,1,0.07479780004359782,0.04766080004628748,0.04666640004143119,0.09973050002008677,0.09818600001744926,0.7503925999626517
RSVPLG03,JM,20260304-093357,1.0.2,20251105-084826,783,Experiment,Both,1,Automatic,main,12,20260304-093507,local,local,300,H,S,A,E,A-H.png,E-S.png,hH,sS,mask-4.png,mask-1.png,h,1,0.31967110000550747,s,1,0.4313978999853134,0.04750350001268089,0.04768289998173714,0.09960590000264347,0.09983319998718798,0.3007992999628186
RSVPLG03,JM,20260304-093357,1.0.2,20251105-084826,783,Experiment,Both,1,Automatic,main,13,20260304-093511,global,global,300,H,H,A,A,H-A.png,H-A.png,hH,hH,mask-4.png,mask-3.png,h,1,0.28165660006925464,h,1,0.10612709994893521,0.04750320001039654,0.04580819990951568,0.10050389997195452,0.09988329990301281,0.30076680006459355
RSVPLG03,JM,20260304-093357,1.0.2,20251105-084826,783,Experiment,Both,1,Automatic,main,14,20260304-093515,global,local,750,S,S,E,A,S-E.png,A-S.png,sS,sS,mask-4.png,mask-1.png,s,1,0.3322393000125885,s,1,0.052987399976700544,0.046982400002889335,0.049581300001591444,0.10087660001590848,0.10163270006887615,0.749504099949263
RSVPLG03,JM,20260304-093357,1.0.2,20251105-084826,783,Experiment,Both,1,Automatic,main,15,20260304-093520,global,global,750,H,S,A,E,H-A.png,S-E.png,hH,sS,mask-2.png,mask-4.png,h,1,0.35139570001047105,s,1,0.7186437000054866,0.04643079999368638,0.04751319997012615,0.09937940002419055,0.10154509998392314,0.7487090000649914
RSVPLG03,JM,20260304-093357,1.0.2,20251105-084826,783,Experiment,Both,1,Automatic,main,16,20260304-093525,global,local,300,H,H,A,A,H-A.png,A-H.png,hH,hH,mask-3.png,mask-3.png,h,1,0.31856809998862445,h,1,0.1149221999803558,0.047557199955917895,0.047013700008392334,0.09853529999963939,0.10001329996157438,0.30004889995325357
RSVPLG03,JM,20260304-093357,1.0.2,20251105-084826,783,Experiment,Both,1,Automatic,main,17,20260304-093529,local,local,750,S,S,E,A,E-S.png,A-S.png,sS,sS,mask-4.png,mask-2.png,s,1,0.34063750004861504,s,1,0.12006220000330359,0.04572819999884814,0.04775260004680604,0.09892350004520267,0.1020091000245884,0.748444200027734
RSVPLG03,JM,20260304-093357,1.0.2,20251105-084826,783,Experiment,Both,1,Automatic,main,18,20260304-093534,global,global,750,H,S,A,A,H-A.png,S-A.png,hH,sS,mask-4.png,mask-3.png,h,1,0.3148372999858111,s,1,0.07663789996877313,0.04767599992919713,0.0477120999712497,0.1006985999410972,0.09989679988939315,0.7505980000132695
RSVPLG03,JM,20260304-093357,1.0.2,20251105-084826,783,Experiment,Both,1,Automatic,main,19,20260304-093538,local,global,750,H,H,A,E,A-H.png,H-E.png,hH,hH,mask-3.png,mask-3.png,h,1,0.2729447999736294,h,1,0.14123249996919185,0.04694289993494749,0.04880860005505383,0.09928169997874647,0.10025120002683252,0.7494543999200687
RSVPLG03,JM,20260304-093357,1.0.2,20251105-084826,783,Experiment,Both,1,Automatic,main,20,20260304-093543,local,local,300,S,H,E,E,E-S.png,E-H.png,sS,hH,mask-2.png,mask-2.png,s,1,0.3598816000157967,s,0,0.1017230999423191,0.04803199996240437,0.04730470001231879,0.10004169994499534,0.10012350010219961,0.3002914999378845
RSVPLG03,JM,20260304-093357,1.0.2,20251105-084826,783,Experiment,Both,1,Automatic,main,21,20260304-093547,local,global,750,H,H,A,A,A-H.png,H-A.png,hH,hH,mask-1.png,mask-4.png,h,1,0.3084729000693187,h,1,0.12581670004874468,0.047936399932950735,0.04750620003324002,0.10001579998061061,0.09955130005255342,0.7518894999520853
RSVPLG03,JM,20260304-093357,1.0.2,20251105-084826,783,Experiment,Both,1,Automatic,main,22,20260304-093552,local,local,300,H,S,E,E,E-H.png,E-S.png,hH,sS,mask-2.png,mask-1.png,s,0,0.35200290009379387,s,1,0.05160760006401688,0.04750650003552437,0.04750470002181828,0.10091769997961819,0.09957840002607554,0.3012699999380857
RSVPLG03,JM,20260304-093357,1.0.2,20251105-084826,783,Experiment,Both,1,Automatic,main,23,20260304-093556,global,local,300,S,H,E,E,S-E.png,E-H.png,sS,hH,mask-4.png,mask-2.png,s,1,0.41352369997184724,s,0,0.059866299969144166,0.047723400057293475,0.04771779989823699,0.09934750001411885,0.09983199997805059,0.3001416000770405
RSVPLG03,JM,20260304-093357,1.0.2,20251105-084826,783,Experiment,Both,1,Automatic,main,24,20260304-093600,global,local,750,S,H,E,E,S-E.png,E-H.png,sS,hH,mask-4.png,mask-4.png,s,1,0.3035120000131428,s,0,0.10582319996319711,0.04737869999371469,0.04748680000193417,0.10020410001743585,0.099488899926655,0.7510644000722095
RSVPLG03,JM,20260304-093357,1.0.2,20251105-084826,783,Experiment,Both,1,Automatic,main,25,20260304-093604,local,global,300,S,S,E,A,E-S.png,S-A.png,sS,sS,mask-1.png,mask-3.png,s,1,0.34143760008737445,s,1,0.0696670999750495,0.047521400032565,0.04752409993670881,0.09952339995652437,0.09955809998791665,0.2997648000018671
RSVPLG03,JM,20260304-093357,1.0.2,20251105-084826,783,Experiment,Both,1,Automatic,main,26,20260304-093612,local,global,300,H,S,E,E,E-H.png,S-E.png,hH,sS,mask-1.png,mask-4.png,s,0,0.3911206000484526,s,1,0.1171559999929741,0.047552499920129776,0.047494799946434796,0.10150639992207289,0.10142520000226796,0.2999143999768421
RSVPLG03,JM,20260304-093357,1.0.2,20251105-084826,783,Experiment,Both,1,Automatic,main,27,20260304-093616,local,global,750,S,S,E,A,E-S.png,S-A.png,sS,sS,mask-2.png,mask-3.png,s,1,0.3663345000240952,s,1,0.1082262999843806,0.04739930003415793,0.04751879989635199,0.09853590000420809,0.10057779995258898,0.7501893000444397
RSVPLG03,JM,20260304-093357,1.0.2,20251105-084826,783,Experiment,Both,1,Automatic,main,28,20260304-093621,global,global,300,S,H,E,A,S-E.png,H-A.png,sS,hH,mask-4.png,mask-4.png,s,1,0.3616524999961257,h,1,0.07565790007356554,0.04570539994165301,0.047490399912931025,0.09976549993734807,0.09946890000719577,0.30002199998125434
RSVPLG03,JM,20260304-093357,1.0.2,20251105-084826,783,Experiment,Both,1,Automatic,main,29,20260304-093625,global,local,300,H,S,E,E,H-E.png,E-S.png,hH,sS,mask-3.png,mask-4.png,h,1,0.2168483000714332,s,1,0.07655410002917051,0.04725160007365048,0.04753430001437664,0.09825939999427646,0.10076589998789132,0.2984750000759959
RSVPLG03,JM,20260304-093357,1.0.2,20251105-084826,783,Experiment,Both,1,Automatic,main,30,20260304-093629,global,local,300,H,H,E,A,H-E.png,A-H.png,hH,hH,mask-2.png,mask-1.png,h,1,0.29136630007997155,h,1,0.09119050006847829,0.04734859999734908,0.04740979999769479,0.10031509993132204,0.10029370000120252,0.30029279994778335
RSVPLG03,JM,20260304-093357,1.0.2,20251105-084826,783,Experiment,Both,1,Automatic,main,31,20260304-093633,global,local,300,S,S,E,E,S-E.png,E-S.png,sS,sS,mask-4.png,mask-3.png,s,1,0.19425509998109192,s,1,0.062169999931938946,0.04752110003028065,0.04752849997021258,0.10156970005482435,0.10057829995639622,0.30091820005327463
RSVPLG03,JM,20260304-093357,1.0.2,20251105-084826,783,Experiment,Both,1,Automatic,main,32,20260304-093637,global,local,750,S,S,E,A,S-E.png,A-S.png,sS,sS,mask-3.png,mask-3.png,s,1,0.3185859000077471,s,1,0.072390399989672,0.04767030000220984,0.046664800029248,0.09985890006646514,0.09984809998422861,0.7502800000365824
RSVPLG03,JM,20260304-093357,1.0.2,20251105-084826,783,Experiment,Both,1,Automatic,main,33,20260304-093641,global,global,750,S,H,A,A,S-A.png,H-A.png,sS,hH,mask-1.png,mask-4.png,s,1,0.3041573000373319,h,1,0.694463900057599,0.04756500001531094,0.048557600006461143,0.10161880007945001,0.10159900004509836,0.7502422999823466
RSVPLG03,JM,20260304-093357,1.0.2,20251105-084826,783,Experiment,Both,1,Automatic,main,34,20260304-093646,local,global,750,H,S,A,E,A-H.png,S-E.png,hH,sS,mask-1.png,mask-2.png,h,1,0.31492680008523166,s,1,0.5707229999825358,0.045912700006738305,0.047563300002366304,0.10007649997714907,0.10138959996402264,0.7487833000486717
RSVPLG03,JM,20260304-093357,1.0.2,20251105-084826,783,Experiment,Both,1,Automatic,main,35,20260304-093651,local,global,750,H,H,E,E,E-H.png,H-E.png,hH,hH,mask-3.png,mask-2.png,s,0,0.35320100001990795,h,1,0.6849509000312537,0.04744629992637783,0.048634400009177625,0.09844109998084605,0.10164160002022982,0.7488911999389529
RSVPLG03,JM,20260304-093357,1.0.2,20251105-084826,783,Experiment,Both,1,Automatic,main,36,20260304-093656,global,local,750,S,H,E,A,S-E.png,A-H.png,sS,hH,mask-2.png,mask-1.png,s,1,0.852156599983573,h,1,0.1889396000187844,0.048688000068068504,0.047865199972875416,0.10174489999189973,0.10055969993118197,0.7503167000832036
RSVPLG03,JM,20260304-093357,1.0.2,20251105-084826,783,Experiment,Both,1,Automatic,main,37,20260304-093702,local,local,300,H,H,E,A,E-H.png,A-H.png,hH,hH,mask-3.png,mask-3.png,s,0,0.4340107999742031,s,0,0.0863609000807628,0.047933700028806925,0.046766099985688925,0.10108739999122918,0.09817190002650023,0.30135039996821433
RSVPLG03,JM,20260304-093357,1.0.2,20251105-084826,783,Experiment,Both,1,Automatic,main,38,20260304-093706,local,local,300,S,H,E,A,E-S.png,A-H.png,sS,hH,mask-4.png,mask-1.png,s,1,0.33635820006020367,h,1,0.620272499974817,0.04720390005968511,0.04718330001924187,0.1002237000502646,0.09999790007714182,0.2999738999642432
RSVPLG03,JM,20260304-093357,1.0.2,20251105-084826,783,Experiment,Both,1,Automatic,main,39,20260304-093710,local,local,300,S,H,A,A,A-S.png,A-H.png,sS,hH,mask-1.png,mask-1.png,h,0,0.35168049996718764,h,1,0.1348271999740973,0.04748850001487881,0.04859009990468621,0.10054330003913492,0.10068859998136759,0.2995249000377953
RSVPLG03,JM,20260304-093357,1.0.2,20251105-084826,783,Experiment,Both,1,Automatic,main,40,20260304-093715,global,global,300,S,H,E,A,S-E.png,H-A.png,sS,hH,mask-3.png,mask-1.png,s,1,0.24432329996488988,h,1,0.10754770005587488,0.04772550007328391,0.047681599971838295,0.09912310005165637,0.09984210005495697,0.2996605000225827
RSVPLG03,JM,20260304-093357,1.0.2,20251105-084826,783,Experiment,Both,1,Automatic,main,41,20260304-093719,local,global,300,S,H,E,A,E-S.png,H-A.png,sS,hH,mask-3.png,mask-1.png,s,1,0.2768600999843329,h,1,0.08922209998127073,0.04781780007760972,0.04762029997073114,0.10075910005252808,0.09960910002700984,0.301148800062947
RSVPLG03,JM,20260304-093357,1.0.2,20251105-084826,783,Experiment,Both,1,Automatic,main,42,20260304-093723,global,local,750,H,S,A,A,H-A.png,A-S.png,hH,sS,mask-2.png,mask-4.png,h,1,0.46020069997757673,h,0,0.25132299994584173,0.04771379998419434,0.047548400005325675,0.09992690000217408,0.0997880999930203,0.7500774000072852
RSVPLG03,JM,20260304-093357,1.0.2,20251105-084826,783,Experiment,Both,1,Automatic,main,43,20260304-093728,global,global,300,S,H,E,A,S-E.png,H-A.png,sS,hH,mask-1.png,mask-3.png,s,1,0.2404884999850765,h,1,0.08433149999473244,0.04847699997480959,0.04861759999766946,0.10163659998215735,0.10078410001005977,0.3009831999661401
RSVPLG03,JM,20260304-093357,1.0.2,20251105-084826,783,Experiment,Both,1,Automatic,main,44,20260304-093732,local,local,750,S,S,A,A,A-S.png,A-S.png,sS,sS,mask-4.png,mask-3.png,h,0,0.6847738999640569,s,1,0.08918609993997961,0.046858100104145706,0.047823800006881356,0.10002800007350743,0.10111280006822199,0.7491889999946579
RSVPLG03,JM,20260304-093357,1.0.2,20251105-084826,783,Experiment,Both,1,Automatic,main,45,20260304-093737,global,local,300,S,H,E,A,S-E.png,A-H.png,sS,hH,mask-4.png,mask-1.png,s,1,0.30350879998877645,h,1,0.5983528000069782,0.04765870003029704,0.04748710000421852,0.09984090004581958,0.09957070008385926,0.2994051999412477
RSVPLG03,JM,20260304-093357,1.0.2,20251105-084826,783,Experiment,Both,1,Automatic,main,46,20260304-093741,local,local,750,S,S,E,A,E-S.png,A-S.png,sS,sS,mask-1.png,mask-1.png,s,1,0.6879803999327123,s,1,0.1724972000811249,0.045665199984796345,0.047678599948994815,0.09983930003363639,0.0998303999658674,0.7485387000488117
RSVPLG03,JM,20260304-093357,1.0.2,20251105-084826,783,Experiment,Both,1,Automatic,main,47,20260304-093746,local,local,750,H,S,A,E,A-H.png,E-S.png,hH,sS,mask-3.png,mask-3.png,h,1,0.5015341000398621,s,1,0.20213150000199676,0.04893430008087307,0.047507000039331615,0.09997900004964322,0.09957419999409467,0.752026200061664
RSVPLG03,JM,20260304-093357,1.0.2,20251105-084826,783,Experiment,Both,1,Automatic,main,48,20260304-093751,local,local,300,H,H,E,A,E-H.png,A-H.png,hH,hH,mask-4.png,mask-1.png,s,0,0.4486066000536084,s,0,0.10464710008818656,0.04767810006160289,0.0485331000527367,0.09985750005580485,0.10148589999880642,0.29846610000822693
RSVPLG03,JM,20260304-093357,1.0.2,20251105-084826,783,Experiment,Both,1,Automatic,main,49,20260304-093756,global,global,300,H,S,E,E,H-E.png,S-E.png,hH,sS,mask-4.png,mask-2.png,h,1,0.46112969995010644,s,1,0.09287569997832179,0.04753910005092621,0.04854049999266863,0.09855870006140321,0.0996207999996841,0.29894910007715225
RSVPLG03,JM,20260304-093357,1.0.2,20251105-084826,783,Experiment,Both,1,Automatic,main,50,20260304-093800,global,global,750,H,S,E,E,H-E.png,S-E.png,hH,sS,mask-4.png,mask-3.png,h,1,0.541001999983564,s,1,0.6242971000028774,0.0475281000835821,0.047520300024189055,0.0995147000066936,0.099538299953565,0.7501409000251442
RSVPLG03,JM,20260304-093357,1.0.2,20251105-084826,783,Experiment,Both,1,Automatic,main,51,20260304-093806,global,local,300,S,H,E,E,S-E.png,E-H.png,sS,hH,mask-1.png,mask-3.png,s,1,0.2498881999636069,s,0,0.14740499993786216,0.047692200052551925,0.04657290002796799,0.10020660003647208,0.09843140002340078,0.30092940002214164
RSVPLG03,JM,20260304-093357,1.0.2,20251105-084826,783,Experiment,Both,1,Automatic,main,52,20260304-093810,global,local,750,S,H,E,E,S-E.png,E-H.png,sS,hH,mask-2.png,mask-4.png,s,1,0.36552219989243895,s,0,0.1179892000509426,0.04763479996472597,0.04765439999755472,0.09985130000859499,0.09815009997691959,0.7517535999650136
RSVPLG03,JM,20260304-093357,1.0.2,20251105-084826,783,Experiment,Both,1,Automatic,main,53,20260304-093815,global,local,300,S,S,A,E,S-A.png,E-S.png,sS,sS,mask-3.png,mask-4.png,s,1,0.5415919999359176,s,1,0.4418980999616906,0.04771770001389086,0.04600099998060614,0.09992579999379814,0.10023049998562783,0.29953049996402115
RSVPLG03,JM,20260304-093357,1.0.2,20251105-084826,783,Experiment,Both,1,Automatic,main,54,20260304-093820,global,local,750,S,H,A,E,S-A.png,E-H.png,sS,hH,mask-4.png,mask-1.png,s,1,0.3580374999437481,s,0,0.11751080001704395,0.04690940002910793,0.04738899995572865,0.09809089999180287,0.10004199994727969,0.7494605000829324
RSVPLG03,JM,20260304-093357,1.0.2,20251105-084826,783,Experiment,Both,1,Automatic,main,55,20260304-093824,local,global,300,S,S,A,A,A-S.png,S-A.png,sS,sS,mask-4.png,mask-3.png,s,1,0.21154839999508113,s,1,0.08640090003609657,0.047420699964277446,0.046595699968747795,0.09886979998555034,0.09982799994759262,0.30056190001778305
RSVPLG03,JM,20260304-093357,1.0.2,20251105-084826,783,Experiment,Both,1,Automatic,main,56,20260304-093828,local,global,300,S,S,A,A,A-S.png,S-A.png,sS,sS,mask-3.png,mask-3.png,s,1,0.44920229993294924,s,1,0.0916404000017792,0.04846150008961558,0.04744540003594011,0.09963210008572787,0.0995041000423953,0.30131520004943013
RSVPLG03,JM,20260304-093357,1.0.2,20251105-084826,783,Experiment,Both,1,Automatic,main,57,20260304-093832,global,global,750,S,S,E,E,S-E.png,S-E.png,sS,sS,mask-1.png,mask-2.png,s,1,0.43329029995948076,s,1,0.132993399980478,0.04749400005675852,0.04747240000870079,0.10104410001076758,0.09918749995995313,0.7511263000778854
RSVPLG03,JM,20260304-093357,1.0.2,20251105-084826,783,Experiment,Both,1,Automatic,main,58,20260304-093837,local,global,750,S,S,A,E,A-S.png,S-E.png,sS,sS,mask-2.png,mask-2.png,s,1,0.9665656000142917,s,1,0.07039810006972402,0.047607499989680946,0.04653020005207509,0.09962220001034439,0.1003408000105992,0.7510620999382809
RSVPLG03,JM,20260304-093357,1.0.2,20251105-084826,783,Experiment,Both,1,Automatic,main,59,20260304-093842,local,local,300,H,S,E,E,E-H.png,E-S.png,hH,sS,mask-1.png,mask-3.png,s,0,0.7692206000210717,s,1,0.10023289988748729,0.04730320000089705,0.04722469998523593,0.10031709994655102,0.09984349994920194,0.30018789996393025
RSVPLG03,JM,20260304-093357,1.0.2,20251105-084826,783,Experiment,Both,1,Automatic,main,60,20260304-093847,local,global,300,S,H,E,A,E-S.png,H-A.png,sS,hH,mask-4.png,mask-1.png,s,1,0.6094768999610096,h,1,0.07627760001923889,0.04557760001625866,0.0474825999699533,0.09972089994698763,0.10054849996231496,0.29994639998767525
RSVPLG03,JM,20260304-093357,1.0.2,20251105-084826,783,Experiment,Both,1,Automatic,main,61,20260304-093851,global,global,750,H,H,E,A,H-E.png,H-A.png,hH,hH,mask-1.png,mask-3.png,h,1,0.44961510004941374,h,1,0.11948740005027503,0.04847469995729625,0.04686190001666546,0.10043720004614443,0.09990480006672442,0.7507775999838486
RSVPLG03,JM,20260304-093357,1.0.2,20251105-084826,783,Experiment,Both,1,Automatic,main,62,20260304-093856,local,global,750,S,S,A,A,A-S.png,S-A.png,sS,sS,mask-2.png,mask-2.png,h,0,0.9001088000368327,s,1,0.17130799998994917,0.0475021000020206,0.04749940009787679,0.09957520000170916,0.10048620007000864,0.7497732999036089
RSVPLG03,JM,20260304-093357,1.0.2,20251105-084826,783,Experiment,Both,1,Automatic,main,63,20260304-093901,global,local,750,H,H,A,E,H-A.png,E-H.png,hH,hH,mask-3.png,mask-3.png,h,1,0.4491367000155151,h,1,0.12296810001134872,0.04744500003289431,0.04704629990737885,0.10054340003989637,0.09948510001413524,0.7504966000560671
RSVPLG03,JM,20260304-093357,1.0.2,20251105-084826,783,Experiment,Both,1,Automatic,main,64,20260304-093905,local,local,750,S,H,E,E,E-S.png,E-H.png,sS,hH,mask-3.png,mask-4.png,s,1,0.4108123000478372,s,0,0.11944550008047372,0.04579770006239414,0.04752130003180355,0.09994650003500283,0.10057190002407879,0.7496920999838039
RSVPLG03,JM,20260304-093357,1.0.2,20251105-084826,783,Experiment,Both,1,Automatic,main,65,20260304-093910,local,global,300,H,S,E,E,E-H.png,S-E.png,hH,sS,mask-1.png,mask-3.png,s,0,0.47117410006467253,h,0,0.1225859000114724,0.04763990000355989,0.04823690000921488,0.09982459992170334,0.09945760003756732,0.30047739995643497
RSVPLG03,JM,20260304-093357,1.0.2,20251105-084826,783,Experiment,Both,1,Automatic,main,66,20260304-093914,global,global,300,S,H,A,A,S-A.png,H-A.png,sS,hH,mask-4.png,mask-2.png,s,1,0.4911527999211103,h,1,0.07829039997886866,0.04848689993377775,0.04751529998611659,0.10041249997448176,0.10054649994708598,0.3004726000363007
RSVPLG03,JM,20260304-093357,1.0.2,20251105-084826,783,Experiment,Both,1,Automatic,main,67,20260304-093919,global,global,300,H,S,E,A,H-E.png,S-A.png,hH,sS,mask-3.png,mask-4.png,h,1,0.3106664000079036,s,1,0.09317530004773289,0.0473541000392288,0.047589699970558286,0.10018960002344102,0.1007617999566719,0.300160099985078
RSVPLG03,JM,20260304-093357,1.0.2,20251105-084826,783,Experiment,Both,1,Automatic,main,68,20260304-093923,global,local,750,S,H,A,A,S-A.png,A-H.png,sS,hH,mask-2.png,mask-4.png,s,1,0.3989371999632567,h,1,0.08865119994152337,0.0476610999321565,0.047667300095781684,0.09987459995318204,0.09972630010452121,0.7498823999194428
RSVPLG03,JM,20260304-093357,1.0.2,20251105-084826,783,Experiment,Both,1,Automatic,main,69,20260304-093927,global,global,300,S,S,E,A,S-E.png,S-A.png,sS,sS,mask-2.png,mask-4.png,s,1,0.45952609996311367,s,1,0.08420100004877895,0.0476923999376595,0.0477309999987483,0.0990591999143362,0.09992529998999089,0.2994968999410048
RSVPLG03,JM,20260304-093357,1.0.2,20251105-084826,783,Experiment,Both,1,Automatic,main,70,20260304-093931,local,local,750,S,S,E,E,E-S.png,E-S.png,sS,sS,mask-4.png,mask-2.png,s,1,0.2999997000442818,s,1,0.09233609994407743,0.04731319996062666,0.047650800086557865,0.09851289994549006,0.09992720000445843,0.7488462999463081
RSVPLG03,JM,20260304-093357,1.0.2,20251105-084826,783,Experiment,Both,1,Automatic,main,71,20260304-093936,global,global,300,H,H,A,E,H-A.png,H-E.png,hH,hH,mask-3.png,mask-3.png,h,1,0.3126816999865696,h,1,0.12502750009298325,0.04652540001552552,0.047510000062175095,0.099589699995704,0.09952859999611974,0.29996879992540926
RSVPLG03,JM,20260304-093357,1.0.2,20251105-084826,783,Experiment,Both,1,Automatic,main,72,20260304-093940,local,local,750,H,H,A,E,A-H.png,E-H.png,hH,hH,mask-4.png,mask-3.png,h,1,0.5123642000835389,h,1,0.09327399998437613,0.04759860003832728,0.0475838000420481,0.09970769996289164,0.09962630004156381,0.7502094999654219
RSVPLG03,JM,20260304-093357,1.0.2,20251105-084826,783,Experiment,Both,1,Automatic,main,73,20260304-093945,local,global,750,S,H,A,E,A-S.png,H-E.png,sS,hH,mask-2.png,mask-3.png,h,0,0.25467459997162223,h,1,0.09207659994717687,0.04656820010859519,0.047506800037808716,0.09954020008444786,0.10157709999475628,0.7492558000376448
RSVPLG03,JM,20260304-093357,1.0.2,20251105-084826,783,Experiment,Both,1,Automatic,main,74,20260304-093949,local,global,750,S,S,E,A,E-S.png,S-A.png,sS,sS,mask-2.png,mask-3.png,s,1,0.9111533999675885,s,1,0.13158580008894205,0.047656400012783706,0.047964399913325906,0.09987849998287857,0.10037299990653992,0.7499035000801086
RSVPLG03,JM,20260304-093357,1.0.2,20251105-084826,783,Experiment,Both,1,Automatic,main,75,20260304-093954,local,local,300,S,H,A,A,A-S.png,A-H.png,sS,hH,mask-3.png,mask-2.png,h,0,0.21349009999539703,h,1,0.08425159996841103,0.04744600004050881,0.04752880008891225,0.10065150004811585,0.09958610008470714,0.3000375999836251
RSVPLG03,JM,20260304-093357,1.0.2,20251105-084826,783,Experiment,Both,1,Automatic,main,76,20260304-093959,global,global,750,H,H,E,A,H-E.png,H-A.png,hH,hH,mask-4.png,mask-2.png,h,1,0.23925929993856698,h,1,0.11944280005991459,0.048612199956551194,0.046128900023177266,0.10064279998186976,0.100204800022766,0.7511032000184059
RSVPLG03,JM,20260304-093357,1.0.2,20251105-084826,783,Experiment,Both,1,Automatic,main,77,20260304-094003,global,local,750,S,S,E,E,S-E.png,E-S.png,sS,sS,mask-2.png,mask-3.png,s,1,0.35559399996418506,s,1,0.12285299994982779,0.048455100040882826,0.04750059999059886,0.10109160002321005,0.10017709992825985,0.7505638001020998
RSVPLG03,JM,20260304-093357,1.0.2,20251105-084826,783,Experiment,Both,1,Automatic,main,78,20260304-094008,local,global,300,S,H,A,E,A-S.png,H-E.png,sS,hH,mask-4.png,mask-1.png,h,0,0.3294210000894964,h,1,0.10396630002651364,0.0472915000282228,0.04755030001979321,0.10017879994120449,0.10043160000350326,0.29986589995678514
RSVPLG03,JM,20260304-093357,1.0.2,20251105-084826,783,Experiment,Both,1,Automatic,main,79,20260304-094012,local,local,300,S,S,E,A,E-S.png,A-S.png,sS,sS,mask-2.png,mask-2.png,s,1,0.16246789996512234,s,1,0.07250130001921207,0.04652970004826784,0.04752969997934997,0.09962270001415163,0.09886260004714131,0.29992300004232675
RSVPLG03,JM,20260304-093357,1.0.2,20251105-084826,783,Experiment,Both,1,Automatic,main,80,20260304-094016,local,global,300,S,H,E,E,E-S.png,H-E.png,sS,hH,mask-3.png,mask-4.png,s,1,0.22024510009214282,s,0,0.10682950005866587,0.04770640004426241,0.04766629997175187,0.0999117000028491,0.09986429999116808,0.29954810009803623
RSVPLG03,JM,20260304-093357,1.0.2,20251105-084826,783,Experiment,Both,1,Automatic,main,81,20260304-094020,global,global,750,S,H,A,E,S-A.png,H-E.png,sS,hH,mask-2.png,mask-1.png,s,1,0.3277046999428421,h,1,0.037803599960170686,0.04762470000423491,0.04761000000871718,0.1000092999311164,0.09877449995838106,0.7499937999527901
RSVPLG03,JM,20260304-093357,1.0.2,20251105-084826,783,Experiment,Both,1,Automatic,main,82,20260304-094024,local,local,750,S,H,E,E,E-S.png,E-H.png,sS,hH,mask-2.png,mask-2.png,s,1,0.37431730004027486,s,0,0.8912077000131831,0.04613280005287379,0.04665819997899234,0.09858340001665056,0.09809989994391799,0.7500701000681147
RSVPLG03,JM,20260304-093357,1.0.2,20251105-084826,783,Experiment,Both,1,Automatic,main,83,20260304-094030,global,local,300,S,H,A,A,S-A.png,A-H.png,sS,hH,mask-3.png,mask-3.png,s,1,0.3254525999072939,h,1,0.05409459990914911,0.04792649997398257,0.045813500066287816,0.1010791000444442,0.10007480008061975,0.3006495999870822
RSVPLG03,JM,20260304-093357,1.0.2,20251105-084826,783,Experiment,Both,1,Automatic,main,84,20260304-094034,global,local,300,S,H,A,E,S-A.png,E-H.png,sS,hH,mask-2.png,mask-4.png,s,1,0.3159455999266356,s,0,0.24384250002913177,0.048692600103095174,0.047655000002123415,0.10086370003409684,0.09985230001620948,0.30077309999614954
RSVPLG03,JM,20260304-093357,1.0.2,20251105-084826,783,Experiment,Both,1,Automatic,main,85,20260304-094038,local,local,750,H,H,E,E,E-H.png,E-H.png,hH,hH,mask-4.png,mask-4.png,s,0,0.30190960003528744,s,0,0.08593499998096377,0.04604169994127005,0.04752329993061721,0.09933829994406551,0.09964049991685897,0.7498634000075981
RSVPLG03,JM,20260304-093357,1.0.2,20251105-084826,783,Experiment,Both,1,Automatic,main,86,20260304-094043,local,global,300,H,H,E,E,E-H.png,H-E.png,hH,hH,mask-1.png,mask-4.png,h,1,0.5769701999379322,h,1,0.10200299997814,0.04750300000887364,0.04749420005828142,0.09888730000238866,0.09950210002716631,0.3002208999823779
RSVPLG03,JM,20260304-093357,1.0.2,20251105-084826,783,Experiment,Both,1,Automatic,main,87,20260304-094047,global,local,750,S,S,E,A,S-E.png,A-S.png,sS,sS,mask-2.png,mask-4.png,s,1,0.47351749998051673,s,1,0.05570649995934218,0.04685239994432777,0.04852249997202307,0.0999733000062406,0.09968790004495531,0.7499642999609932
RSVPLG03,JM,20260304-093357,1.0.2,20251105-084826,783,Experiment,Both,1,Automatic,main,88,20260304-094052,local,local,750,S,H,A,E,A-S.png,E-H.png,sS,hH,mask-1.png,mask-1.png,s,1,0.410331999999471,s,0,0.07605510007124394,0.047309900051914155,0.0483774000313133,0.10148149996530265,0.09941480006091297,0.7512038999702781
RSVPLG03,JM,20260304-093357,1.0.2,20251105-084826,783,Experiment,Both,1,Automatic,main,89,20260304-094057,local,global,300,S,S,E,A,E-S.png,S-A.png,sS,sS,mask-4.png,mask-1.png,s,1,0.8407472999533638,s,1,0.08617180003784597,0.047489300020970404,0.047241799999028444,0.1004965000320226,0.09949010005220771,0.30042059998959303
RSVPLG03,JM,20260304-093357,1.0.2,20251105-084826,783,Experiment,Both,1,Automatic,main,90,20260304-094101,global,global,300,H,S,E,E,H-E.png,S-E.png,hH,sS,mask-1.png,mask-2.png,h,1,0.25907499995082617,h,0,0.10142119997180998,0.048508700099773705,0.04749430005904287,0.09994880005251616,0.09878400003071874,0.301312500028871
RSVPLG03,JM,20260304-093357,1.0.2,20251105-084826,783,Experiment,Both,1,Automatic,main,91,20260304-094105,local,local,750,H,H,E,E,E-H.png,E-H.png,hH,hH,mask-2.png,mask-2.png,s,0,0.5557448000181466,s,0,0.08397440006956458,0.04858869989402592,0.04772549995686859,0.1005820999853313,0.09944759996142238,0.7520699999295175
RSVPLG03,JM,20260304-093357,1.0.2,20251105-084826,783,Experiment,Both,1,Automatic,main,92,20260304-094110,global,global,750,H,S,E,A,H-E.png,S-A.png,hH,sS,mask-4.png,mask-4.png,h,1,0.5581511999480426,h,0,0.2041351000079885,0.048597499961033463,0.047497999970801175,0.10051819996442646,0.09949709998909384,0.7506128000095487
RSVPLG03,JM,20260304-093357,1.0.2,20251105-084826,783,Experiment,Both,1,Automatic,main,93,20260304-094115,global,local,300,S,H,E,E,S-E.png,E-H.png,sS,hH,mask-4.png,mask-2.png,s,1,0.44001120002940297,h,1,0.13965670007746667,0.046972300042398274,0.04672099999152124,0.10030140005983412,0.09909130004234612,0.3008870000485331
RSVPLG03,JM,20260304-093357,1.0.2,20251105-084826,783,Experiment,Both,1,Automatic,main,94,20260304-094119,local,global,750,H,H,E,E,E-H.png,H-E.png,hH,hH,mask-2.png,mask-3.png,s,0,0.9245612999657169,h,1,0.027867999975569546,0.0476693999953568,0.04721470002550632,0.09984749997965991,0.10047399997711182,0.7494862000457942
RSVPLG03,JM,20260304-093357,1.0.2,20251105-084826,783,Experiment,Both,1,Automatic,main,95,20260304-094125,local,local,300,H,S,E,E,E-H.png,E-S.png,hH,sS,mask-4.png,mask-4.png,s,0,0.36402529990300536,h,0,0.07313919998705387,0.04687299998477101,0.04749879997689277,0.09866000001784414,0.09953830006998032,0.2999310999875888
RSVPLG03,JM,20260304-093357,1.0.2,20251105-084826,783,Experiment,Both,1,Automatic,main,96,20260304-094129,global,global,750,H,S,E,A,H-E.png,S-A.png,hH,sS,mask-1.png,mask-4.png,h,1,0.309914999990724,h,0,0.1172427999554202,0.04749110003467649,0.04697090003173798,0.10050010005943477,0.10028380004223436,0.7497774000512436
RSVPLG03,JM,20260304-093357,1.0.2,20251105-084826,783,Experiment,Both,1,Automatic,main,97,20260304-094133,global,global,300,S,S,A,A,S-A.png,S-A.png,sS,sS,mask-1.png,mask-3.png,s,1,0.3688614999409765,s,1,0.09151830000337213,0.04829859989695251,0.049246300011873245,0.10035109997261316,0.10027590009849519,0.30002609989605844
RSVPLG03,JM,20260304-093357,1.0.2,20251105-084826,783,Experiment,Both,1,Automatic,main,98,20260304-094138,global,local,750,H,H,E,A,H-E.png,A-H.png,hH,hH,mask-1.png,mask-2.png,h,1,0.3161915000528097,h,1,0.1319130000192672,0.04845839994959533,0.047733700019307435,0.1004678999306634,0.09924540005158633,0.7506966999499127
RSVPLG03,JM,20260304-093357,1.0.2,20251105-084826,783,Experiment,Both,1,Automatic,main,99,20260304-094142,global,global,750,S,S,A,A,S-A.png,S-A.png,sS,sS,mask-3.png,mask-4.png,s,1,0.6779618000146002,s,1,0.07498090004082769,0.048579900059849024,0.047503900015726686,0.10058040008880198,0.09949319995939732,0.7510724000167102
RSVPLG03,JM,20260304-093357,1.0.2,20251105-084826,783,Experiment,Both,1,Automatic,main,100,20260304-094147,local,global,750,S,H,E,E,E-S.png,H-E.png,sS,hH,mask-2.png,mask-4.png,s,1,0.35589050000999123,h,1,0.0343259999062866,0.04672960005700588,0.04748589999508113,0.10084389999974519,0.09883119992446154,0.7504511000588536
