exp,exp_initials,runtime,ver,modtime,sub,blocktype,targets,cuetype,mode,trialtype,trial,trialtime,t1_level,t2_level,t2_lag,t1,t2,distractor1,distractor2,stimfile1,stimfile2,t1_corr,t2_corr,maskfile1,maskfile2,t1_resp,t1_acc,t1_rt,t2_resp,t2_acc,t2_rt,t1_dur,t2_dur,t1mask_soa,t2mask_soa,t1t2_soa
RSVPLG03,si,20260319-155157,1.0.2,20260219-152011,808,Introduction,T1,1,Automatic,main,1,20260319-155224,global,global,750,S,S,E,A,S-E.png,S-A.png,sS,sS,mask-4.png,mask-4.png,s,1,1.026625200000126,none,-5,0,0.09261720001813956,0.10157410000101663,0.19265989999985322,0.20058249999419786,0.7406867000099737
RSVPLG03,si,20260319-155157,1.0.2,20260219-152011,808,Introduction,T1,1,Automatic,main,2,20260319-155229,local,global,750,H,H,A,A,A-H.png,H-A.png,hH,hH,mask-4.png,mask-2.png,h,1,1.768271899985848,none,-5,0,0.09865090000675991,0.09834050000063144,0.20060869998997077,0.19951330000185408,0.7496555999969132
RSVPLG03,si,20260319-155157,1.0.2,20260219-152011,808,Introduction,T1,1,Automatic,main,3,20260319-155235,local,local,750,H,H,E,A,E-H.png,A-H.png,hH,hH,mask-2.png,mask-2.png,h,1,1.6767619000165723,none,-5,0,0.09889600001042709,0.0986302999954205,0.19846850002068095,0.1989641000109259,0.7484348000143655
RSVPLG03,si,20260319-155157,1.0.2,20260219-152011,808,Introduction,T1,1,Automatic,main,4,20260319-155241,local,local,750,H,S,E,A,E-H.png,A-S.png,hH,sS,mask-4.png,mask-2.png,h,1,2.6176462000003085,none,-5,0,0.10118240001611412,0.1001754000026267,0.20001309999497607,0.20000460001756437,0.7499565999896731
RSVPLG03,si,20260319-155157,1.0.2,20260219-152011,808,Introduction,T1,1,Automatic,main,5,20260319-155247,global,global,750,S,H,A,A,S-A.png,H-A.png,sS,hH,mask-3.png,mask-4.png,s,1,3.4920272000017576,none,-5,0,0.09833310000249185,0.1016929000033997,0.19730470000649802,0.20171850000042468,0.7458294999960344
RSVPLG03,si,20260319-155157,1.0.2,20260219-152011,808,Introduction,T1,1,Automatic,main,6,20260319-155255,global,local,750,H,H,A,E,H-A.png,E-H.png,hH,hH,mask-2.png,mask-4.png,h,1,2.340203500003554,none,-5,0,0.0997514000046067,0.10033370001474395,0.1986378000001423,0.19949369999812916,0.7481330999871716
RSVPLG03,si,20260319-155157,1.0.2,20260219-152011,808,Introduction,T1,1,Automatic,main,7,20260319-155302,global,global,750,H,S,A,E,H-A.png,S-E.png,hH,sS,mask-3.png,mask-4.png,s,0,0.7991436000156682,none,-5,0,0.10142910000286065,0.09997810001368634,0.20017379999626428,0.20055549999233335,0.7482789999921806
RSVPLG03,si,20260319-155157,1.0.2,20260219-152011,808,Introduction,T1,1,Automatic,main,8,20260319-155307,local,local,750,S,S,E,A,E-S.png,A-S.png,sS,sS,mask-3.png,mask-1.png,s,1,0.8721214999968652,none,-5,0,0.10090600000694394,0.10034129998530261,0.20045720000052825,0.1990032999892719,0.7509271000162698
RSVPLG03,si,20260319-155157,1.0.2,20260219-152011,808,Introduction,T1,1,Automatic,main,9,20260319-155312,global,local,750,S,H,E,A,S-E.png,A-H.png,sS,hH,mask-1.png,mask-2.png,s,1,0.9545127999735996,none,-5,0,0.10076590001699515,0.10002549999626353,0.20093369999085553,0.20142789999954402,0.748620900005335
RSVPLG03,si,20260319-155157,1.0.2,20260219-152011,808,Introduction,T1,1,Automatic,main,10,20260319-155317,global,local,750,S,S,E,A,S-E.png,A-S.png,sS,sS,mask-3.png,mask-3.png,s,1,1.2543078000016976,none,-5,0,0.10056730001815595,0.1009360000025481,0.20020260001183487,0.20178470000973903,0.7483328999951482
RSVPLG03,si,20260319-155157,1.0.2,20260219-152011,808,Introduction,T1,1,Automatic,main,11,20260319-155322,local,local,750,S,H,A,E,A-S.png,E-H.png,sS,hH,mask-2.png,mask-2.png,s,1,0.696866999991471,none,-5,0,0.10015899999416433,0.09905209997668862,0.20074790000217035,0.19945089999237098,0.749838500021724
RSVPLG03,si,20260319-155157,1.0.2,20260219-152011,808,Introduction,T1,1,Automatic,main,12,20260319-155327,local,global,750,S,S,A,E,A-S.png,S-E.png,sS,sS,mask-4.png,mask-2.png,none,-6,0,none,-5,0,0.09855970001081005,0.10033259997726418,0.1986073000007309,0.1992669999890495,0.7484963000169955
RSVPLG03,si,20260319-155342,1.0.2,20260219-152011,808,Practice,T1,1,Automatic,main,1,20260319-155359,global,global,300,S,H,E,A,S-E.png,H-A.png,sS,hH,mask-2.png,mask-3.png,s,1,3.55757169998833,none,-5,0,0.05057160000433214,0.047533600009046495,0.10059630000614561,0.09813520000898279,0.30316929999389686
RSVPLG03,si,20260319-155342,1.0.2,20260219-152011,808,Practice,T1,1,Automatic,main,2,20260319-155406,local,global,750,H,H,A,A,A-H.png,H-A.png,hH,hH,mask-4.png,mask-3.png,h,1,1.591233100014506,none,-5,0,0.05062080000061542,0.051818200008710846,0.10050900001078844,0.1008282000257168,0.7513742999872193
RSVPLG03,si,20260319-155342,1.0.2,20260219-152011,808,Practice,T1,1,Automatic,main,3,20260319-155412,local,local,300,S,S,A,E,A-S.png,E-S.png,sS,sS,mask-2.png,mask-4.png,s,1,1.6695971000008285,none,-5,0,0.05469650001032278,0.050790099980076775,0.10045080000418238,0.10026559999096207,0.3012188000138849
RSVPLG03,si,20260319-155342,1.0.2,20260219-152011,808,Practice,T1,1,Automatic,main,4,20260319-155417,global,local,750,H,H,A,E,H-A.png,E-H.png,hH,hH,mask-2.png,mask-3.png,h,1,1.5982504000130575,none,-5,0,0.0500795999832917,0.05103360000066459,0.10013559999060817,0.1009728999924846,0.7516854999994393
RSVPLG03,si,20260319-155342,1.0.2,20260219-152011,808,Practice,T1,1,Automatic,main,5,20260319-155423,local,global,300,S,S,E,E,E-S.png,S-E.png,sS,sS,mask-4.png,mask-1.png,s,1,0.5002137999981642,none,-5,0,0.04885469999862835,0.04953600000590086,0.09789749997435138,0.10203720000572503,0.29919399999198504
RSVPLG03,si,20260319-155342,1.0.2,20260219-152011,808,Practice,T1,1,Automatic,main,6,20260319-155427,local,local,750,H,H,A,E,A-H.png,E-H.png,hH,hH,mask-1.png,mask-2.png,h,1,0.9289578000025358,none,-5,0,0.051291099982336164,0.052104099973803386,0.10218499999609776,0.10144769999897107,0.7511825000110548
RSVPLG03,si,20260319-155342,1.0.2,20260219-152011,808,Practice,T1,1,Automatic,main,7,20260319-155432,global,global,300,S,S,A,A,S-A.png,S-A.png,sS,sS,mask-1.png,mask-1.png,s,1,0.4981841999979224,none,-5,0,0.04958520000218414,0.050955899991095066,0.0994838000042364,0.1008758999814745,0.30048550001811236
RSVPLG03,si,20260319-155342,1.0.2,20260219-152011,808,Practice,T1,1,Automatic,main,8,20260319-155436,local,global,750,S,S,A,E,A-S.png,S-E.png,sS,sS,mask-2.png,mask-4.png,s,1,0.4687485000176821,none,-5,0,0.050890800019260496,0.0510634999955073,0.10252360001322813,0.10090900000068359,0.752336200006539
RSVPLG03,si,20260319-155342,1.0.2,20260219-152011,808,Practice,T1,1,Automatic,main,9,20260319-155441,global,local,300,S,H,E,A,S-E.png,A-H.png,sS,hH,mask-1.png,mask-4.png,s,1,0.5823904999997467,none,-5,0,0.05050660000415519,0.051385699975071475,0.101733499992406,0.09951419997378252,0.302239600016037
RSVPLG03,si,20260319-155342,1.0.2,20260219-152011,808,Practice,T1,1,Automatic,main,10,20260319-155445,local,local,750,S,H,A,E,A-S.png,E-H.png,sS,hH,mask-2.png,mask-1.png,s,1,0.49521930000628345,none,-5,0,0.050628500001039356,0.05003409998607822,0.09983260001172312,0.10155699998722412,0.7508083000138868
RSVPLG03,si,20260319-155342,1.0.2,20260219-152011,808,Practice,T1,1,Automatic,main,11,20260319-155449,local,local,300,H,H,E,A,E-H.png,A-H.png,hH,hH,mask-1.png,mask-1.png,h,1,0.7475210999837145,none,-5,0,0.04879669999354519,0.0510573000065051,0.09990279999328777,0.0998433000058867,0.2985037000034936
RSVPLG03,si,20260319-155342,1.0.2,20260219-152011,808,Practice,T1,1,Automatic,main,12,20260319-155454,local,global,300,S,H,E,E,E-S.png,H-E.png,sS,hH,mask-2.png,mask-3.png,s,1,0.5062674999935552,none,-5,0,0.050615499989362434,0.051327900000615045,0.09903680000570603,0.10138499998720363,0.30022350000217557
RSVPLG03,si,20260319-155342,1.0.2,20260219-152011,808,Practice,T1,1,Automatic,main,13,20260319-155458,global,local,750,H,H,A,A,H-A.png,A-H.png,hH,hH,mask-2.png,mask-1.png,h,1,2.073513199982699,none,-5,0,0.05129170001600869,0.05157949999556877,0.09983010002179071,0.1014625999960117,0.7528379000141285
RSVPLG03,si,20260319-155342,1.0.2,20260219-152011,808,Practice,T1,1,Automatic,main,14,20260319-155504,global,local,300,H,S,E,E,H-E.png,E-S.png,hH,sS,mask-3.png,mask-4.png,s,0,1.4639221000252292,none,-5,0,0.04975560001912527,0.050101300003007054,0.09878590001608245,0.10044200002448633,0.2995004999975208
RSVPLG03,si,20260319-155342,1.0.2,20260219-152011,808,Practice,T1,1,Automatic,main,15,20260319-155509,global,global,750,S,H,A,E,S-A.png,H-E.png,sS,hH,mask-2.png,mask-4.png,h,0,0.9848769000091124,none,-5,0,0.04868870001519099,0.04964449998806231,0.10087700001895428,0.09870770000270568,0.7521089000219945
RSVPLG03,si,20260319-155342,1.0.2,20260219-152011,808,Practice,T1,1,Automatic,main,16,20260319-155514,global,global,750,H,S,A,A,H-A.png,S-A.png,hH,sS,mask-1.png,mask-3.png,s,0,1.0857216999866068,none,-5,0,0.049271700001554564,0.050071599980583414,0.10054600000148639,0.1003113999904599,0.7510456000163686
RSVPLG03,si,20260319-155650,1.0.2,20260219-152011,808,Introduction,Both,1,Automatic,main,1,20260319-155727,local,global,750,H,S,A,E,A-H.png,S-E.png,hH,sS,mask-4.png,mask-2.png,h,1,1.2479575000179466,h,0,3.938612199999625,0.09173689997987822,0.09988110000267625,0.18998969998210669,0.1988759000087157,0.7384324999875389
RSVPLG03,si,20260319-155650,1.0.2,20260219-152011,808,Introduction,Both,1,Automatic,main,2,20260319-155737,global,global,750,S,H,A,A,S-A.png,H-A.png,sS,hH,mask-2.png,mask-1.png,s,1,2.0504973999923095,h,1,0.8200997999811079,0.09904030000325292,0.09870930001488887,0.1994876000098884,0.1992788999923505,0.7465224000043236
RSVPLG03,si,20260319-155650,1.0.2,20260219-152011,808,Introduction,Both,1,Automatic,main,3,20260319-155744,local,global,750,H,H,E,E,E-H.png,H-E.png,hH,hH,mask-4.png,mask-2.png,s,0,3.4261020999983884,s,0,1.0645592999935616,0.09953209999366663,0.10050929998396896,0.19866619998356327,0.20110080001177266,0.7458321999874897
RSVPLG03,si,20260319-155650,1.0.2,20260219-152011,808,Introduction,Both,1,Automatic,main,4,20260319-155753,global,global,750,H,S,A,E,H-A.png,S-E.png,hH,sS,mask-2.png,mask-2.png,h,1,1.5860913000069559,s,1,0.3134526999783702,0.10061510000377893,0.09796220000134781,0.20033439999679103,0.1986118000058923,0.74823369999649
RSVPLG03,si,20260319-155650,1.0.2,20260219-152011,808,Introduction,Both,1,Automatic,main,5,20260319-155759,global,local,750,H,H,E,E,H-E.png,E-H.png,hH,hH,mask-2.png,mask-3.png,h,1,3.082615799998166,h,1,1.5389017999987118,0.0997763000195846,0.10052249999716878,0.19860630002222024,0.20064470000215806,0.7467209000024013
RSVPLG03,si,20260319-155650,1.0.2,20260219-152011,808,Introduction,Both,1,Automatic,main,6,20260319-155808,local,local,750,S,S,E,E,E-S.png,E-S.png,sS,sS,mask-3.png,mask-3.png,s,1,0.8367623999947682,s,1,0.14954070001840591,0.0992287999833934,0.09983449999708682,0.1979476999840699,0.19875640000100248,0.7469183999928646
RSVPLG03,si,20260319-155650,1.0.2,20260219-152011,808,Introduction,Both,1,Automatic,main,7,20260319-155813,local,local,750,S,S,E,A,E-S.png,A-S.png,sS,sS,mask-4.png,mask-2.png,s,1,0.4291146000032313,s,1,0.09989149999455549,0.10015610000118613,0.09855759999481961,0.19870089998585172,0.2008815000008326,0.7459828999999445
RSVPLG03,si,20260319-155650,1.0.2,20260219-152011,808,Introduction,Both,1,Automatic,main,8,20260319-155818,local,global,750,H,H,A,A,A-H.png,H-A.png,hH,hH,mask-1.png,mask-4.png,h,1,2.0789592000073753,h,1,0.39526269998168573,0.097537800000282,0.09908019998692907,0.19773390001500957,0.19776740000816062,0.7456022000114899
RSVPLG03,si,20260319-155650,1.0.2,20260219-152011,808,Introduction,Both,1,Automatic,main,9,20260319-155825,global,global,750,H,S,E,E,H-E.png,S-E.png,hH,sS,mask-2.png,mask-2.png,h,1,1.3861782000167295,s,1,0.04172800001106225,0.09780940000200644,0.09943450000719167,0.19882779999170452,0.1991730000008829,0.7445581000065431
RSVPLG03,si,20260319-155650,1.0.2,20260219-152011,808,Introduction,Both,1,Automatic,main,10,20260319-155831,local,local,750,S,S,E,A,E-S.png,A-S.png,sS,sS,mask-2.png,mask-1.png,s,1,0.6064487999828998,s,1,0.057464800018351525,0.09894089997396804,0.09894060000078753,0.19945569999981672,0.19822970000677742,0.7476088999828789
RSVPLG03,si,20260319-155650,1.0.2,20260219-152011,808,Introduction,Both,1,Automatic,main,11,20260319-155835,global,local,750,S,S,E,E,S-E.png,E-S.png,sS,sS,mask-4.png,mask-2.png,none,-6,0,none,-6,0,0.09986990000470541,0.10005670000100508,0.19905540000763722,0.19818170001963153,0.7491191999870352
RSVPLG03,si,20260319-155855,1.0.2,20260219-152011,808,Practice,Both,1,Automatic,main,1,20260319-155913,local,global,300,H,S,E,A,E-H.png,S-A.png,hH,sS,mask-1.png,mask-4.png,h,1,1.812057700008154,s,1,1.9075307000020985,0.04064829999697395,0.051335299998754635,0.09110399999190122,0.09984019998228177,0.2895827000029385
RSVPLG03,si,20260319-155855,1.0.2,20260219-152011,808,Practice,Both,1,Automatic,main,2,20260319-155918,global,local,750,H,H,E,A,H-E.png,A-H.png,hH,hH,mask-3.png,mask-2.png,h,1,0.6865238999889698,h,1,0.07774350000545382,0.050705700006801635,0.05034789998899214,0.10121550000621937,0.1012736999837216,0.7468929000024218
RSVPLG03,si,20260319-155855,1.0.2,20260219-152011,808,Practice,Both,1,Automatic,main,3,20260319-155923,global,global,750,S,H,A,A,S-A.png,H-A.png,sS,hH,mask-3.png,mask-3.png,s,1,0.7345879999920726,h,1,0.020821800018893555,0.048576800007140264,0.0500770999933593,0.09908049998921342,0.10139719999278896,0.7472171999979764
RSVPLG03,si,20260319-155855,1.0.2,20260219-152011,808,Practice,Both,1,Automatic,main,4,20260319-155928,global,local,300,H,S,A,E,H-A.png,E-S.png,hH,sS,mask-3.png,mask-4.png,h,1,2.845837999979267,s,1,0.008690599992405623,0.05153749999590218,0.04864210000960156,0.10139379999600351,0.09807910001836717,0.3008276999753434
RSVPLG03,si,20260319-155855,1.0.2,20260219-152011,808,Practice,Both,1,Automatic,main,5,20260319-155935,local,local,300,H,H,E,A,E-H.png,A-H.png,hH,hH,mask-1.png,mask-2.png,h,1,1.4181318000191823,s,0,0.0179111999750603,0.05001730000367388,0.04907690000254661,0.10205850002239458,0.09945069998502731,0.30110910002258606
RSVPLG03,si,20260319-155855,1.0.2,20260219-152011,808,Practice,Both,1,Automatic,main,6,20260319-155940,global,global,750,S,S,A,E,S-A.png,S-E.png,sS,sS,mask-1.png,mask-2.png,s,1,0.7676562999840826,s,1,0.10028409998631105,0.04986810000264086,0.048388299997895956,0.10032040000078268,0.10011510000913404,0.7484206999943126
RSVPLG03,si,20260319-155855,1.0.2,20260219-152011,808,Practice,Both,1,Automatic,main,7,20260319-155945,local,global,750,S,H,E,E,E-S.png,H-E.png,sS,hH,mask-2.png,mask-3.png,s,1,1.2153264000080526,h,1,0.034590299997944385,0.049292400013655424,0.05075819999910891,0.09802929998841137,0.09879259997978806,0.747670000011567
RSVPLG03,si,20260319-155855,1.0.2,20260219-152011,808,Practice,Both,1,Automatic,main,8,20260319-155950,global,global,300,S,H,E,A,S-E.png,H-A.png,sS,hH,mask-4.png,mask-3.png,s,1,1.6826084000058472,h,1,1.8262722000072245,0.051517700019758195,0.05031660001259297,0.10209719999693334,0.0969084000098519,0.30237140000099316
RSVPLG03,si,20260319-155855,1.0.2,20260219-152011,808,Practice,Both,1,Automatic,main,9,20260319-155955,global,local,750,S,H,A,A,S-A.png,A-H.png,sS,hH,mask-4.png,mask-2.png,s,1,0.8274822999956086,h,1,0.019489800004521385,0.048961899999994785,0.050526300008641556,0.09888649999629706,0.10085009998874739,0.747868100006599
RSVPLG03,si,20260319-155855,1.0.2,20260219-152011,808,Practice,Both,1,Automatic,main,10,20260319-160001,local,local,750,H,S,E,A,E-H.png,A-S.png,hH,sS,mask-4.png,mask-4.png,h,1,0.4906279999995604,s,1,0.6355004000070039,0.04933270000037737,0.050677599996561185,0.09997870001825504,0.09998679999262094,0.7473989000136498
RSVPLG03,si,20260319-155855,1.0.2,20260219-152011,808,Practice,Both,1,Automatic,main,11,20260319-160005,local,local,300,S,H,A,A,A-S.png,A-H.png,sS,hH,mask-3.png,mask-3.png,s,1,0.450920600007521,h,1,0.5948644000163767,0.0493477999989409,0.05108120001386851,0.09878020000178367,0.09927090001292527,0.29846079999697395
RSVPLG03,si,20260319-155855,1.0.2,20260219-152011,808,Practice,Both,1,Automatic,main,12,20260319-160009,local,local,750,S,S,A,E,A-S.png,E-S.png,sS,sS,mask-2.png,mask-2.png,s,1,0.38163749998784624,s,1,0.09606870001880452,0.05002289998810738,0.046300699992571026,0.10015789998578839,0.09493799999472685,0.7525527999969199
RSVPLG03,si,20260319-155855,1.0.2,20260219-152011,808,Practice,Both,1,Automatic,main,13,20260319-160014,global,local,300,S,S,A,E,S-A.png,E-S.png,sS,sS,mask-4.png,mask-2.png,s,1,1.483199499984039,h,0,0.026833799987798557,0.05006770000909455,0.04981110000517219,0.09985140000935644,0.09900640000705607,0.2990259999933187
RSVPLG03,si,20260319-155855,1.0.2,20260219-152011,808,Practice,Both,1,Automatic,main,14,20260319-160019,global,global,300,S,H,A,E,S-A.png,H-E.png,sS,hH,mask-3.png,mask-4.png,s,1,1.0765288000111468,h,1,0.02500060002785176,0.049690899992128834,0.04891380001208745,0.1004889999749139,0.09911939999437891,0.2999077999847941
RSVPLG03,si,20260319-155855,1.0.2,20260219-152011,808,Practice,Both,1,Automatic,main,15,20260319-160024,local,global,300,H,H,A,A,A-H.png,H-A.png,hH,hH,mask-4.png,mask-4.png,h,1,0.7059864999901038,h,1,0.08176839997759089,0.05186939999111928,0.0503344000026118,0.09901549998903647,0.101789500011364,0.29852719997870736
RSVPLG03,si,20260319-155855,1.0.2,20260219-152011,808,Practice,Both,1,Automatic,main,16,20260319-160028,local,global,750,H,S,E,E,E-H.png,S-E.png,hH,sS,mask-2.png,mask-4.png,h,1,0.5328658999933396,s,1,1.4145197999896482,0.05182500000228174,0.05123939999612048,0.10006550000980496,0.10059119999641553,0.7468538000248373
RSVPLG03,si,20260319-160117,1.0.2,20260219-152011,808,Experiment,Both,1,Automatic,warmup,1,20260319-160141,global,local,300,H,H,E,A,H-E.png,A-H.png,hH,hH,mask-4.png,mask-2.png,h,1,1.3559181000164244,s,0,0.010564500000327826,0.03371269998024218,0.049957499984884635,0.08258739998564124,0.10225249998620711,0.283482400001958
RSVPLG03,si,20260319-160117,1.0.2,20260219-152011,808,Experiment,Both,1,Automatic,warmup,2,20260319-160146,local,local,750,S,H,E,A,E-S.png,A-H.png,sS,hH,mask-1.png,mask-4.png,s,1,0.6510491000080947,h,1,0.2320993000175804,0.050520699995104223,0.04863959999056533,0.10128699999768287,0.09926590000395663,0.7513992000021972
RSVPLG03,si,20260319-160117,1.0.2,20260219-152011,808,Experiment,Both,1,Automatic,warmup,3,20260319-160151,local,global,750,S,H,A,A,A-S.png,H-A.png,sS,hH,mask-4.png,mask-3.png,s,1,0.7314290000067558,h,1,0.03745050000725314,0.048003300005802885,0.04934439997305162,0.09786919999169186,0.09975379999377765,0.7501321000163443
RSVPLG03,si,20260319-160117,1.0.2,20260219-152011,808,Experiment,Both,1,Automatic,warmup,4,20260319-160156,global,global,750,H,H,E,A,H-E.png,H-A.png,hH,hH,mask-4.png,mask-1.png,h,1,0.5994275000120979,h,1,0.08032680000178516,0.04881290000048466,0.04961180000100285,0.09998659999109805,0.09974420000799,0.750287600007141
RSVPLG03,si,20260319-160117,1.0.2,20260219-152011,808,Experiment,Both,1,Automatic,main,5,20260319-160201,global,local,750,H,H,E,A,H-E.png,A-H.png,hH,hH,mask-3.png,mask-2.png,h,1,0.313011699996423,h,1,0.09040279997861944,0.05074540001805872,0.0499971000244841,0.10104209999553859,0.09990470000775531,0.7495325999916531
RSVPLG03,si,20260319-160117,1.0.2,20260219-152011,808,Experiment,Both,1,Automatic,main,6,20260319-160205,local,local,750,H,S,A,A,A-H.png,A-S.png,hH,sS,mask-1.png,mask-3.png,h,1,0.40370970001094975,s,1,0.01571080001303926,0.04870620000292547,0.049031700007617474,0.0994461000082083,0.09850469999946654,0.7497834000096191
RSVPLG03,si,20260319-160117,1.0.2,20260219-152011,808,Experiment,Both,1,Automatic,main,7,20260319-160210,global,global,750,S,S,E,A,S-E.png,S-A.png,sS,sS,mask-4.png,mask-2.png,s,1,0.38221789998351596,s,1,0.1136261000065133,0.0507596000097692,0.0491180999961216,0.10052840001299046,0.10015469999052584,0.7503755000070669
RSVPLG03,si,20260319-160117,1.0.2,20260219-152011,808,Experiment,Both,1,Automatic,main,8,20260319-160214,local,global,300,H,H,A,E,A-H.png,H-E.png,hH,hH,mask-2.png,mask-1.png,h,1,0.9586561000032816,s,0,0.04629520000889897,0.05070799999521114,0.05008590000215918,0.09997829998610541,0.10098479999578558,0.29963659998611547
RSVPLG03,si,20260319-160117,1.0.2,20260219-152011,808,Experiment,Both,1,Automatic,main,9,20260319-160219,local,global,750,H,H,E,A,E-H.png,H-A.png,hH,hH,mask-3.png,mask-2.png,h,1,0.7207571000035387,h,1,0.0702529999834951,0.05121949999011122,0.050566300022182986,0.1017952999973204,0.10003450000658631,0.7502038999809884
RSVPLG03,si,20260319-160117,1.0.2,20260219-152011,808,Experiment,Both,1,Automatic,main,10,20260319-160224,local,global,300,H,S,E,A,E-H.png,S-A.png,hH,sS,mask-1.png,mask-2.png,h,1,0.5032722000032663,s,1,0.01770230001420714,0.048379500018199906,0.04938620000029914,0.09811059999628924,0.09975540000596084,0.29951700000674464
RSVPLG03,si,20260319-160117,1.0.2,20260219-152011,808,Experiment,Both,1,Automatic,main,11,20260319-160228,global,local,300,S,H,A,A,S-A.png,A-H.png,sS,hH,mask-3.png,mask-3.png,s,1,0.4941090000211261,h,1,0.03273730000364594,0.048429899994516745,0.0495742000057362,0.09919879998778924,0.09930850000819191,0.29917509999359027
RSVPLG03,si,20260319-160117,1.0.2,20260219-152011,808,Experiment,Both,1,Automatic,main,12,20260319-160232,global,global,750,H,S,A,E,H-A.png,S-E.png,hH,sS,mask-1.png,mask-1.png,s,0,0.706720399990445,s,1,0.07075799998710863,0.05181599999195896,0.04912849998800084,0.10015929999644868,0.10044949999428354,0.7507521999941673
RSVPLG03,si,20260319-160117,1.0.2,20260219-152011,808,Experiment,Both,1,Automatic,main,13,20260319-160237,global,global,300,H,H,A,A,H-A.png,H-A.png,hH,hH,mask-3.png,mask-4.png,h,1,0.35178860000451095,h,1,0.07334470000932924,0.04979079999611713,0.04963659998611547,0.0987228000012692,0.09921869999379851,0.2988754000107292
RSVPLG03,si,20260319-160117,1.0.2,20260219-152011,808,Experiment,Both,1,Automatic,main,14,20260319-160241,global,local,300,H,H,A,E,H-A.png,E-H.png,hH,hH,mask-3.png,mask-3.png,h,1,1.1810670999984723,s,0,0.00018889998318627477,0.048326199990697205,0.05087800000910647,0.09913210000377148,0.10007190000033006,0.2982126999995671
RSVPLG03,si,20260319-160117,1.0.2,20260219-152011,808,Experiment,Both,1,Automatic,main,15,20260319-160246,global,local,750,S,H,A,E,S-A.png,E-H.png,sS,hH,mask-4.png,mask-2.png,s,1,0.4875997999915853,s,0,0.09833350000553764,0.05041709999204613,0.050277400005143136,0.10121429999708198,0.1011090999818407,0.7509597000025678
RSVPLG03,si,20260319-160117,1.0.2,20260219-152011,808,Experiment,Both,1,Automatic,main,16,20260319-160250,global,global,750,S,S,E,E,S-E.png,S-E.png,sS,sS,mask-1.png,mask-2.png,s,1,0.452625200006878,s,1,0.08990240001003258,0.04767759999958798,0.05128109999350272,0.10028790001524612,0.09967569998116232,0.7489602000277955
RSVPLG03,si,20260319-160117,1.0.2,20260219-152011,808,Experiment,Both,1,Automatic,main,17,20260319-160255,local,global,750,H,H,A,A,A-H.png,H-A.png,hH,hH,mask-4.png,mask-1.png,h,1,1.6989211000036448,h,1,0.08629040000960231,0.04906969997682609,0.04984749999130145,0.10068379997392185,0.09931689998484217,0.7496277999889571
RSVPLG03,si,20260319-160117,1.0.2,20260219-152011,808,Experiment,Both,1,Automatic,main,18,20260319-160301,global,local,300,S,S,E,E,S-E.png,E-S.png,sS,sS,mask-4.png,mask-1.png,s,1,0.5507792000134941,s,1,0.34595679998164997,0.04978670002310537,0.04826889999094419,0.09996490000048652,0.10059640000690706,0.3012217000068631
RSVPLG03,si,20260319-160117,1.0.2,20260219-152011,808,Experiment,Both,1,Automatic,main,19,20260319-160305,local,local,750,H,S,A,A,A-H.png,A-S.png,hH,sS,mask-3.png,mask-3.png,h,1,0.34355910000158474,s,1,0.03251429999363609,0.04876879998482764,0.04847670000162907,0.09995319999870844,0.09894820000045002,0.750457699992694
RSVPLG03,si,20260319-160117,1.0.2,20260219-152011,808,Experiment,Both,1,Automatic,main,20,20260319-160310,global,global,300,H,S,A,E,H-A.png,S-E.png,hH,sS,mask-2.png,mask-1.png,h,1,0.7139298999973107,s,1,0.5998667000094429,0.047899700002744794,0.049510000011650845,0.09868140000617132,0.10075429998687468,0.29962810000870377
RSVPLG03,si,20260319-160117,1.0.2,20260219-152011,808,Experiment,Both,1,Automatic,main,21,20260319-160315,local,global,750,S,H,A,E,A-S.png,H-E.png,sS,hH,mask-2.png,mask-4.png,s,1,0.5308525000000373,h,1,0.2897416999912821,0.04874279999057762,0.04981640001642518,0.09845559997484088,0.09962410002481192,0.7488726999727078
RSVPLG03,si,20260319-160117,1.0.2,20260219-152011,808,Experiment,Both,1,Automatic,main,22,20260319-160320,local,global,750,H,S,A,E,A-H.png,S-E.png,hH,sS,mask-1.png,mask-2.png,s,0,0.5768798000062816,s,1,0.35372119999374263,0.04992980000679381,0.05096269998466596,0.10012580000329763,0.09891020000213757,0.7503838000120595
RSVPLG03,si,20260319-160117,1.0.2,20260219-152011,808,Experiment,Both,1,Automatic,main,23,20260319-160325,local,global,300,S,H,A,A,A-S.png,H-A.png,sS,hH,mask-1.png,mask-4.png,s,1,0.7129174999718089,h,1,0.8328866999945603,0.048515900009078905,0.05034750001505017,0.09901740000350401,0.10120040000765584,0.2985153000045102
RSVPLG03,si,20260319-160117,1.0.2,20260219-152011,808,Experiment,Both,1,Automatic,main,24,20260319-160329,local,local,300,H,H,A,E,A-H.png,E-H.png,hH,hH,mask-3.png,mask-1.png,h,1,0.44530970000778325,s,0,0.16216010000789538,0.050101400003768504,0.048069900018163025,0.10111650000908412,0.09886840000399388,0.3017639000026975
RSVPLG03,si,20260319-160117,1.0.2,20260219-152011,808,Experiment,Both,1,Automatic,main,25,20260319-160334,global,global,300,H,H,A,E,H-A.png,H-E.png,hH,hH,mask-1.png,mask-2.png,h,1,1.447068900015438,h,1,0.30527909999364056,0.05065620000823401,0.0497334000247065,0.10139379999600351,0.10009780002292246,0.29975889998604544
RSVPLG03,si,20260319-160117,1.0.2,20260219-152011,808,Experiment,Both,1,Automatic,main,26,20260319-160350,local,global,300,H,H,A,A,A-H.png,H-A.png,hH,hH,mask-1.png,mask-3.png,h,1,12.737576099985745,s,0,1.4979565999819897,0.04909330001100898,0.05353470001136884,0.10098020001896657,0.10098109999671578,0.2991948999988381
RSVPLG03,si,20260319-160117,1.0.2,20260219-152011,808,Experiment,Both,1,Automatic,main,27,20260319-160356,global,local,750,S,H,E,A,S-E.png,A-H.png,sS,hH,mask-2.png,mask-4.png,s,1,0.6293903000187129,h,1,1.4175798000069335,0.049757700006011873,0.04952879998018034,0.09877870001946576,0.09915589998126961,0.7488984000228811
RSVPLG03,si,20260319-160117,1.0.2,20260219-152011,808,Experiment,Both,1,Automatic,main,28,20260319-160400,global,local,300,H,H,A,E,H-A.png,E-H.png,hH,hH,mask-3.png,mask-4.png,h,1,0.5686514999833889,h,1,1.0956697999790777,0.04793580001569353,0.04948219997459091,0.10039520001737401,0.09985759999835864,0.2985740000149235
RSVPLG03,si,20260319-160117,1.0.2,20260219-152011,808,Experiment,Both,1,Automatic,main,29,20260319-160406,global,global,750,H,S,A,A,H-A.png,S-A.png,hH,sS,mask-2.png,mask-1.png,h,1,0.4640295999997761,s,1,0.02830149998771958,0.04838870000094175,0.049820999993244186,0.10033509999630041,0.09824409999419004,0.7497514999995474
RSVPLG03,si,20260319-160117,1.0.2,20260219-152011,808,Experiment,Both,1,Automatic,main,30,20260319-160410,global,global,750,H,H,A,A,H-A.png,H-A.png,hH,hH,mask-1.png,mask-1.png,h,1,0.5048085000016727,h,1,0.09091640001861379,0.04954820001148619,0.04938589999801479,0.09945710000465624,0.09998500000801869,0.7491409000067506
RSVPLG03,si,20260319-160117,1.0.2,20260219-152011,808,Experiment,Both,1,Automatic,main,31,20260319-160415,local,local,300,H,H,A,E,A-H.png,E-H.png,hH,hH,mask-4.png,mask-4.png,h,1,0.9943553000048269,h,1,0.05843340000137687,0.050418199971318245,0.05126520001795143,0.09985989998676814,0.10224080001353286,0.3001248999789823
RSVPLG03,si,20260319-160117,1.0.2,20260219-152011,808,Experiment,Both,1,Automatic,main,32,20260319-160420,local,local,300,S,S,E,A,E-S.png,A-S.png,sS,sS,mask-1.png,mask-3.png,s,1,0.47172760000103153,s,1,0.0790827999881003,0.04989609998301603,0.050606799981324,0.0998861999833025,0.09874570000101812,0.30137820000527427
RSVPLG03,si,20260319-160117,1.0.2,20260219-152011,808,Experiment,Both,1,Automatic,main,33,20260319-160424,global,global,300,S,S,A,A,S-A.png,S-A.png,sS,sS,mask-1.png,mask-1.png,s,1,0.44385229999898,s,1,0.08602990000508726,0.049115899979369715,0.04889700000057928,0.09940219999407418,0.10008470001048408,0.30054379999637604
RSVPLG03,si,20260319-160117,1.0.2,20260219-152011,808,Experiment,Both,1,Automatic,main,34,20260319-160428,global,global,750,H,S,A,A,H-A.png,S-A.png,hH,sS,mask-3.png,mask-2.png,h,1,0.528349000000162,s,1,0.017989099986152723,0.050391500000841916,0.0503374999971129,0.10036730000865646,0.09994200000073761,0.7512923000031151
RSVPLG03,si,20260319-160117,1.0.2,20260219-152011,808,Experiment,Both,1,Automatic,main,35,20260319-160433,global,global,300,S,S,A,E,S-A.png,S-E.png,sS,sS,mask-2.png,mask-1.png,s,1,0.5290375000040513,s,1,0.08018660001107492,0.049870199989527464,0.04873260000022128,0.10121359999175183,0.09947710001142696,0.3016856999893207
RSVPLG03,si,20260319-160117,1.0.2,20260219-152011,808,Experiment,Both,1,Automatic,main,36,20260319-160437,local,local,750,H,H,A,E,A-H.png,E-H.png,hH,hH,mask-2.png,mask-4.png,h,1,0.4358004000096116,h,1,0.09721190002164803,0.051025499997194856,0.048330599995097145,0.10061540000606328,0.09862940001767129,0.7511694999993779
RSVPLG03,si,20260319-160117,1.0.2,20260219-152011,808,Experiment,Both,1,Automatic,main,37,20260319-160441,local,local,750,S,S,A,A,A-S.png,A-S.png,sS,sS,mask-1.png,mask-1.png,s,1,0.23817379999672994,s,1,0.1090705000096932,0.051113500026986,0.04843670001719147,0.10066600001300685,0.10130370000842959,0.7516063000075519
RSVPLG03,si,20260319-160117,1.0.2,20260219-152011,808,Experiment,Both,1,Automatic,main,38,20260319-160446,local,local,300,S,S,E,A,E-S.png,A-S.png,sS,sS,mask-1.png,mask-1.png,s,1,0.942585799988592,s,1,0.09670370002277195,0.04938349997974001,0.04914180000196211,0.1009718999848701,0.09944310001446865,0.29876349997357465
RSVPLG03,si,20260319-160117,1.0.2,20260219-152011,808,Experiment,Both,1,Automatic,main,39,20260319-160450,global,local,750,S,S,E,A,S-E.png,A-S.png,sS,sS,mask-1.png,mask-2.png,s,1,0.6302766000153497,s,1,0.15218639999511652,0.05126200002268888,0.05249000000185333,0.09939200000371784,0.09985729999607429,0.7491308000171557
RSVPLG03,si,20260319-160117,1.0.2,20260219-152011,808,Experiment,Both,1,Automatic,main,40,20260319-160455,local,local,300,H,H,E,A,E-H.png,A-H.png,hH,hH,mask-4.png,mask-1.png,h,1,0.6555585000023711,h,1,0.0731921999831684,0.049958999996306375,0.0499213999719359,0.1007093999942299,0.10161329997936264,0.29919670001254417
RSVPLG03,si,20260319-160117,1.0.2,20260219-152011,808,Experiment,Both,1,Automatic,main,41,20260319-160500,global,local,750,S,H,E,E,S-E.png,E-H.png,sS,hH,mask-3.png,mask-3.png,s,1,1.3868626999901608,h,1,0.3359434999874793,0.05011569999624044,0.05053130001761019,0.09778420001384802,0.099939900013851,0.7489939999941271
RSVPLG03,si,20260319-160117,1.0.2,20260219-152011,808,Experiment,Both,1,Automatic,main,42,20260319-160505,global,global,300,S,H,A,A,S-A.png,H-A.png,sS,hH,mask-2.png,mask-4.png,s,1,0.6777497000002768,h,1,0.04592200001934543,0.04850219999207184,0.05023969998001121,0.09794040000997484,0.10005109998746775,0.2976560000097379
RSVPLG03,si,20260319-160117,1.0.2,20260219-152011,808,Experiment,Both,1,Automatic,main,43,20260319-160510,local,global,750,S,H,E,A,E-S.png,H-A.png,sS,hH,mask-1.png,mask-4.png,s,1,0.43840719998115674,h,1,0.01328989997273311,0.05052310001337901,0.05062490000273101,0.09972349999588914,0.10080159999779426,0.7496099999989383
RSVPLG03,si,20260319-160117,1.0.2,20260219-152011,808,Experiment,Both,1,Automatic,main,44,20260319-160514,local,local,750,H,S,E,A,E-H.png,A-S.png,hH,sS,mask-2.png,mask-2.png,s,0,0.4077636999718379,h,0,0.8696334999985993,0.051004800014197826,0.05051629999070428,0.10122209999826737,0.09978970000520349,0.750050700007705
RSVPLG03,si,20260319-160117,1.0.2,20260219-152011,808,Experiment,Both,1,Automatic,main,45,20260319-160520,global,local,300,H,H,E,E,H-E.png,E-H.png,hH,hH,mask-1.png,mask-2.png,h,1,0.7747507999883965,h,1,0.01661170000443235,0.050142899999627843,0.04944810000597499,0.09980009999708273,0.09911509999074042,0.29866140001104213
RSVPLG03,si,20260319-160117,1.0.2,20260219-152011,808,Experiment,Both,1,Automatic,main,46,20260319-160524,local,local,750,H,S,A,E,A-H.png,E-S.png,hH,sS,mask-3.png,mask-1.png,h,1,0.3992998999892734,s,1,0.09049329999834299,0.049745700001949444,0.05001129998709075,0.09930539998458698,0.10087819999898784,0.748375399998622
RSVPLG03,si,20260319-160117,1.0.2,20260219-152011,808,Experiment,Both,1,Automatic,main,47,20260319-160529,global,global,750,S,S,E,E,S-E.png,S-E.png,sS,sS,mask-1.png,mask-1.png,s,1,0.8725391000043601,s,1,0.23446499998681247,0.04879070000606589,0.04938659997424111,0.09825169999385253,0.09933409999939613,0.7491390000213869
RSVPLG03,si,20260319-160117,1.0.2,20260219-152011,808,Experiment,Both,1,Automatic,main,48,20260319-160534,local,global,300,S,S,A,A,A-S.png,S-A.png,sS,sS,mask-3.png,mask-3.png,s,1,0.5600171000114642,h,0,0.8262121999869123,0.05011329997796565,0.04992300001322292,0.10045649998937733,0.10246670001652092,0.29959329997655004
RSVPLG03,si,20260319-160117,1.0.2,20260219-152011,808,Experiment,Both,1,Automatic,main,49,20260319-160539,local,local,750,S,S,A,A,A-S.png,A-S.png,sS,sS,mask-1.png,mask-4.png,s,1,0.36465629999293014,s,1,0.09845409999252297,0.05130059999646619,0.048930799996014684,0.10176839999621734,0.0984691999910865,0.7509341000113636
RSVPLG03,si,20260319-160117,1.0.2,20260219-152011,808,Experiment,Both,1,Automatic,main,50,20260319-160544,local,local,300,H,H,A,E,A-H.png,E-H.png,hH,hH,mask-1.png,mask-3.png,h,1,0.3656854000000749,h,1,0.07782509998651221,0.05031339998822659,0.05008379998616874,0.10092589998384938,0.0988591999921482,0.2993057999992743
RSVPLG03,si,20260319-160117,1.0.2,20260219-152011,808,Experiment,Both,1,Automatic,main,51,20260319-160558,global,global,300,H,H,E,A,H-E.png,H-A.png,hH,hH,mask-2.png,mask-4.png,h,1,1.0441086000064388,h,1,0.48499440000159666,0.050120400002924725,0.05181050000828691,0.10075710000819527,0.10042959998827428,0.3001466999994591
RSVPLG03,si,20260319-160117,1.0.2,20260219-152011,808,Experiment,Both,1,Automatic,main,52,20260319-160603,global,local,750,H,S,A,E,H-A.png,E-S.png,hH,sS,mask-2.png,mask-1.png,h,1,0.2948335999972187,s,1,0.039067600009730086,0.04949000000488013,0.048010699974838644,0.09999210000387393,0.09793049999279901,0.7517109000182245
RSVPLG03,si,20260319-160117,1.0.2,20260219-152011,808,Experiment,Both,1,Automatic,main,53,20260319-160608,local,global,300,S,S,E,A,E-S.png,S-A.png,sS,sS,mask-2.png,mask-4.png,s,1,0.5418402999930549,s,1,0.2546481000026688,0.050643599999602884,0.04841040002065711,0.10028380001313053,0.09782270001596771,0.30207269999664277
RSVPLG03,si,20260319-160117,1.0.2,20260219-152011,808,Experiment,Both,1,Automatic,main,54,20260319-160612,local,local,750,H,H,E,E,E-H.png,E-H.png,hH,hH,mask-4.png,mask-3.png,h,1,0.524321399978362,h,1,0.07964670000365004,0.04946339997695759,0.05531560000963509,0.10151439998298883,0.09853710001334548,0.7508040999819059
RSVPLG03,si,20260319-160117,1.0.2,20260219-152011,808,Experiment,Both,1,Automatic,main,55,20260319-160617,local,local,300,H,H,A,E,A-H.png,E-H.png,hH,hH,mask-1.png,mask-1.png,h,1,0.4898531999788247,h,1,0.06086440000217408,0.050156100012827665,0.049703999975463375,0.10084240001742728,0.10113299998920411,0.29899930002284236
RSVPLG03,si,20260319-160117,1.0.2,20260219-152011,808,Experiment,Both,1,Automatic,main,56,20260319-160621,global,local,750,H,H,A,E,H-A.png,E-H.png,hH,hH,mask-3.png,mask-3.png,h,1,0.8289053000044078,h,1,0.07411570000112988,0.050119099993025884,0.04913310002302751,0.10000959999160841,0.09935450000921264,0.7508345999813173
RSVPLG03,si,20260319-160117,1.0.2,20260219-152011,808,Experiment,Both,1,Automatic,main,57,20260319-160626,global,local,300,S,S,A,A,S-A.png,A-S.png,sS,sS,mask-2.png,mask-2.png,s,1,0.5663547999865841,h,0,0.008605499984696507,0.04983420000644401,0.04891019998467527,0.09970940000494011,0.09899790000054054,0.3014049000048544
RSVPLG03,si,20260319-160117,1.0.2,20260219-152011,808,Experiment,Both,1,Automatic,main,58,20260319-160630,local,global,750,H,S,E,A,E-H.png,S-A.png,hH,sS,mask-3.png,mask-2.png,h,1,1.5325587000115775,h,0,0.08780259999912232,0.04928819998167455,0.04888069999287836,0.0997874999884516,0.09879600000567734,0.7494253999902867
RSVPLG03,si,20260319-160117,1.0.2,20260219-152011,808,Experiment,Both,1,Automatic,main,59,20260319-160636,global,local,750,S,H,E,E,S-E.png,E-H.png,sS,hH,mask-2.png,mask-2.png,s,1,1.4425371000252198,s,0,0.08015570000861771,0.0511314999894239,0.05100580002181232,0.10081229999195784,0.10004470002604648,0.7501263999729417
RSVPLG03,si,20260319-160117,1.0.2,20260219-152011,808,Experiment,Both,1,Automatic,main,60,20260319-160642,global,local,300,S,H,A,A,S-A.png,A-H.png,sS,hH,mask-4.png,mask-4.png,s,1,2.6033220999815967,h,1,0.6807635999866761,0.05081280000740662,0.05060620000585914,0.09918709998601116,0.10018700000364333,0.3000093000009656
RSVPLG03,si,20260319-160117,1.0.2,20260219-152011,808,Experiment,Both,1,Automatic,main,61,20260319-160649,local,global,750,S,S,A,E,A-S.png,S-E.png,sS,sS,mask-1.png,mask-3.png,s,1,0.616508100007195,h,0,0.4939596999902278,0.04996170001686551,0.04939390000072308,0.0998748000129126,0.09975649998523295,0.7511421000235714
RSVPLG03,si,20260319-160117,1.0.2,20260219-152011,808,Experiment,Both,1,Automatic,main,62,20260319-160654,local,local,300,S,S,E,A,E-S.png,A-S.png,sS,sS,mask-2.png,mask-2.png,s,1,0.48459969999385066,s,1,0.9929571000102442,0.050210599991260096,0.050232799985678867,0.1020839000120759,0.0987040999752935,0.3014602000184823
RSVPLG03,si,20260319-160117,1.0.2,20260219-152011,808,Experiment,Both,1,Automatic,main,63,20260319-160659,local,local,300,S,S,A,E,A-S.png,E-S.png,sS,sS,mask-1.png,mask-1.png,s,1,0.690767499996582,s,1,0.08024690000456758,0.050649499986320734,0.04932569997617975,0.10117119998903945,0.1007423999835737,0.30131700000492856
RSVPLG03,si,20260319-160117,1.0.2,20260219-152011,808,Experiment,Both,1,Automatic,main,64,20260319-160704,local,global,750,S,H,E,A,E-S.png,H-A.png,sS,hH,mask-3.png,mask-4.png,s,1,0.5526174000115134,s,0,0.37724509998224676,0.049207900010515004,0.04964400001335889,0.09896659999503754,0.09963209999841638,0.7497587999969255
RSVPLG03,si,20260319-160117,1.0.2,20260219-152011,808,Experiment,Both,1,Automatic,main,65,20260319-160709,global,local,300,S,H,A,A,S-A.png,A-H.png,sS,hH,mask-1.png,mask-4.png,s,1,0.9886073999805376,s,0,0.43154069999582134,0.04898530000355095,0.04968379999627359,0.09919259999878705,0.10009290001471527,0.2997293999942485
RSVPLG03,si,20260319-160117,1.0.2,20260219-152011,808,Experiment,Both,1,Automatic,main,66,20260319-160714,local,local,750,S,H,A,A,A-S.png,A-H.png,sS,hH,mask-1.png,mask-3.png,s,1,0.39168449997669086,h,1,0.09814800001913682,0.05125319998478517,0.049876100005349144,0.10197899999911897,0.1007425999850966,0.7508011999889277
RSVPLG03,si,20260319-160117,1.0.2,20260219-152011,808,Experiment,Both,1,Automatic,main,67,20260319-160718,local,global,750,H,H,A,E,A-H.png,H-E.png,hH,hH,mask-4.png,mask-1.png,h,1,0.42999249999411404,h,1,0.08192339999368414,0.04950049999752082,0.05061479998403229,0.09939560000202619,0.0999487999943085,0.7502659000165295
RSVPLG03,si,20260319-160117,1.0.2,20260219-152011,808,Experiment,Both,1,Automatic,main,68,20260319-160723,global,local,300,S,H,A,E,S-A.png,E-H.png,sS,hH,mask-2.png,mask-1.png,s,1,0.6584398999984842,h,1,0.0011993999942205846,0.0459815000067465,0.05055099999299273,0.0966226999880746,0.10244129999773577,0.29559779999544844
RSVPLG03,si,20260319-160117,1.0.2,20260219-152011,808,Experiment,Both,1,Automatic,main,69,20260319-160727,global,local,750,S,H,E,A,S-E.png,A-H.png,sS,hH,mask-2.png,mask-1.png,s,1,0.49325309999403544,h,1,0.01650660001905635,0.05011820001527667,0.05146909999893978,0.10004970000591129,0.1014757999801077,0.7500757000234444
RSVPLG03,si,20260319-160117,1.0.2,20260219-152011,808,Experiment,Both,1,Automatic,main,70,20260319-160732,global,global,750,S,S,A,E,S-A.png,S-E.png,sS,sS,mask-4.png,mask-4.png,s,1,0.6358349999936763,h,0,0.008438299992121756,0.05068109999410808,0.051985700003569946,0.09989820001646876,0.10093149999738671,0.7495464000094216
RSVPLG03,si,20260319-160117,1.0.2,20260219-152011,808,Experiment,Both,1,Automatic,main,71,20260319-160737,global,local,750,H,S,A,A,H-A.png,A-S.png,hH,sS,mask-4.png,mask-1.png,h,1,0.5344143999973312,s,1,0.022352400003001094,0.052980899985414,0.049935399991227314,0.09941510000498965,0.1009765999915544,0.7490787999995518
RSVPLG03,si,20260319-160117,1.0.2,20260219-152011,808,Experiment,Both,1,Automatic,main,72,20260319-160742,global,global,300,H,H,A,E,H-A.png,H-E.png,hH,hH,mask-1.png,mask-1.png,s,0,1.7450346999976318,h,1,0.0005959999980404973,0.04867660001036711,0.0493197999894619,0.09876059999805875,0.0998183999909088,0.30006910001975484
RSVPLG03,si,20260319-160117,1.0.2,20260219-152011,808,Experiment,Both,1,Automatic,main,73,20260319-160747,global,global,300,H,S,A,A,H-A.png,S-A.png,hH,sS,mask-4.png,mask-4.png,h,1,1.5817413999757264,s,1,0.5196464999753516,0.05009490001248196,0.04892269999254495,0.1000073000031989,0.09953360000508837,0.30113330000313
RSVPLG03,si,20260319-160117,1.0.2,20260219-152011,808,Experiment,Both,1,Automatic,main,74,20260319-160753,global,local,300,H,S,A,E,H-A.png,E-S.png,hH,sS,mask-4.png,mask-3.png,h,1,1.417802899988601,s,1,0.006731900008162484,0.049925100000109524,0.04997480000020005,0.09999270000844263,0.09878030000254512,0.3010837000038009
RSVPLG03,si,20260319-160117,1.0.2,20260219-152011,808,Experiment,Both,1,Automatic,main,75,20260319-160758,global,global,300,H,S,E,A,H-E.png,S-A.png,hH,sS,mask-2.png,mask-2.png,h,1,0.4144152000080794,s,1,0.5034779000270646,0.04788639998878352,0.04960369999753311,0.0983393999922555,0.10118110000621527,0.29808589999447577
RSVPLG03,si,20260319-160117,1.0.2,20260219-152011,808,Experiment,Both,1,Automatic,main,76,20260319-160829,local,local,300,H,H,E,A,E-H.png,A-H.png,hH,hH,mask-2.png,mask-1.png,h,1,0.7733128000108991,h,1,0.11209829998551868,0.04991969998809509,0.05253469999297522,0.09746849999646656,0.10139019999769516,0.29738149998593144
RSVPLG03,si,20260319-160117,1.0.2,20260219-152011,808,Experiment,Both,1,Automatic,main,77,20260319-160833,local,local,750,H,H,A,A,A-H.png,A-H.png,hH,hH,mask-3.png,mask-4.png,h,1,0.46421340000233613,h,1,0.06489959999453276,0.049578400008613244,0.05052119999891147,0.09921889999532141,0.09987010000622831,0.7504477000038605
RSVPLG03,si,20260319-160117,1.0.2,20260219-152011,808,Experiment,Both,1,Automatic,main,78,20260319-160838,local,global,300,H,S,A,A,A-H.png,S-A.png,hH,sS,mask-3.png,mask-4.png,s,0,0.7737594999780413,h,0,0.8859391000005417,0.050919100001920015,0.050022800016449764,0.09986260000732727,0.10009710001759231,0.2993502999888733
RSVPLG03,si,20260319-160117,1.0.2,20260219-152011,808,Experiment,Both,1,Automatic,main,79,20260319-160842,global,local,300,S,H,E,A,S-E.png,A-H.png,sS,hH,mask-2.png,mask-4.png,h,0,0.8827240999962669,h,1,0.056288500025402755,0.05002289998810738,0.050034399988362566,0.09883789997547865,0.10006610001437366,0.2997974999889266
RSVPLG03,si,20260319-160117,1.0.2,20260219-152011,808,Experiment,Both,1,Automatic,main,80,20260319-160847,local,local,300,S,S,E,A,E-S.png,A-S.png,sS,sS,mask-1.png,mask-1.png,s,1,0.39752369999769144,h,0,0.525373500015121,0.04997280001407489,0.049933600006625056,0.09998200001427904,0.10001370002282783,0.30051289999391884
RSVPLG03,si,20260319-160117,1.0.2,20260219-152011,808,Experiment,Both,1,Automatic,main,81,20260319-160851,local,global,300,H,S,E,A,E-H.png,S-A.png,hH,sS,mask-2.png,mask-2.png,h,1,0.36923430001479574,h,0,0.07214649999514222,0.051249299984192476,0.050141400017309934,0.1003799999889452,0.10117959999479353,0.29990029998589307
RSVPLG03,si,20260319-160117,1.0.2,20260219-152011,808,Experiment,Both,1,Automatic,main,82,20260319-160855,local,global,300,S,H,A,E,A-S.png,H-E.png,sS,hH,mask-3.png,mask-3.png,s,1,0.3612740999960806,h,1,0.3292010999866761,0.04998530002194457,0.05005420002271421,0.10110520001035184,0.10008220002055168,0.2999208999972325
RSVPLG03,si,20260319-160117,1.0.2,20260219-152011,808,Experiment,Both,1,Automatic,main,83,20260319-160900,global,local,750,H,H,A,A,H-A.png,A-H.png,hH,hH,mask-1.png,mask-3.png,h,1,0.37425039999652654,h,1,0.24677450000308454,0.04867230000672862,0.0496082000026945,0.09906259999843314,0.09964569998555817,0.7492603000137024
RSVPLG03,si,20260319-160117,1.0.2,20260219-152011,808,Experiment,Both,1,Automatic,main,84,20260319-160904,global,global,300,H,S,A,A,H-A.png,S-A.png,hH,sS,mask-2.png,mask-2.png,h,1,0.42528419999871403,s,1,0.5052900000009686,0.051122100005159155,0.05006390000926331,0.10002730000996962,0.0989924999885261,0.30097730000852607
RSVPLG03,si,20260319-160117,1.0.2,20260219-152011,808,Experiment,Both,1,Automatic,main,85,20260319-160908,global,global,300,H,H,E,A,H-E.png,H-A.png,hH,hH,mask-4.png,mask-1.png,s,0,1.0974765999999363,h,1,1.0895088000106625,0.04836960000102408,0.048723399988375604,0.0989875000086613,0.10006080000312068,0.29927410001982935
RSVPLG03,si,20260319-160117,1.0.2,20260219-152011,808,Experiment,Both,1,Automatic,main,86,20260319-160913,local,global,750,H,H,A,A,A-H.png,H-A.png,hH,hH,mask-3.png,mask-3.png,h,1,0.4902832999941893,s,0,0.025837199995294213,0.04939339999691583,0.05022060000919737,0.10049099999014288,0.101289700018242,0.7488893999834545
RSVPLG03,si,20260319-160117,1.0.2,20260219-152011,808,Experiment,Both,1,Automatic,main,87,20260319-160918,local,global,750,H,S,A,A,A-H.png,S-A.png,hH,sS,mask-4.png,mask-1.png,h,1,0.7239836000080686,h,0,2.7376462000247557,0.04978509998181835,0.049994600005447865,0.09922999999253079,0.10010870001860894,0.7488769999763463
RSVPLG03,si,20260319-160117,1.0.2,20260219-152011,808,Experiment,Both,1,Automatic,main,88,20260319-160925,local,local,750,H,H,E,A,E-H.png,A-H.png,hH,hH,mask-4.png,mask-3.png,h,1,0.3782976000220515,h,1,0.097481799981324,0.04903809999814257,0.049960399977862835,0.10023219999857247,0.10004049999406561,0.7492014000017662
RSVPLG03,si,20260319-160117,1.0.2,20260219-152011,808,Experiment,Both,1,Automatic,main,89,20260319-160930,global,global,750,S,H,E,E,S-E.png,H-E.png,sS,hH,mask-4.png,mask-4.png,s,1,0.4638150999962818,h,1,0.07347450000816025,0.04946080001536757,0.050772600021446124,0.09924390001106076,0.10094880001270212,0.7493123000022024
RSVPLG03,si,20260319-160117,1.0.2,20260219-152011,808,Experiment,Both,1,Automatic,main,90,20260319-160934,global,local,750,H,S,E,E,H-E.png,E-S.png,hH,sS,mask-4.png,mask-2.png,h,1,0.6621281999978237,s,1,0.24985670001478866,0.05012170001282357,0.05008250000537373,0.10004050002316944,0.10028559999773279,0.7487090000067838
RSVPLG03,si,20260319-160117,1.0.2,20260219-152011,808,Experiment,Both,1,Automatic,main,91,20260319-160939,local,local,750,S,S,A,A,A-S.png,A-S.png,sS,sS,mask-2.png,mask-4.png,s,1,0.3058911999978591,s,1,0.08419700001832098,0.05012689999421127,0.048813800007337704,0.09927629999583587,0.09855699999025092,0.7509014999959618
RSVPLG03,si,20260319-160117,1.0.2,20260219-152011,808,Experiment,Both,1,Automatic,main,92,20260319-160944,global,local,300,S,S,E,A,S-E.png,A-S.png,sS,sS,mask-1.png,mask-4.png,h,0,0.5876010000065435,s,1,0.0011875000200234354,0.05009020000579767,0.0492237999860663,0.10063020000234246,0.09920299999066629,0.30073410001932643
RSVPLG03,si,20260319-160117,1.0.2,20260219-152011,808,Experiment,Both,1,Automatic,main,93,20260319-160948,local,local,300,S,S,A,A,A-S.png,A-S.png,sS,sS,mask-3.png,mask-3.png,s,1,0.6255362000083551,h,0,0.08051620001788251,0.04918349999934435,0.04809029999887571,0.09864749998087063,0.09842890000436455,0.3011042999860365
RSVPLG03,si,20260319-160117,1.0.2,20260219-152011,808,Experiment,Both,1,Automatic,main,94,20260319-160953,local,global,300,S,S,E,A,E-S.png,S-A.png,sS,sS,mask-2.png,mask-1.png,s,1,0.3772513000003528,h,0,0.08178659999975935,0.0499798999808263,0.0500962000223808,0.1001840999815613,0.10107060000882484,0.3001588999759406
RSVPLG03,si,20260319-160117,1.0.2,20260219-152011,808,Experiment,Both,1,Automatic,main,95,20260319-160957,global,global,750,H,S,E,A,H-E.png,S-A.png,hH,sS,mask-3.png,mask-2.png,h,1,0.18874479999067262,s,1,0.010566200013272464,0.049705599987646565,0.04857889999402687,0.10000359997502528,0.09824019999359734,0.7515630999987479
RSVPLG03,si,20260319-160117,1.0.2,20260219-152011,808,Experiment,Both,1,Automatic,main,96,20260319-161001,local,global,300,H,S,E,A,E-H.png,S-A.png,hH,sS,mask-1.png,mask-4.png,h,1,0.3469293999951333,s,1,0.43493170000147074,0.04881430001114495,0.05135960000916384,0.09988590001012199,0.10151750000659376,0.2980208999942988
RSVPLG03,si,20260319-160117,1.0.2,20260219-152011,808,Experiment,Both,1,Automatic,main,97,20260319-161005,global,global,750,S,H,E,A,S-E.png,H-A.png,sS,hH,mask-1.png,mask-2.png,s,1,0.31732659999397583,h,1,0.05058019998250529,0.0487491000094451,0.051247800001874566,0.09958580002421513,0.10015920002479106,0.7489640999992844
RSVPLG03,si,20260319-160117,1.0.2,20260219-152011,808,Experiment,Both,1,Automatic,main,98,20260319-161010,local,global,300,S,H,A,E,A-S.png,H-E.png,sS,hH,mask-2.png,mask-1.png,s,1,0.4775128999899607,s,0,0.5612047000031453,0.050916000007418916,0.05171719999634661,0.10039250002591871,0.1006403999926988,0.29954380000708625
RSVPLG03,si,20260319-160117,1.0.2,20260219-152011,808,Experiment,Both,1,Automatic,main,99,20260319-161014,local,global,750,S,H,E,E,E-S.png,H-E.png,sS,hH,mask-4.png,mask-3.png,s,1,0.4081552999850828,h,1,0.08918249999987893,0.05005419999361038,0.05038980001700111,0.10067329998128116,0.10005680000176653,0.7495231999782845
RSVPLG03,si,20260319-160117,1.0.2,20260219-152011,808,Experiment,Both,1,Automatic,main,100,20260319-161019,global,global,750,S,S,A,E,S-A.png,S-E.png,sS,sS,mask-1.png,mask-2.png,s,1,1.4402571999817155,h,0,0.0009396000241395086,0.049914600007468835,0.04810189999989234,0.09980940000968985,0.09800690002157353,0.7516081999929156
