exp,exp_initials,runtime,ver,modtime,sub,blocktype,targets,cuetype,mode,trialtype,trial,trialtime,t1_level,t2_level,t2_lag,t1,t2,distractor1,distractor2,stimfile1,stimfile2,t1_corr,t2_corr,maskfile1,maskfile2,t1_resp,t1_acc,t1_rt,t2_resp,t2_acc,t2_rt,t1_dur,t2_dur,t1mask_soa,t2mask_soa,t1t2_soa
RSVPLG03,cs,20251030-134141,1.0.1,20251020-085245,728,Introduction,T1,1,Automatic,main,1,20251030-134230,global,global,750,S,S,A,A,S-A.png,S-A.png,sS,sS,mask-4.png,mask-2.png,h,0,18.782878399943,none,-5,0,0.0915151999797672,0.09838059998583049,0.19420899997930974,0.20145920000504702,0.7447828999720514
RSVPLG03,cs,20251030-134141,1.0.1,20251020-085245,728,Introduction,T1,1,Automatic,main,2,20251030-134253,local,local,750,H,S,E,A,E-H.png,A-S.png,hH,sS,mask-1.png,mask-3.png,h,1,1.6183566999388859,none,-5,0,0.09754040010739118,0.09753120003733784,0.20041460008360445,0.2006245000520721,0.7521784000564367
RSVPLG03,cs,20251030-134141,1.0.1,20251020-085245,728,Introduction,T1,1,Automatic,main,3,20251030-134259,global,global,750,H,S,E,E,H-E.png,S-E.png,hH,sS,mask-2.png,mask-3.png,h,1,1.4273205999052152,none,-5,0,0.09755870001390576,0.09740960004273802,0.20150660001672804,0.20129600004293025,0.7519708999898285
RSVPLG03,cs,20251030-134141,1.0.1,20251020-085245,728,Introduction,T1,1,Automatic,main,4,20251030-134305,global,local,750,S,S,E,E,S-E.png,E-S.png,sS,sS,mask-4.png,mask-1.png,s,1,2.1656981999985874,none,-5,0,0.09742930007632822,0.09738450008444488,0.20032310008537024,0.1985460000578314,0.7523560000117868
RSVPLG03,cs,20251030-134141,1.0.1,20251020-085245,728,Introduction,T1,1,Automatic,main,5,20251030-134311,local,global,750,H,H,A,A,A-H.png,H-A.png,hH,hH,mask-1.png,mask-3.png,none,-6,0,none,-5,0,0.09758750000037253,0.09738609998021275,0.19947210000827909,0.19956580002326518,0.7505423000548035
RSVPLG03,cs,20251030-134322,1.0.1,20251020-085245,728,Practice,T1,1,Automatic,main,1,20251030-134348,global,local,750,S,H,A,E,S-A.png,E-H.png,sS,hH,mask-2.png,mask-4.png,s,1,1.7602577999932691,none,-5,0,0.04101829999126494,0.04668499995023012,0.09429989999625832,0.09888700000010431,0.7452207000460476
RSVPLG03,cs,20251030-134322,1.0.1,20251020-085245,728,Practice,T1,1,Automatic,main,2,20251030-134354,local,global,300,S,H,E,E,E-S.png,H-E.png,sS,hH,mask-4.png,mask-2.png,s,1,0.7046487999614328,none,-5,0,0.04709540004841983,0.04770440002903342,0.10030960000585765,0.09883299993816763,0.30119020002894104
RSVPLG03,cs,20251030-134322,1.0.1,20251020-085245,728,Practice,T1,1,Automatic,main,3,20251030-134359,global,global,750,H,H,A,A,H-A.png,H-A.png,hH,hH,mask-4.png,mask-1.png,h,1,0.7175294000189751,none,-5,0,0.047699599992483854,0.04754790000151843,0.09961199993267655,0.09954349999316037,0.7517425999976695
RSVPLG03,cs,20251030-134322,1.0.1,20251020-085245,728,Practice,T1,1,Automatic,main,4,20251030-134403,global,local,300,H,H,A,E,H-A.png,E-H.png,hH,hH,mask-2.png,mask-3.png,h,1,0.7344059000024572,none,-5,0,0.04839030001312494,0.046527500031515956,0.09949920000508428,0.10012230009306222,0.3007656999398023
RSVPLG03,cs,20251030-134322,1.0.1,20251020-085245,728,Practice,T1,1,Automatic,main,5,20251030-134408,global,local,300,H,H,A,A,H-A.png,A-H.png,hH,hH,mask-1.png,mask-2.png,h,1,1.01551479997579,none,-5,0,0.047507100040093064,0.047537900041788816,0.09951900003943592,0.09955899999476969,0.29976179997902364
RSVPLG03,cs,20251030-134322,1.0.1,20251020-085245,728,Practice,T1,1,Automatic,main,6,20251030-134413,local,local,750,H,H,A,E,A-H.png,E-H.png,hH,hH,mask-2.png,mask-2.png,h,1,0.8896321000065655,none,-5,0,0.04855489998590201,0.04752360004931688,0.09959060000255704,0.09955620008986443,0.751887199934572
RSVPLG03,cs,20251030-134322,1.0.1,20251020-085245,728,Practice,T1,1,Automatic,main,7,20251030-134417,local,local,300,H,S,E,E,E-H.png,E-S.png,hH,sS,mask-4.png,mask-3.png,s,0,1.0834778000134975,none,-5,0,0.04857699992135167,0.04770280001685023,0.0995886999880895,0.09972540009766817,0.30127849988639355
RSVPLG03,cs,20251030-134322,1.0.1,20251020-085245,728,Practice,T1,1,Automatic,main,8,20251030-134422,local,local,300,H,S,E,A,E-H.png,A-S.png,hH,sS,mask-4.png,mask-2.png,h,1,0.8481863000197336,none,-5,0,0.048188499989919364,0.047476000036112964,0.09969230007845908,0.09969290008302778,0.3022845999803394
RSVPLG03,cs,20251030-134322,1.0.1,20251020-085245,728,Practice,T1,1,Automatic,main,9,20251030-134427,global,local,750,H,S,A,E,H-A.png,E-S.png,hH,sS,mask-1.png,mask-3.png,h,1,0.8236685000592843,none,-5,0,0.047535100020468235,0.047574999975040555,0.09970280004199594,0.10072300001047552,0.7496966000180691
RSVPLG03,cs,20251030-134322,1.0.1,20251020-085245,728,Practice,T1,1,Automatic,main,10,20251030-134432,local,local,750,S,H,A,A,A-S.png,A-H.png,sS,hH,mask-1.png,mask-3.png,h,0,1.016341100097634,none,-5,0,0.047750999918207526,0.0474825999699533,0.10083809995558113,0.10027709999121726,0.7509465999901295
RSVPLG03,cs,20251030-134322,1.0.1,20251020-085245,728,Practice,T1,1,Automatic,main,11,20251030-134437,global,global,750,S,S,E,A,S-E.png,S-A.png,sS,sS,mask-4.png,mask-3.png,s,1,0.8353824999649078,none,-5,0,0.04751069995108992,0.04791790002491325,0.09951119998004287,0.10070890001952648,0.7497694999910891
RSVPLG03,cs,20251030-134322,1.0.1,20251020-085245,728,Practice,T1,1,Automatic,main,12,20251030-134442,local,global,750,H,S,A,A,A-H.png,S-A.png,hH,sS,mask-4.png,mask-2.png,h,1,1.2252293999772519,none,-5,0,0.04755919997114688,0.047709999955259264,0.09861810004804283,0.10074250004254282,0.7496206000214443
RSVPLG03,cs,20251030-134322,1.0.1,20251020-085245,728,Practice,T1,1,Automatic,main,13,20251030-134447,local,global,750,S,S,E,E,E-S.png,S-E.png,sS,sS,mask-2.png,mask-3.png,s,1,0.5560428000753745,none,-5,0,0.0465282000368461,0.046587100019678473,0.09957250009756535,0.09958169993478805,0.7510629000607878
RSVPLG03,cs,20251030-134322,1.0.1,20251020-085245,728,Practice,T1,1,Automatic,main,14,20251030-134452,global,global,300,H,H,A,A,H-A.png,H-A.png,hH,hH,mask-4.png,mask-4.png,h,1,1.3286628000205383,none,-5,0,0.04757139994762838,0.04674300004262477,0.10012429999187589,0.09974039997905493,0.300540899974294
RSVPLG03,cs,20251030-134322,1.0.1,20251020-085245,728,Practice,T1,1,Automatic,main,15,20251030-134457,local,global,300,H,H,A,A,A-H.png,H-A.png,hH,hH,mask-3.png,mask-1.png,h,1,0.7023616000078619,none,-5,0,0.046573499916121364,0.046583799994550645,0.09964449994731694,0.10056729998905212,0.3006990998983383
RSVPLG03,cs,20251030-134322,1.0.1,20251020-085245,728,Practice,T1,1,Automatic,main,16,20251030-134501,global,global,300,S,H,A,A,S-A.png,H-A.png,sS,hH,mask-2.png,mask-2.png,s,1,0.7460737000219524,none,-5,0,0.04857839993201196,0.04754940001294017,0.10065189993474633,0.10056609997991472,0.30095139995682985
RSVPLG03,cs,20251030-134547,1.0.1,20251020-085245,728,Practice,Both,1,Automatic,main,1,20251030-134636,global,local,750,H,S,A,A,H-A.png,A-S.png,hH,sS,mask-1.png,mask-1.png,h,1,1.0612623000051826,s,1,2.134020199999213,0.04217839997727424,0.04883220000192523,0.09429819998331368,0.10108809999655932,0.7444978000130504
RSVPLG03,cs,20251030-134547,1.0.1,20251020-085245,728,Practice,Both,1,Automatic,main,2,20251030-134644,global,global,750,S,S,E,E,S-E.png,S-E.png,sS,sS,mask-1.png,mask-3.png,s,1,2.175118900020607,s,1,2.6010851999744773,0.04673139995429665,0.047731600003317,0.10000299999956042,0.09921709995251149,0.7499065999872983
RSVPLG03,cs,20251030-134547,1.0.1,20251020-085245,728,Practice,Both,1,Automatic,main,3,20251030-134653,local,local,300,S,H,E,A,E-S.png,A-H.png,sS,hH,mask-1.png,mask-2.png,s,1,1.475492800003849,s,0,1.4665525000309572,0.047576299984939396,0.04571209999267012,0.10058359999675304,0.09898200002498925,0.3013539999956265
RSVPLG03,cs,20251030-134547,1.0.1,20251020-085245,728,Practice,Both,1,Automatic,main,4,20251030-134700,global,local,300,S,H,A,E,S-A.png,E-H.png,sS,hH,mask-4.png,mask-1.png,s,1,1.3275254999753088,s,0,1.708058699965477,0.04761459992732853,0.04758490005042404,0.0995689999544993,0.09969409997574985,0.299912599963136
RSVPLG03,cs,20251030-134547,1.0.1,20251020-085245,728,Practice,Both,1,Automatic,main,5,20251030-134707,local,global,750,H,S,E,E,E-H.png,S-E.png,hH,sS,mask-1.png,mask-3.png,h,1,1.1221761999186128,h,0,1.2925044000148773,0.04727339989040047,0.047545599984005094,0.0998112999368459,0.09853929991368204,0.751556699979119
RSVPLG03,cs,20251030-134547,1.0.1,20251020-085245,728,Practice,Both,1,Automatic,main,6,20251030-134713,global,local,300,S,S,A,E,S-A.png,E-S.png,sS,sS,mask-1.png,mask-2.png,s,1,0.9380042999982834,s,1,2.203778399969451,0.04759040009230375,0.04758629994466901,0.10059960000216961,0.1006002000067383,0.29989210003986955
RSVPLG03,cs,20251030-134547,1.0.1,20251020-085245,728,Practice,Both,1,Automatic,main,7,20251030-134720,local,global,300,H,H,E,A,E-H.png,H-A.png,hH,hH,mask-1.png,mask-4.png,h,1,1.0341019000625238,h,1,1.4702885000733659,0.047566100023686886,0.04754259996116161,0.09970379993319511,0.0991302999900654,0.30011569999624044
RSVPLG03,cs,20251030-134547,1.0.1,20251020-085245,728,Practice,Both,1,Automatic,main,8,20251030-134727,local,local,300,H,S,E,A,E-H.png,A-S.png,hH,sS,mask-2.png,mask-2.png,h,1,0.7815641000634059,s,1,0.5313766999170184,0.04650019994005561,0.047835799981839955,0.09968680003657937,0.09979359991848469,0.2990938000148162
RSVPLG03,cs,20251030-134547,1.0.1,20251020-085245,728,Practice,Both,1,Automatic,main,9,20251030-134732,global,global,750,H,S,A,E,H-A.png,S-E.png,hH,sS,mask-1.png,mask-4.png,h,1,0.7583957000169903,s,1,0.5163954999297857,0.047091799904592335,0.04670649999752641,0.09821019996888936,0.09993239992763847,0.7503212000010535
RSVPLG03,cs,20251030-134547,1.0.1,20251020-085245,728,Practice,Both,1,Automatic,main,10,20251030-134737,global,local,750,S,S,A,A,S-A.png,A-S.png,sS,sS,mask-4.png,mask-2.png,s,1,1.3732517999596894,h,0,0.42768249998334795,0.04658319998998195,0.046657999977469444,0.10051509994082153,0.09987159993033856,0.750809199991636
RSVPLG03,cs,20251030-134547,1.0.1,20251020-085245,728,Practice,Both,1,Automatic,main,11,20251030-134743,local,global,750,H,H,A,A,A-H.png,H-A.png,hH,hH,mask-4.png,mask-2.png,h,1,1.0947750000050291,h,1,0.40683290001470596,0.04750069999136031,0.04785019997507334,0.09851400007028133,0.09994009998627007,0.7503154000733048
RSVPLG03,cs,20251030-134547,1.0.1,20251020-085245,728,Practice,Both,1,Automatic,main,12,20251030-134749,global,global,300,S,S,A,A,S-A.png,S-A.png,sS,sS,mask-3.png,mask-1.png,s,1,0.992971200030297,h,0,0.4218965000472963,0.047078800038434565,0.04712300002574921,0.10009269998408854,0.10114459996111691,0.29996510001365095
RSVPLG03,cs,20251030-134547,1.0.1,20251020-085245,728,Practice,Both,1,Automatic,main,13,20251030-134754,local,local,750,H,S,A,E,A-H.png,E-S.png,hH,sS,mask-3.png,mask-1.png,h,1,2.541589199914597,s,1,0.7574996999464929,0.048563199932686985,0.04773600003682077,0.10165339999366552,0.10006179998163134,0.7515357999363914
RSVPLG03,cs,20251030-134547,1.0.1,20251020-085245,728,Practice,Both,1,Automatic,main,14,20251030-134802,local,local,750,H,S,A,A,A-H.png,A-S.png,hH,sS,mask-1.png,mask-4.png,h,1,0.6095059999497607,s,1,0.2602205000584945,0.04748800001107156,0.04753590002655983,0.09950460004620254,0.09955899999476969,0.7499946999596432
RSVPLG03,cs,20251030-134547,1.0.1,20251020-085245,728,Practice,Both,1,Automatic,main,15,20251030-134807,global,global,300,H,S,E,E,H-E.png,S-E.png,hH,sS,mask-1.png,mask-3.png,h,1,0.7006439999677241,s,1,0.1951431999914348,0.04757610009983182,0.047579300007782876,0.09897180006373674,0.09965849993750453,0.3004144000587985
RSVPLG03,cs,20251030-134547,1.0.1,20251020-085245,728,Practice,Both,1,Automatic,main,16,20251030-134812,local,global,300,H,H,E,A,E-H.png,H-A.png,hH,hH,mask-3.png,mask-2.png,h,1,1.1125645999563858,s,0,1.3895423000212759,0.047581000020727515,0.046503699966706336,0.10061670001596212,0.09954790002666414,0.3000846999930218
RSVPLG03,cs,20251030-134840,1.0.1,20251020-085245,728,Practice,Both,1,Automatic,main,1,20251030-134900,local,global,750,H,H,A,A,A-H.png,H-A.png,hH,hH,mask-1.png,mask-3.png,h,1,0.8213032999774441,s,0,0.2789645000593737,0.040111899957992136,0.04834050009958446,0.09424270002637058,0.09992180007975549,0.7436805999604985
RSVPLG03,cs,20251030-134840,1.0.1,20251020-085245,728,Practice,Both,1,Automatic,main,2,20251030-134906,global,global,300,H,H,E,A,H-E.png,H-A.png,hH,hH,mask-2.png,mask-1.png,h,1,0.8494032999733463,h,1,0.47458290006034076,0.04774050007108599,0.04594000009819865,0.09892360004596412,0.09921250003390014,0.30035799997858703
RSVPLG03,cs,20251030-134840,1.0.1,20251020-085245,728,Practice,Both,1,Automatic,main,3,20251030-134911,local,global,750,H,S,E,A,E-H.png,S-A.png,hH,sS,mask-2.png,mask-1.png,h,1,0.6623618999728933,h,0,0.31218320003245026,0.04770480003207922,0.04693620000034571,0.1000179999973625,0.10017859993968159,0.7525069999974221
RSVPLG03,cs,20251030-134840,1.0.1,20251020-085245,728,Practice,Both,1,Automatic,main,4,20251030-134916,local,local,300,H,S,E,A,E-H.png,A-S.png,hH,sS,mask-1.png,mask-1.png,h,1,0.5025723000289872,s,1,0.29069349996279925,0.04673190007451922,0.04767230001743883,0.09995390009135008,0.09990360005758703,0.29963390005286783
RSVPLG03,cs,20251030-134840,1.0.1,20251020-085245,728,Practice,Both,1,Automatic,main,5,20251030-134921,global,local,300,H,H,E,A,H-E.png,A-H.png,hH,hH,mask-1.png,mask-3.png,h,1,1.0743938999949023,h,1,0.44301879999693483,0.047693399945273995,0.0464969000313431,0.09809770004358143,0.09945079998578876,0.3002326999558136
RSVPLG03,cs,20251030-134840,1.0.1,20251020-085245,728,Practice,Both,1,Automatic,main,6,20251030-134926,local,local,300,H,S,E,A,E-H.png,A-S.png,hH,sS,mask-2.png,mask-4.png,h,1,0.4601650000549853,s,1,0.24042029993142933,0.04765309998765588,0.04660699993837625,0.10072139999829233,0.10081360000185668,0.3013867000117898
RSVPLG03,cs,20251030-134840,1.0.1,20251020-085245,728,Practice,Both,1,Automatic,main,7,20251030-134931,local,global,300,H,S,A,A,A-H.png,S-A.png,hH,sS,mask-3.png,mask-1.png,h,1,0.7462226999923587,h,0,0.3365701000439003,0.04868409992195666,0.04753179999534041,0.10107330000028014,0.1000052000163123,0.3010262999450788
RSVPLG03,cs,20251030-134840,1.0.1,20251020-085245,728,Practice,Both,1,Automatic,main,8,20251030-134935,global,local,300,H,S,A,A,H-A.png,A-S.png,hH,sS,mask-3.png,mask-3.png,h,1,0.6828602000605315,s,1,0.40281090000644326,0.04753400001209229,0.048593200044706464,0.10158230003435165,0.1007067000027746,0.30092840001452714
RSVPLG03,cs,20251030-134840,1.0.1,20251020-085245,728,Practice,Both,1,Automatic,main,9,20251030-134940,local,local,750,H,H,A,A,A-H.png,A-H.png,hH,hH,mask-3.png,mask-2.png,h,1,0.7144514999818057,h,1,0.2822543999645859,0.04651340004056692,0.04757689998950809,0.09951189998537302,0.09959490003529936,0.7503354999935254
RSVPLG03,cs,20251030-134840,1.0.1,20251020-085245,728,Practice,Both,1,Automatic,main,10,20251030-134946,global,local,750,S,H,E,A,S-E.png,A-H.png,sS,hH,mask-1.png,mask-3.png,s,1,0.642273599980399,h,1,0.2673386000096798,0.04770549992099404,0.04775190004147589,0.09997310000471771,0.10003059997688979,0.7502430999884382
RSVPLG03,cs,20251030-134840,1.0.1,20251020-085245,728,Practice,Both,1,Automatic,main,11,20251030-134951,global,global,750,S,H,E,E,S-E.png,H-E.png,sS,hH,mask-1.png,mask-1.png,s,1,0.7768607999896631,h,1,0.32917239994276315,0.04670879989862442,0.046724600018933415,0.0999360999558121,0.10003440000582486,0.750752899912186
RSVPLG03,cs,20251030-134840,1.0.1,20251020-085245,728,Practice,Both,1,Automatic,main,12,20251030-134956,global,local,750,S,H,E,A,S-E.png,A-H.png,sS,hH,mask-2.png,mask-3.png,s,1,0.6158209999557585,h,1,0.4081889999797568,0.047523200046271086,0.047454999992623925,0.10053400008473545,0.10050880000926554,0.7519591000163928
RSVPLG03,cs,20251030-134840,1.0.1,20251020-085245,728,Practice,Both,1,Automatic,main,13,20251030-135001,local,global,300,H,S,A,A,A-H.png,S-A.png,hH,sS,mask-4.png,mask-2.png,h,1,1.0519179999828339,h,0,0.7132624000078067,0.047521499916911125,0.04770320001989603,0.09856249997392297,0.1007804999826476,0.29982439999002963
RSVPLG03,cs,20251030-134840,1.0.1,20251020-085245,728,Practice,Both,1,Automatic,main,14,20251030-135007,global,global,300,H,S,E,A,H-E.png,S-A.png,hH,sS,mask-1.png,mask-4.png,h,1,0.8541133999824524,s,1,0.3881229000398889,0.04753590002655983,0.04802909994032234,0.10045120003633201,0.10006689990404993,0.2993708000285551
RSVPLG03,cs,20251030-134840,1.0.1,20251020-085245,728,Practice,Both,1,Automatic,main,15,20251030-135012,local,local,750,S,S,E,A,E-S.png,A-S.png,sS,sS,mask-1.png,mask-3.png,s,1,1.5950708000455052,h,0,2.2639454000163823,0.04850959999021143,0.04759099998045713,0.10155060002580285,0.1016677999868989,0.751240500016138
RSVPLG03,cs,20251030-134840,1.0.1,20251020-085245,728,Practice,Both,1,Automatic,main,16,20251030-135020,global,global,750,H,H,A,E,H-A.png,H-E.png,hH,hH,mask-1.png,mask-4.png,h,1,1.2638944999780506,s,0,1.194672800018452,0.047609300003387034,0.04790020000655204,0.09991969994734973,0.10017160000279546,0.7517089999746531
RSVPLG03,cs,20251030-135042,1.0.1,20251020-085245,728,Practice,Both,1,Automatic,main,1,20251030-135117,local,global,300,S,H,A,E,A-S.png,H-E.png,sS,hH,mask-3.png,mask-3.png,s,1,1.009341700002551,h,1,0.34458479995373636,0.04128729994408786,0.04761330003384501,0.09216959995683283,0.09960399998817593,0.2934906999580562
RSVPLG03,cs,20251030-135042,1.0.1,20251020-085245,728,Practice,Both,1,Automatic,main,2,20251030-135123,global,global,750,H,H,E,E,H-E.png,H-E.png,hH,hH,mask-2.png,mask-4.png,h,1,1.092396599939093,h,1,0.26035170000977814,0.04766140005085617,0.04702140006702393,0.10168479999992996,0.09939610003493726,0.7503641999792308
RSVPLG03,cs,20251030-135042,1.0.1,20251020-085245,728,Practice,Both,1,Automatic,main,3,20251030-135128,global,local,300,S,H,E,E,S-E.png,E-H.png,sS,hH,mask-2.png,mask-1.png,s,1,0.5586641000118107,h,1,0.2826463000383228,0.04765590000897646,0.04850150004494935,0.09982719994150102,0.10057670006062835,0.29818519996479154
RSVPLG03,cs,20251030-135042,1.0.1,20251020-085245,728,Practice,Both,1,Automatic,main,4,20251030-135133,global,global,300,S,S,E,E,S-E.png,S-E.png,sS,sS,mask-4.png,mask-4.png,s,1,1.0121237999992445,h,0,1.1325929999584332,0.0475401000585407,0.047520100022666156,0.10160850000102073,0.10052279999945313,0.2998224999755621
RSVPLG03,cs,20251030-135042,1.0.1,20251020-085245,728,Practice,Both,1,Automatic,main,5,20251030-135139,global,local,300,S,H,E,A,S-E.png,A-H.png,sS,hH,mask-4.png,mask-2.png,s,1,0.6858163999859244,h,1,0.31548580003436655,0.048481900012120605,0.04707199998665601,0.09882750001270324,0.09891780000180006,0.2997464999789372
RSVPLG03,cs,20251030-135042,1.0.1,20251020-085245,728,Practice,Both,1,Automatic,main,6,20251030-135144,local,global,750,H,H,E,E,E-H.png,H-E.png,hH,hH,mask-3.png,mask-1.png,h,1,1.593451000051573,s,0,0.24713469995185733,0.047767800046131015,0.04873120004776865,0.09979030000977218,0.09974530001636595,0.7485261999536306
RSVPLG03,cs,20251030-135042,1.0.1,20251020-085245,728,Practice,Both,1,Automatic,main,7,20251030-135150,local,global,750,H,H,E,E,E-H.png,H-E.png,hH,hH,mask-1.png,mask-1.png,h,1,1.2498329000081867,h,1,0.25655389996245503,0.0465515999821946,0.04855840001255274,0.10046009998768568,0.10008430003654212,0.7487403999548405
RSVPLG03,cs,20251030-135042,1.0.1,20251020-085245,728,Practice,Both,1,Automatic,main,8,20251030-135155,local,local,750,S,H,E,E,E-S.png,E-H.png,sS,hH,mask-3.png,mask-1.png,s,1,0.6721917000832036,h,1,0.24458759999834,0.04754729999694973,0.046552699990570545,0.09865679999347776,0.09942480002064258,0.7496224999194965
RSVPLG03,cs,20251030-135042,1.0.1,20251020-085245,728,Practice,Both,1,Automatic,main,9,20251030-135201,local,local,300,H,H,E,A,E-H.png,A-H.png,hH,hH,mask-2.png,mask-1.png,h,1,1.5629323000321165,s,0,1.0128392000915483,0.0465523999882862,0.047518700012005866,0.09977159998379648,0.10051729995757341,0.29916319996118546
RSVPLG03,cs,20251030-135042,1.0.1,20251020-085245,728,Practice,Both,1,Automatic,main,10,20251030-135207,local,local,300,S,S,E,E,E-S.png,E-S.png,sS,sS,mask-1.png,mask-3.png,s,1,1.1628407000098377,s,1,0.8643521000631154,0.048022700008004904,0.04763529996853322,0.09984709997661412,0.10065109992865473,0.30051720002666116
RSVPLG03,cs,20251030-135042,1.0.1,20251020-085245,728,Practice,Both,1,Automatic,main,11,20251030-135213,global,global,750,H,S,E,A,H-E.png,S-A.png,hH,sS,mask-2.png,mask-1.png,h,1,1.4361844999948516,h,0,0.9538095999741927,0.04769000003580004,0.04870670009404421,0.09989760001190007,0.09975480008870363,0.7501603999407962
RSVPLG03,cs,20251030-135042,1.0.1,20251020-085245,728,Practice,Both,1,Automatic,main,12,20251030-135219,global,local,750,H,S,E,E,H-E.png,E-S.png,hH,sS,mask-2.png,mask-4.png,h,1,0.6366795999929309,s,1,0.2741239999886602,0.046751399990171194,0.04676729999482632,0.10031330003403127,0.1002534000435844,0.7494944999925792
RSVPLG03,cs,20251030-135042,1.0.1,20251020-085245,728,Practice,Both,1,Automatic,main,13,20251030-135225,local,local,750,S,S,E,A,E-S.png,A-S.png,sS,sS,mask-1.png,mask-3.png,s,1,0.9298371999757364,s,1,0.21460069995373487,0.04852270008996129,0.046506599988788366,0.09952819999307394,0.0995063999434933,0.7500526000512764
RSVPLG03,cs,20251030-135042,1.0.1,20251020-085245,728,Practice,Both,1,Automatic,main,14,20251030-135230,global,local,750,S,H,A,A,S-A.png,A-H.png,sS,hH,mask-3.png,mask-2.png,s,1,0.5927339000627398,h,1,0.2656467999331653,0.04649430001154542,0.046495100017637014,0.09949109994340688,0.09949789999518543,0.7497593000298366
RSVPLG03,cs,20251030-135042,1.0.1,20251020-085245,728,Practice,Both,1,Automatic,main,15,20251030-135235,local,global,300,H,H,A,E,A-H.png,H-E.png,hH,hH,mask-4.png,mask-3.png,h,1,1.1260285000316799,s,0,0.21801459998823702,0.04767190001439303,0.04871050000656396,0.10186160006560385,0.09990260004997253,0.30048850004095584
RSVPLG03,cs,20251030-135042,1.0.1,20251020-085245,728,Practice,Both,1,Automatic,main,16,20251030-135240,global,global,300,S,H,A,A,S-A.png,H-A.png,sS,hH,mask-2.png,mask-2.png,s,1,1.0923386999638751,h,1,0.331861799932085,0.048674299963749945,0.04688530007842928,0.10089329991023988,0.10109480004757643,0.3003060999326408
RSVPLG03,cs,20251030-135357,1.0.1,20251020-085245,728,Experiment,Both,1,Automatic,warmup,1,20251030-135437,global,local,750,S,H,A,E,S-A.png,E-H.png,sS,hH,mask-4.png,mask-2.png,s,1,1.457382099935785,h,1,0.5663075000047684,0.041018799995072186,0.04772239993326366,0.09415730007458478,0.09991979994811118,0.7426732000894845
RSVPLG03,cs,20251030-135357,1.0.1,20251020-085245,728,Experiment,Both,1,Automatic,warmup,2,20251030-135443,local,global,300,H,S,A,A,A-H.png,S-A.png,hH,sS,mask-3.png,mask-1.png,h,1,1.1046182999853045,h,0,0.409605500055477,0.04614930006209761,0.047737699933350086,0.10040110000409186,0.10093870002310723,0.30002830002922565
RSVPLG03,cs,20251030-135357,1.0.1,20251020-085245,728,Experiment,Both,1,Automatic,warmup,3,20251030-135448,local,global,750,H,H,A,E,A-H.png,H-E.png,hH,hH,mask-2.png,mask-1.png,h,1,1.6359696999425068,h,1,0.3412712001008913,0.04808740003500134,0.046712499926798046,0.10110209998674691,0.09988779993727803,0.7514613000676036
RSVPLG03,cs,20251030-135357,1.0.1,20251020-085245,728,Experiment,Both,1,Automatic,warmup,4,20251030-135455,local,local,750,S,S,E,E,E-S.png,E-S.png,sS,sS,mask-1.png,mask-2.png,s,1,0.901245400076732,s,1,0.6796834000851959,0.04623360000550747,0.04760950000490993,0.0982267000945285,0.09880469995550811,0.7498580000828952
RSVPLG03,cs,20251030-135357,1.0.1,20251020-085245,728,Experiment,Both,1,Automatic,warmup,5,20251030-135500,global,local,300,S,H,E,A,S-E.png,A-H.png,sS,hH,mask-2.png,mask-3.png,s,1,1.1688171999994665,s,0,0.5832601001020521,0.048596100066788495,0.047650499967858195,0.10178290004841983,0.09883619996253401,0.3014897000975907
RSVPLG03,cs,20251030-135357,1.0.1,20251020-085245,728,Experiment,Both,1,Automatic,main,6,20251030-135506,local,global,300,H,S,E,E,E-H.png,S-E.png,hH,sS,mask-4.png,mask-2.png,h,1,1.0006659000646323,h,0,0.3080484999809414,0.04758620006032288,0.04784070001915097,0.10086650005541742,0.1009972000028938,0.2997474999865517
RSVPLG03,cs,20251030-135357,1.0.1,20251020-085245,728,Experiment,Both,1,Automatic,main,7,20251030-135511,global,local,750,H,S,E,A,H-E.png,A-S.png,hH,sS,mask-3.png,mask-4.png,h,1,0.5994325000792742,h,0,0.18314630002714694,0.04725529998540878,0.04758129990659654,0.1002893999684602,0.10078349988907576,0.7497002000454813
RSVPLG03,cs,20251030-135357,1.0.1,20251020-085245,728,Experiment,Both,1,Automatic,main,8,20251030-135516,local,local,300,S,S,A,E,A-S.png,E-S.png,sS,sS,mask-2.png,mask-3.png,s,1,0.8589735999703407,s,1,0.39045780000742525,0.047957099974155426,0.04680629994254559,0.101135200005956,0.09980950003955513,0.30170069995801896
RSVPLG03,cs,20251030-135357,1.0.1,20251020-085245,728,Experiment,Both,1,Automatic,main,9,20251030-135521,global,local,300,H,S,A,A,H-A.png,A-S.png,hH,sS,mask-4.png,mask-2.png,h,1,0.9386755999876186,s,1,0.20180240005720407,0.047529099974781275,0.04746589995920658,0.09949419996701181,0.09949059993959963,0.29950710001867265
RSVPLG03,cs,20251030-135357,1.0.1,20251020-085245,728,Experiment,Both,1,Automatic,main,10,20251030-135526,local,local,750,S,S,A,A,A-S.png,A-S.png,sS,sS,mask-4.png,mask-2.png,s,1,3.827351800049655,h,0,0.3297205000417307,0.04754890000913292,0.04756380000617355,0.1007367999991402,0.10070900002028793,0.7498263999586925
RSVPLG03,cs,20251030-135357,1.0.1,20251020-085245,728,Experiment,Both,1,Automatic,main,11,20251030-135534,local,global,300,S,H,E,E,E-S.png,H-E.png,sS,hH,mask-1.png,mask-3.png,s,1,1.4519448999781162,h,1,0.4179351000348106,0.04687209997791797,0.04766489996109158,0.09971380000934005,0.09860550006851554,0.2995031999889761
RSVPLG03,cs,20251030-135357,1.0.1,20251020-085245,728,Experiment,Both,1,Automatic,main,12,20251030-135540,local,global,750,H,H,A,A,A-H.png,H-A.png,hH,hH,mask-3.png,mask-1.png,h,1,0.7834001999581233,h,1,0.12222299992572516,0.04571930004749447,0.0477004999993369,0.09993979998398572,0.09889320004731417,0.7496753999730572
RSVPLG03,cs,20251030-135357,1.0.1,20251020-085245,728,Experiment,Both,1,Automatic,main,13,20251030-135545,global,global,750,H,S,A,E,H-A.png,S-E.png,hH,sS,mask-3.png,mask-4.png,h,1,0.5700177000835538,s,1,0.12008650007192045,0.04767139989417046,0.047721699927933514,0.09988359990529716,0.09889819996897131,0.7515402999706566
RSVPLG03,cs,20251030-135357,1.0.1,20251020-085245,728,Experiment,Both,1,Automatic,main,14,20251030-135550,global,global,750,S,H,A,A,S-A.png,H-A.png,sS,hH,mask-3.png,mask-2.png,s,1,0.5737794999731705,h,1,0.23670309991575778,0.04654740006662905,0.048531000036746264,0.09958140004891902,0.10134750010911375,0.7483926999848336
RSVPLG03,cs,20251030-135357,1.0.1,20251020-085245,728,Experiment,Both,1,Automatic,main,15,20251030-135555,global,global,750,S,S,A,A,S-A.png,S-A.png,sS,sS,mask-2.png,mask-3.png,s,1,0.5386871000519022,s,1,0.13668759993743151,0.04753869993146509,0.04681430000346154,0.0995067999465391,0.10002800007350743,0.7503409999189898
RSVPLG03,cs,20251030-135357,1.0.1,20251020-085245,728,Experiment,Both,1,Automatic,main,16,20251030-135600,local,global,750,S,S,A,A,A-S.png,S-A.png,sS,sS,mask-4.png,mask-2.png,s,1,1.560350799933076,h,0,0.7473497000755742,0.047705500037409365,0.048636100022122264,0.09998820000328124,0.1002474999986589,0.749297900008969
RSVPLG03,cs,20251030-135357,1.0.1,20251020-085245,728,Experiment,Both,1,Automatic,main,17,20251030-135606,global,global,750,S,S,E,A,S-E.png,S-A.png,sS,sS,mask-1.png,mask-3.png,s,1,0.4961197000229731,s,1,0.13104020000901073,0.04742429999168962,0.046536499983631074,0.10025720007251948,0.09971209999639541,0.7509313999908045
RSVPLG03,cs,20251030-135357,1.0.1,20251020-085245,728,Experiment,Both,1,Automatic,main,18,20251030-135611,global,local,300,H,H,E,E,H-E.png,E-H.png,hH,hH,mask-3.png,mask-3.png,h,1,2.9738536999793723,h,1,0.8910717000253499,0.047693800064735115,0.04769919998943806,0.0999503000639379,0.09993989998474717,0.30054500000551343
RSVPLG03,cs,20251030-135357,1.0.1,20251020-085245,728,Experiment,Both,1,Automatic,main,19,20251030-135619,global,local,750,S,H,E,A,S-E.png,A-H.png,sS,hH,mask-2.png,mask-1.png,s,1,0.8048425000160933,h,1,0.2881311000091955,0.04782069998327643,0.04871380003169179,0.10004799999296665,0.10002220002934337,0.7489464998943731
RSVPLG03,cs,20251030-135357,1.0.1,20251020-085245,728,Experiment,Both,1,Automatic,main,20,20251030-135624,global,global,300,H,H,A,E,H-A.png,H-E.png,hH,hH,mask-4.png,mask-3.png,h,1,0.687724299961701,h,1,0.12001409998629242,0.04873299994505942,0.04744639992713928,0.10099949990399182,0.1003139999229461,0.30066760000772774
RSVPLG03,cs,20251030-135357,1.0.1,20251020-085245,728,Experiment,Both,1,Automatic,main,21,20251030-135629,local,global,300,S,H,E,E,E-S.png,H-E.png,sS,hH,mask-3.png,mask-1.png,s,1,1.2080801000120118,h,1,0.2179765000473708,0.04749560006894171,0.04750730004161596,0.09988029999658465,0.10150570003315806,0.3002101000165567
RSVPLG03,cs,20251030-135357,1.0.1,20251020-085245,728,Experiment,Both,1,Automatic,main,22,20251030-135634,local,global,750,H,S,A,E,A-H.png,S-E.png,hH,sS,mask-1.png,mask-2.png,h,1,1.4538333000382408,s,1,0.16310190001968294,0.04663510003592819,0.04905480006709695,0.09865709999576211,0.10014110000338405,0.7488394000101835
RSVPLG03,cs,20251030-135357,1.0.1,20251020-085245,728,Experiment,Both,1,Automatic,main,23,20251030-135640,global,global,300,H,S,E,A,H-E.png,S-A.png,hH,sS,mask-3.png,mask-4.png,h,1,0.6989433000562713,s,1,0.1515594000229612,0.04751519998535514,0.047572300070896745,0.0985731000546366,0.1005810999777168,0.29965770000126213
RSVPLG03,cs,20251030-135357,1.0.1,20251020-085245,728,Experiment,Both,1,Automatic,main,24,20251030-135644,local,local,750,S,H,A,A,A-S.png,A-H.png,sS,hH,mask-3.png,mask-3.png,s,1,0.46600080002099276,h,1,0.1655017000157386,0.047500799992121756,0.0475559999467805,0.10050399997271597,0.10138010000810027,0.750328200054355
RSVPLG03,cs,20251030-135357,1.0.1,20251020-085245,728,Experiment,Both,1,Automatic,main,25,20251030-135649,global,local,750,S,S,A,E,S-A.png,E-S.png,sS,sS,mask-1.png,mask-3.png,s,1,0.477501800050959,s,1,0.1727265000808984,0.04653519997373223,0.04755040002055466,0.09971019998192787,0.10143879998940974,0.7486802999628708
RSVPLG03,cs,20251030-135357,1.0.1,20251020-085245,728,Experiment,Both,1,Automatic,main,26,20251030-135725,global,local,300,H,H,E,E,H-E.png,E-H.png,hH,hH,mask-4.png,mask-1.png,h,1,0.808826299966313,s,0,0.20080779993440956,0.0465095000108704,0.047437400091439486,0.09842320007737726,0.09993410005699843,0.29954919998999685
RSVPLG03,cs,20251030-135357,1.0.1,20251020-085245,728,Experiment,Both,1,Automatic,main,27,20251030-135730,local,local,300,S,H,E,A,E-S.png,A-H.png,sS,hH,mask-3.png,mask-4.png,s,1,0.9456470999866724,h,1,0.18096259993035346,0.04720779997296631,0.0474514999659732,0.10068000003229827,0.1004530000500381,0.29996099998243153
RSVPLG03,cs,20251030-135357,1.0.1,20251020-085245,728,Experiment,Both,1,Automatic,main,28,20251030-135735,global,local,750,S,H,E,E,S-E.png,E-H.png,sS,hH,mask-1.png,mask-4.png,s,1,0.5734458999941126,s,0,0.23660629999358207,0.04858220007736236,0.04754810000304133,0.09979940007906407,0.10054070001933724,0.7504287000047043
RSVPLG03,cs,20251030-135357,1.0.1,20251020-085245,728,Experiment,Both,1,Automatic,main,29,20251030-135739,global,local,750,S,S,A,E,S-A.png,E-S.png,sS,sS,mask-4.png,mask-3.png,h,0,1.997548499959521,s,1,0.10753470007330179,0.04755380004644394,0.0487120000179857,0.09853439999278635,0.1014689999865368,0.748532300000079
RSVPLG03,cs,20251030-135357,1.0.1,20251020-085245,728,Experiment,Both,1,Automatic,main,30,20251030-135746,local,global,750,H,H,E,A,E-H.png,H-A.png,hH,hH,mask-2.png,mask-2.png,h,1,0.9877142999321222,s,0,0.32572139997500926,0.04753739992156625,0.04853109992109239,0.0986627999227494,0.0996080000186339,0.7492819000035524
RSVPLG03,cs,20251030-135357,1.0.1,20251020-085245,728,Experiment,Both,1,Automatic,main,31,20251030-135751,local,global,300,S,S,E,A,E-S.png,S-A.png,sS,sS,mask-1.png,mask-4.png,s,1,1.1676909000379965,h,0,0.1410122000379488,0.0483818999491632,0.04776789993047714,0.10057809995487332,0.10000510001555085,0.30131100001744926
RSVPLG03,cs,20251030-135357,1.0.1,20251020-085245,728,Experiment,Both,1,Automatic,main,32,20251030-135756,global,local,750,H,S,E,A,H-E.png,A-S.png,hH,sS,mask-3.png,mask-1.png,h,1,1.2624978000530973,h,0,0.08373680000659078,0.04656940000131726,0.048702399944886565,0.0997456000186503,0.1008739999961108,0.7488489000825211
RSVPLG03,cs,20251030-135357,1.0.1,20251020-085245,728,Experiment,Both,1,Automatic,main,33,20251030-135802,global,global,300,H,H,E,A,H-E.png,H-A.png,hH,hH,mask-3.png,mask-2.png,h,1,0.6792303000111133,h,1,0.09328749997075647,0.04735989996697754,0.04669279989320785,0.09982070000842214,0.09992789989337325,0.30153270007576793
RSVPLG03,cs,20251030-135357,1.0.1,20251020-085245,728,Experiment,Both,1,Automatic,main,34,20251030-135806,local,global,750,H,S,A,A,A-H.png,S-A.png,hH,sS,mask-2.png,mask-1.png,h,1,1.7125953999347985,h,0,0.06981590006034821,0.04768089996650815,0.046773500042036176,0.09988650004379451,0.09996600006707013,0.7502250999677926
RSVPLG03,cs,20251030-135357,1.0.1,20251020-085245,728,Experiment,Both,1,Automatic,main,35,20251030-135812,local,local,300,S,H,A,A,A-S.png,A-H.png,sS,hH,mask-2.png,mask-4.png,s,1,1.0256787999533117,h,1,0.16377780004404485,0.04799449990969151,0.04717409994918853,0.1002477000001818,0.09851359995082021,0.3019497999921441
RSVPLG03,cs,20251030-135357,1.0.1,20251020-085245,728,Experiment,Both,1,Automatic,main,36,20251030-135817,local,global,750,S,H,A,A,A-S.png,H-A.png,sS,hH,mask-2.png,mask-3.png,s,1,1.69834139989689,h,1,0.6637415000004694,0.048706899979151785,0.048707099980674684,0.10187870007939637,0.09996479994151741,0.750589800067246
RSVPLG03,cs,20251030-135357,1.0.1,20251020-085245,728,Experiment,Both,1,Automatic,main,37,20251030-135824,global,global,300,S,H,E,A,S-E.png,H-A.png,sS,hH,mask-1.png,mask-1.png,s,1,0.7334451000206172,h,1,0.34363500005565584,0.04784709995146841,0.04772049991879612,0.10005050001200289,0.09992039995267987,0.30084999999962747
RSVPLG03,cs,20251030-135357,1.0.1,20251020-085245,728,Experiment,Both,1,Automatic,main,38,20251030-135829,local,global,750,H,S,E,E,E-H.png,S-E.png,hH,sS,mask-1.png,mask-3.png,s,0,1.880313100060448,h,0,0.05492800008505583,0.04751359997317195,0.04701249999925494,0.09852200001478195,0.1002153999870643,0.7494976000161842
RSVPLG03,cs,20251030-135357,1.0.1,20251020-085245,728,Experiment,Both,1,Automatic,main,39,20251030-135835,local,local,300,H,S,A,A,A-H.png,A-S.png,hH,sS,mask-4.png,mask-2.png,h,1,1.0701789999147877,s,1,0.18040620000101626,0.04755989997647703,0.048089500050991774,0.09991400002036244,0.1010679000755772,0.30001839995384216
RSVPLG03,cs,20251030-135357,1.0.1,20251020-085245,728,Experiment,Both,1,Automatic,main,40,20251030-135840,local,local,750,H,S,A,E,A-H.png,E-S.png,hH,sS,mask-3.png,mask-1.png,h,1,0.6210157000459731,s,1,0.13541190000250936,0.04764869995415211,0.04761320003308356,0.09968989994376898,0.09970580006483942,0.7497952999547124
RSVPLG03,cs,20251030-135357,1.0.1,20251020-085245,728,Experiment,Both,1,Automatic,main,41,20251030-135845,global,local,300,H,S,E,A,H-E.png,A-S.png,hH,sS,mask-1.png,mask-3.png,h,1,0.8482606000034139,h,0,0.1067744999891147,0.04851520003285259,0.04851049999706447,0.10151930002029985,0.09982899995520711,0.29980230005458
RSVPLG03,cs,20251030-135357,1.0.1,20251020-085245,728,Experiment,Both,1,Automatic,main,42,20251030-135850,local,local,300,S,S,E,E,E-S.png,E-S.png,sS,sS,mask-3.png,mask-1.png,s,1,1.103729199967347,h,0,0.11775189999025315,0.0485333000542596,0.04855539998970926,0.10055690002627671,0.10058219998609275,0.29983440006617457
RSVPLG03,cs,20251030-135357,1.0.1,20251020-085245,728,Experiment,Both,1,Automatic,main,43,20251030-135855,local,global,750,H,H,A,E,A-H.png,H-E.png,hH,hH,mask-2.png,mask-4.png,h,1,1.106263699941337,h,1,0.6972438000375405,0.04754329996649176,0.04766339994966984,0.10078139998950064,0.09970819996669888,0.7506767000304535
RSVPLG03,cs,20251030-135357,1.0.1,20251020-085245,728,Experiment,Both,1,Automatic,main,44,20251030-135901,local,local,750,S,H,A,A,A-S.png,A-H.png,sS,hH,mask-3.png,mask-1.png,s,1,0.4974969000322744,h,1,0.13189459999557585,0.04672260000370443,0.047493800055235624,0.10097410005982965,0.09991370001807809,0.7504173000343144
RSVPLG03,cs,20251030-135357,1.0.1,20251020-085245,728,Experiment,Both,1,Automatic,main,45,20251030-135906,local,global,300,H,S,A,E,A-H.png,S-E.png,hH,sS,mask-1.png,mask-2.png,h,1,0.8853991000214592,h,0,0.4192930000135675,0.04765140009112656,0.04747669992502779,0.10089170001447201,0.10068119992502034,0.29985470010433346
RSVPLG03,cs,20251030-135357,1.0.1,20251020-085245,728,Experiment,Both,1,Automatic,main,46,20251030-135911,global,local,300,H,H,E,E,H-E.png,E-H.png,hH,hH,mask-3.png,mask-2.png,h,1,0.6418748999712989,s,0,0.20881539990659803,0.04768269998021424,0.04867709998507053,0.09992960002273321,0.10187959996983409,0.2984901999589056
RSVPLG03,cs,20251030-135357,1.0.1,20251020-085245,728,Experiment,Both,1,Automatic,main,47,20251030-135915,global,global,750,H,S,E,E,H-E.png,S-E.png,hH,sS,mask-2.png,mask-3.png,h,1,0.4483189000748098,s,1,0.1869712999323383,0.04871720005758107,0.04708829999435693,0.09971200011204928,0.09967220004182309,0.7499779000645503
RSVPLG03,cs,20251030-135357,1.0.1,20251020-085245,728,Experiment,Both,1,Automatic,main,48,20251030-135920,local,local,300,S,S,E,E,E-S.png,E-S.png,sS,sS,mask-4.png,mask-1.png,s,1,0.6380135000217706,h,0,0.19736330001614988,0.04574950004462153,0.04762059997301549,0.09965200000442564,0.10065039992332458,0.2994885001098737
RSVPLG03,cs,20251030-135357,1.0.1,20251020-085245,728,Experiment,Both,1,Automatic,main,49,20251030-135925,local,local,300,S,S,A,A,A-S.png,A-S.png,sS,sS,mask-1.png,mask-4.png,s,1,0.5471207000082359,s,1,0.14013720001094043,0.04884110006969422,0.04780860000755638,0.10083380003925413,0.10050459997728467,0.30068650003522635
RSVPLG03,cs,20251030-135357,1.0.1,20251020-085245,728,Experiment,Both,1,Automatic,main,50,20251030-135929,global,global,750,H,H,A,E,H-A.png,H-E.png,hH,hH,mask-4.png,mask-1.png,h,1,0.4307301000226289,h,1,0.1470405999571085,0.047271399991586804,0.04651820007711649,0.09918580006342381,0.09866760007571429,0.7502994999522343
RSVPLG03,cs,20251030-135357,1.0.1,20251020-085245,728,Experiment,Both,1,Automatic,main,51,20251030-135958,local,local,750,S,S,E,A,E-S.png,A-S.png,sS,sS,mask-1.png,mask-2.png,s,1,0.495690600015223,s,1,0.11523650004528463,0.047677400056272745,0.0476576000219211,0.10007359995506704,0.10084790003020316,0.7497056999709457
RSVPLG03,cs,20251030-135357,1.0.1,20251020-085245,728,Experiment,Both,1,Automatic,main,52,20251030-140003,local,local,750,H,S,A,A,A-H.png,A-S.png,hH,sS,mask-1.png,mask-1.png,h,1,0.7617266000015661,s,1,0.1183908999664709,0.04647750000003725,0.04881099995691329,0.10068690008483827,0.10090319998562336,0.7492743000620976
RSVPLG03,cs,20251030-135357,1.0.1,20251020-085245,728,Experiment,Both,1,Automatic,main,53,20251030-140008,local,local,300,S,S,A,E,A-S.png,E-S.png,sS,sS,mask-1.png,mask-2.png,s,1,0.43953390000388026,s,1,0.13811709999572486,0.047723500058054924,0.04765179997775704,0.10092540003824979,0.10056729998905212,0.2997823000187054
RSVPLG03,cs,20251030-135357,1.0.1,20251020-085245,728,Experiment,Both,1,Automatic,main,54,20251030-140013,local,local,750,H,H,A,A,A-H.png,A-H.png,hH,hH,mask-2.png,mask-2.png,h,1,0.28558390005491674,h,1,0.10189920000266284,0.04770830005872995,0.047034500050358474,0.10156159999314696,0.09937740000896156,0.7513022000202909
RSVPLG03,cs,20251030-135357,1.0.1,20251020-085245,728,Experiment,Both,1,Automatic,main,55,20251030-140017,local,global,300,S,H,E,A,E-S.png,H-A.png,sS,hH,mask-2.png,mask-4.png,s,1,0.6637091999873519,s,0,0.2532813000725582,0.04767770005855709,0.048698300030082464,0.10089140001218766,0.09991870005615056,0.2995468999724835
RSVPLG03,cs,20251030-135357,1.0.1,20251020-085245,728,Experiment,Both,1,Automatic,main,56,20251030-140022,global,global,300,S,H,E,E,S-E.png,H-E.png,sS,hH,mask-1.png,mask-4.png,s,1,1.0131863000569865,h,1,0.2810155999613926,0.04598470008932054,0.0471667000092566,0.09798369999043643,0.10110540001187474,0.2988314999965951
RSVPLG03,cs,20251030-135357,1.0.1,20251020-085245,728,Experiment,Both,1,Automatic,main,57,20251030-140027,global,global,750,H,S,A,A,H-A.png,S-A.png,hH,sS,mask-4.png,mask-1.png,h,1,0.6410638999659568,s,1,0.28500320005696267,0.04572860000189394,0.048389599891379476,0.09994079999160022,0.10139209998305887,0.748613000032492
RSVPLG03,cs,20251030-135357,1.0.1,20251020-085245,728,Experiment,Both,1,Automatic,main,58,20251030-140032,global,local,300,H,S,A,E,H-A.png,E-S.png,hH,sS,mask-4.png,mask-2.png,h,1,0.820838600047864,h,0,0.503970600082539,0.04752539994660765,0.048084599897265434,0.09929569996893406,0.10147509991656989,0.29952260002028197
RSVPLG03,cs,20251030-135357,1.0.1,20251020-085245,728,Experiment,Both,1,Automatic,main,59,20251030-140037,local,local,300,H,S,E,A,E-H.png,A-S.png,hH,sS,mask-3.png,mask-1.png,h,1,0.46703919989522547,s,1,0.15563019993714988,0.04753630002960563,0.04668080003466457,0.0997324000345543,0.09922869992442429,0.29933860001619905
RSVPLG03,cs,20251030-135357,1.0.1,20251020-085245,728,Experiment,Both,1,Automatic,main,60,20251030-140041,global,global,300,S,S,E,E,S-E.png,S-E.png,sS,sS,mask-3.png,mask-1.png,s,1,1.3064980000490323,h,0,0.2013206999981776,0.04653180006425828,0.046191300032660365,0.09890700003597885,0.10033050004858524,0.2999192000133917
RSVPLG03,cs,20251030-135357,1.0.1,20251020-085245,728,Experiment,Both,1,Automatic,main,61,20251030-140047,global,global,300,S,S,A,A,S-A.png,S-A.png,sS,sS,mask-2.png,mask-3.png,s,1,0.7361240000464022,s,1,0.33193099999334663,0.04750719992443919,0.047583599924109876,0.0999236999778077,0.09978899999987334,0.2995457999641076
RSVPLG03,cs,20251030-135357,1.0.1,20251020-085245,728,Experiment,Both,1,Automatic,main,62,20251030-140052,local,local,300,H,S,A,E,A-H.png,E-S.png,hH,sS,mask-1.png,mask-4.png,h,1,0.38364789995830506,s,1,0.1862990000518039,0.04661429999396205,0.04767080000601709,0.09880879998672754,0.09986580000258982,0.29953580000437796
RSVPLG03,cs,20251030-135357,1.0.1,20251020-085245,728,Experiment,Both,1,Automatic,main,63,20251030-140056,local,local,300,H,S,E,A,E-H.png,A-S.png,hH,sS,mask-4.png,mask-4.png,h,1,0.3155735000036657,s,1,0.15833220002241433,0.04753410001285374,0.04775919998064637,0.10145129996817559,0.10122029995545745,0.3002242000075057
RSVPLG03,cs,20251030-135357,1.0.1,20251020-085245,728,Experiment,Both,1,Automatic,main,64,20251030-140100,local,global,300,H,S,E,E,E-H.png,S-E.png,hH,sS,mask-1.png,mask-2.png,h,1,1.022142200032249,s,1,0.249187899986282,0.04757830000016838,0.04854820005130023,0.10081380000337958,0.09956840006634593,0.3009959999471903
RSVPLG03,cs,20251030-135357,1.0.1,20251020-085245,728,Experiment,Both,1,Automatic,main,65,20251030-140105,local,local,750,H,S,A,E,A-H.png,E-S.png,hH,sS,mask-2.png,mask-1.png,h,1,0.5458577999379486,s,1,0.23699270002543926,0.04756499989889562,0.047459199908189476,0.10056849999818951,0.10045289993286133,0.7506419999990612
RSVPLG03,cs,20251030-135357,1.0.1,20251020-085245,728,Experiment,Both,1,Automatic,main,66,20251030-140110,global,local,300,H,H,A,A,H-A.png,A-H.png,hH,hH,mask-4.png,mask-3.png,h,1,0.6333906999789178,h,1,0.1522411999758333,0.04751529998611659,0.04580429999623448,0.09953300002962351,0.09988700004760176,0.2998694999841973
RSVPLG03,cs,20251030-135357,1.0.1,20251020-085245,728,Experiment,Both,1,Automatic,main,67,20251030-140115,local,global,300,S,S,E,A,E-S.png,S-A.png,sS,sS,mask-1.png,mask-2.png,s,1,0.4641814000206068,h,0,0.12331920000724494,0.0455522999400273,0.04662340006325394,0.09959140000864863,0.1007256000302732,0.29930219997186214
RSVPLG03,cs,20251030-135357,1.0.1,20251020-085245,728,Experiment,Both,1,Automatic,main,68,20251030-140119,local,global,750,H,H,A,A,A-H.png,H-A.png,hH,hH,mask-1.png,mask-4.png,h,1,0.828456100076437,h,1,0.09524860000237823,0.04734569997526705,0.04753730003722012,0.10112639993894845,0.09862109995447099,0.7514501999830827
RSVPLG03,cs,20251030-135357,1.0.1,20251020-085245,728,Experiment,Both,1,Automatic,main,69,20251030-140124,global,global,750,S,S,E,A,S-E.png,S-A.png,sS,sS,mask-4.png,mask-2.png,s,1,0.5828231000341475,s,1,0.20464380003977567,0.04867849999573082,0.04758130002301186,0.10086270002648234,0.10071260004770011,0.7511796000180766
RSVPLG03,cs,20251030-135357,1.0.1,20251020-085245,728,Experiment,Both,1,Automatic,main,70,20251030-140129,local,global,300,H,S,A,A,A-H.png,S-A.png,hH,sS,mask-2.png,mask-4.png,h,1,1.5026441999943927,h,0,0.5466202999232337,0.04711089993361384,0.04632070008665323,0.0992351999739185,0.09937860001809895,0.2998011999297887
RSVPLG03,cs,20251030-135357,1.0.1,20251020-085245,728,Experiment,Both,1,Automatic,main,71,20251030-140135,global,local,750,S,S,A,E,S-A.png,E-S.png,sS,sS,mask-3.png,mask-3.png,s,1,0.5313283000141382,s,1,0.39678410009946674,0.04675159999169409,0.046545500052161515,0.09984009992331266,0.09957600000780076,0.7507891999557614
RSVPLG03,cs,20251030-135357,1.0.1,20251020-085245,728,Experiment,Both,1,Automatic,main,72,20251030-140140,local,local,750,H,H,E,A,E-H.png,A-H.png,hH,hH,mask-3.png,mask-3.png,h,1,2.0125757000641897,s,0,0.13447879999876022,0.047594400006346405,0.04909269989002496,0.09961050003767014,0.10002179990988225,0.7482407001079991
RSVPLG03,cs,20251030-135357,1.0.1,20251020-085245,728,Experiment,Both,1,Automatic,main,73,20251030-140146,global,local,750,S,H,A,A,S-A.png,A-H.png,sS,hH,mask-1.png,mask-1.png,s,1,0.7652050999458879,s,0,0.12054260005243123,0.04852509999182075,0.04764220002107322,0.10033929999917746,0.10001020005438477,0.7505128999473527
RSVPLG03,cs,20251030-135357,1.0.1,20251020-085245,728,Experiment,Both,1,Automatic,main,74,20251030-140151,global,global,300,S,S,A,A,S-A.png,S-A.png,sS,sS,mask-2.png,mask-1.png,s,1,1.2343856000807136,h,0,0.5395542000187561,0.04761709994636476,0.04772969998884946,0.09981489996425807,0.09993349993601441,0.2983736000023782
RSVPLG03,cs,20251030-135357,1.0.1,20251020-085245,728,Experiment,Both,1,Automatic,main,75,20251030-140157,local,local,750,H,H,A,E,A-H.png,E-H.png,hH,hH,mask-3.png,mask-1.png,h,1,0.9822977000148967,s,0,0.8385416999226436,0.04867280006874353,0.04614170000422746,0.09989920002408326,0.09869520005304366,0.7510256000095978
RSVPLG03,cs,20251030-135357,1.0.1,20251020-085245,728,Experiment,Both,1,Automatic,main,76,20251030-140216,global,global,750,S,H,E,E,S-E.png,H-E.png,sS,hH,mask-4.png,mask-2.png,s,1,0.3659967000130564,h,1,0.15156399994157255,0.04767470003571361,0.04871919995639473,0.10083919996395707,0.10091779998037964,0.7494554000440985
RSVPLG03,cs,20251030-135357,1.0.1,20251020-085245,728,Experiment,Both,1,Automatic,main,77,20251030-140221,local,global,300,S,S,A,A,A-S.png,S-A.png,sS,sS,mask-3.png,mask-4.png,s,1,0.8152994000120088,h,0,0.13789220002945513,0.04853190004359931,0.04726099991239607,0.1015464001102373,0.09849000000394881,0.3016583001008257
RSVPLG03,cs,20251030-135357,1.0.1,20251020-085245,728,Experiment,Both,1,Automatic,main,78,20251030-140225,global,global,750,S,H,A,A,S-A.png,H-A.png,sS,hH,mask-1.png,mask-4.png,s,1,0.4261938000563532,h,1,0.18582050001714379,0.04762069997377694,0.048713999916799366,0.10167659993749112,0.09998940001241863,0.7504003000212833
RSVPLG03,cs,20251030-135357,1.0.1,20251020-085245,728,Experiment,Both,1,Automatic,main,79,20251030-140230,local,global,300,S,S,E,A,E-S.png,S-A.png,sS,sS,mask-1.png,mask-3.png,s,1,0.7030193000100553,h,0,0.17191489995457232,0.04743400006555021,0.048563400050625205,0.09846330003347248,0.10058460000436753,0.2991251000203192
RSVPLG03,cs,20251030-135357,1.0.1,20251020-085245,728,Experiment,Both,1,Automatic,main,80,20251030-140235,global,global,300,S,S,E,E,S-E.png,S-E.png,sS,sS,mask-2.png,mask-2.png,s,1,0.5955878999084234,s,1,0.09372530004475266,0.04752550006378442,0.04749100003391504,0.09949409996625036,0.0993675000499934,0.29968479997478426
RSVPLG03,cs,20251030-135357,1.0.1,20251020-085245,728,Experiment,Both,1,Automatic,main,81,20251030-140239,local,global,300,S,H,A,E,A-S.png,H-E.png,sS,hH,mask-3.png,mask-4.png,s,1,0.7331483999732882,s,0,0.08611099992413074,0.04751339997164905,0.04749999998603016,0.09879149997141212,0.10052779992111027,0.29859340004622936
RSVPLG03,cs,20251030-135357,1.0.1,20251020-085245,728,Experiment,Both,1,Automatic,main,82,20251030-140244,global,global,750,H,H,E,E,H-E.png,H-E.png,hH,hH,mask-4.png,mask-2.png,h,1,1.0571334999985993,h,1,0.28463200002443045,0.04851049999706447,0.047259400016628206,0.09952259995043278,0.09952789999078959,0.7493968999478966
RSVPLG03,cs,20251030-135357,1.0.1,20251020-085245,728,Experiment,Both,1,Automatic,main,83,20251030-140249,local,local,750,S,H,E,E,E-S.png,E-H.png,sS,hH,mask-4.png,mask-3.png,s,1,0.5242464999901131,h,1,0.13335499993991107,0.047584100044332445,0.04867489996831864,0.0986160000320524,0.10077419993467629,0.7486609000479802
RSVPLG03,cs,20251030-135357,1.0.1,20251020-085245,728,Experiment,Both,1,Automatic,main,84,20251030-140254,global,local,750,S,H,A,E,S-A.png,E-H.png,sS,hH,mask-2.png,mask-2.png,s,1,0.7168153000529855,s,0,0.11919750005472451,0.04578739998396486,0.04745399998500943,0.0982726999791339,0.09920249995775521,0.7498432999709621
RSVPLG03,cs,20251030-135357,1.0.1,20251020-085245,728,Experiment,Both,1,Automatic,main,85,20251030-140259,local,global,300,S,S,A,E,A-S.png,S-E.png,sS,sS,mask-4.png,mask-4.png,s,1,2.2889172000577673,h,0,0.12352579995058477,0.04652500001247972,0.048504099948331714,0.09853580000344664,0.10150629992131144,0.2989874000195414
RSVPLG03,cs,20251030-135357,1.0.1,20251020-085245,728,Experiment,Both,1,Automatic,main,86,20251030-140306,global,global,750,H,H,E,E,H-E.png,H-E.png,hH,hH,mask-3.png,mask-3.png,h,1,0.5204710999969393,h,1,0.0921666999347508,0.04594560002442449,0.046723100007511675,0.10021720000077039,0.09993519994895905,0.7503402000293136
RSVPLG03,cs,20251030-135357,1.0.1,20251020-085245,728,Experiment,Both,1,Automatic,main,87,20251030-140311,global,local,300,H,S,A,A,H-A.png,A-S.png,hH,sS,mask-4.png,mask-4.png,h,1,0.6510609000688419,h,0,0.28011659998446703,0.04849089996423572,0.04771519999485463,0.10141649993602186,0.09983419999480247,0.30132989992853254
RSVPLG03,cs,20251030-135357,1.0.1,20251020-085245,728,Experiment,Both,1,Automatic,main,88,20251030-140315,global,global,300,S,H,A,A,S-A.png,H-A.png,sS,hH,mask-1.png,mask-1.png,s,1,2.8514926999341697,h,1,0.08503839990589768,0.04651799995917827,0.04869339999277145,0.09968850004952401,0.09974800003692508,0.299002300016582
RSVPLG03,cs,20251030-135357,1.0.1,20251020-085245,728,Experiment,Both,1,Automatic,main,89,20251030-140322,local,local,300,H,S,E,E,E-H.png,E-S.png,hH,sS,mask-4.png,mask-1.png,h,1,1.1855500000528991,s,1,0.18519570003263652,0.04882359993644059,0.04769419995136559,0.10102669999469072,0.10090820002369583,0.30081499996595085
RSVPLG03,cs,20251030-135357,1.0.1,20251020-085245,728,Experiment,Both,1,Automatic,main,90,20251030-140327,global,local,750,S,S,A,A,S-A.png,A-S.png,sS,sS,mask-2.png,mask-3.png,s,1,0.7025550999678671,s,1,0.0896035999758169,0.04668409994337708,0.046666800044476986,0.09987499995622784,0.10084670002106577,0.7490838998928666
RSVPLG03,cs,20251030-135357,1.0.1,20251020-085245,728,Experiment,Both,1,Automatic,main,91,20251030-140332,global,local,750,H,H,A,E,H-A.png,E-H.png,hH,hH,mask-3.png,mask-1.png,h,1,1.7793730000266805,h,1,0.1034308000234887,0.045687600038945675,0.0466883999761194,0.0998812000034377,0.09888589999172837,0.749807900050655
RSVPLG03,cs,20251030-135357,1.0.1,20251020-085245,728,Experiment,Both,1,Automatic,main,92,20251030-140338,global,global,300,S,S,E,A,S-E.png,S-A.png,sS,sS,mask-4.png,mask-2.png,s,1,1.7418627999722958,h,0,0.24649359995964915,0.04576839995570481,0.048599399975501,0.098891899921,0.09971380000934005,0.29931299993768334
RSVPLG03,cs,20251030-135357,1.0.1,20251020-085245,728,Experiment,Both,1,Automatic,main,93,20251030-140344,global,global,300,S,S,A,A,S-A.png,S-A.png,sS,sS,mask-1.png,mask-1.png,s,1,1.4223686000332236,h,0,0.5361524000763893,0.04754469997715205,0.04737400007434189,0.09938659996259958,0.10033659997861832,0.29934209992643446
RSVPLG03,cs,20251030-135357,1.0.1,20251020-085245,728,Experiment,Both,1,Automatic,main,94,20251030-140350,local,local,750,S,S,A,E,A-S.png,E-S.png,sS,sS,mask-3.png,mask-4.png,s,1,0.5900658000027761,s,1,0.11512430000584573,0.04751790000591427,0.047306800028309226,0.099527099984698,0.10035680001601577,0.7493395999772474
RSVPLG03,cs,20251030-135357,1.0.1,20251020-085245,728,Experiment,Both,1,Automatic,main,95,20251030-140355,global,global,300,H,H,E,E,H-E.png,H-E.png,hH,hH,mask-2.png,mask-3.png,h,1,1.589367299922742,s,0,0.6479193000122905,0.045565699925646186,0.048511400003917515,0.09938349993899465,0.10118839994538575,0.29819190001580864
RSVPLG03,cs,20251030-135357,1.0.1,20251020-085245,728,Experiment,Both,1,Automatic,main,96,20251030-140401,global,global,300,S,H,E,A,S-E.png,H-A.png,sS,hH,mask-4.png,mask-1.png,s,1,0.7981409999774769,h,1,0.14965119992848486,0.04751980002038181,0.04752379993442446,0.10153490002267063,0.09954209998250008,0.30196800001431257
RSVPLG03,cs,20251030-135357,1.0.1,20251020-085245,728,Experiment,Both,1,Automatic,main,97,20251030-140406,local,local,750,H,S,E,E,E-H.png,E-S.png,hH,sS,mask-4.png,mask-1.png,h,1,0.9880206999368966,s,1,0.3644344999920577,0.04857430001720786,0.04690740001387894,0.09964779997244477,0.1003158000530675,0.7495307999197394
RSVPLG03,cs,20251030-135357,1.0.1,20251020-085245,728,Experiment,Both,1,Automatic,main,98,20251030-140411,local,local,300,H,S,E,E,E-H.png,E-S.png,hH,sS,mask-1.png,mask-1.png,h,1,1.128904000041075,s,1,0.21809049998410046,0.04756199999246746,0.04778370005078614,0.10055480001028627,0.09951400000136346,0.30034479999449104
RSVPLG03,cs,20251030-135357,1.0.1,20251020-085245,728,Experiment,Both,1,Automatic,main,99,20251030-140416,global,local,750,S,S,E,A,S-E.png,A-S.png,sS,sS,mask-3.png,mask-1.png,s,1,0.8781368000200018,s,1,0.9024220000719652,0.0456917000701651,0.04681149998214096,0.09988540003541857,0.10000450001098216,0.750134100089781
RSVPLG03,cs,20251030-135357,1.0.1,20251020-085245,728,Experiment,Both,1,Automatic,main,100,20251030-140422,local,local,750,S,S,E,E,E-S.png,E-S.png,sS,sS,mask-2.png,mask-2.png,s,1,0.46208910003770143,s,1,0.11720920004881918,0.048850599909201264,0.04752420005388558,0.10107539989985526,0.09950360003858805,0.7511408999562263
RSVPLG03,cs,20251030-135357,1.0.1,20251020-085245,728,Experiment,Both,1,Automatic,main,101,20251030-140442,local,global,750,S,S,A,A,A-S.png,S-A.png,sS,sS,mask-3.png,mask-3.png,s,1,1.152139800018631,s,1,0.23082349996548146,0.045699400012381375,0.047687499900348485,0.09889370005112141,0.09887709992472082,0.7499830001033843
RSVPLG03,cs,20251030-135357,1.0.1,20251020-085245,728,Experiment,Both,1,Automatic,main,102,20251030-140448,global,local,750,H,H,A,E,H-A.png,E-H.png,hH,hH,mask-1.png,mask-2.png,h,1,0.4749825999606401,h,1,0.1010805000551045,0.04769409995060414,0.0476927999407053,0.0998933999799192,0.09990449994802475,0.7496013999916613
RSVPLG03,cs,20251030-135357,1.0.1,20251020-085245,728,Experiment,Both,1,Automatic,main,103,20251030-140452,global,global,300,H,S,E,E,H-E.png,S-E.png,hH,sS,mask-2.png,mask-3.png,h,1,0.7435467001050711,s,1,0.0733716000104323,0.04773730004671961,0.047711199964396656,0.09924380003940314,0.09998639998957515,0.3001159999985248
RSVPLG03,cs,20251030-135357,1.0.1,20251020-085245,728,Experiment,Both,1,Automatic,main,104,20251030-140457,local,global,750,H,S,A,E,A-H.png,S-E.png,hH,sS,mask-4.png,mask-1.png,h,1,1.3241580000612885,s,1,0.08945960004348308,0.0467268000356853,0.04722770000807941,0.10100330004934222,0.09948450000956655,0.7495243999874219
RSVPLG03,cs,20251030-135357,1.0.1,20251020-085245,728,Experiment,Both,1,Automatic,main,105,20251030-140503,local,local,300,S,S,A,E,A-S.png,E-S.png,sS,sS,mask-1.png,mask-1.png,s,1,1.0875593000091612,h,0,0.49228720006067306,0.04494800011161715,0.047327800071798265,0.09829630004242063,0.10056160006206483,0.29799170000478625
RSVPLG03,cs,20251030-135357,1.0.1,20251020-085245,728,Experiment,Both,1,Automatic,main,106,20251030-140508,local,global,300,S,S,E,E,E-S.png,S-E.png,sS,sS,mask-2.png,mask-1.png,s,1,1.1762463999912143,h,0,0.16719319997355342,0.04762179998215288,0.047583799925632775,0.09974720003083348,0.10051699995528907,0.300167000037618
RSVPLG03,cs,20251030-135357,1.0.1,20251020-085245,728,Experiment,Both,1,Automatic,main,107,20251030-140513,global,local,750,H,S,A,A,H-A.png,A-S.png,hH,sS,mask-3.png,mask-1.png,h,1,0.9023291000630707,s,1,0.14152059995103627,0.04754289996344596,0.046593000064603984,0.09943179995752871,0.10063060000538826,0.7494927999796346
RSVPLG03,cs,20251030-135357,1.0.1,20251020-085245,728,Experiment,Both,1,Automatic,main,108,20251030-140519,local,local,750,H,H,E,A,E-H.png,A-H.png,hH,hH,mask-3.png,mask-1.png,h,1,1.2639038999332115,h,1,0.10737989994231611,0.0484245999250561,0.04755680006928742,0.10036659997422248,0.10058550001122057,0.7509059999138117
RSVPLG03,cs,20251030-135357,1.0.1,20251020-085245,728,Experiment,Both,1,Automatic,main,109,20251030-140524,global,local,300,S,S,A,A,S-A.png,A-S.png,sS,sS,mask-4.png,mask-3.png,s,1,1.5334431999363005,h,0,0.15080489998217672,0.047552800038829446,0.04749679996166378,0.09854769997764379,0.10048570006620139,0.2982354999985546
RSVPLG03,cs,20251030-135357,1.0.1,20251020-085245,728,Experiment,Both,1,Automatic,main,110,20251030-140530,global,global,750,H,S,E,E,H-E.png,S-E.png,hH,sS,mask-1.png,mask-2.png,h,1,0.747945599956438,h,0,0.07573200005572289,0.04854890005663037,0.04750740004237741,0.10063240001909435,0.0995348000433296,0.7500316000077873
RSVPLG03,cs,20251030-135357,1.0.1,20251020-085245,728,Experiment,Both,1,Automatic,main,111,20251030-140535,global,local,300,S,H,A,A,S-A.png,A-H.png,sS,hH,mask-1.png,mask-4.png,h,0,1.872990500065498,s,0,0.12150210002437234,0.04755839996505529,0.04836590006016195,0.09837060002610087,0.10142870002891868,0.2986348000122234
RSVPLG03,cs,20251030-135357,1.0.1,20251020-085245,728,Experiment,Both,1,Automatic,main,112,20251030-140540,local,global,750,H,H,E,A,E-H.png,H-A.png,hH,hH,mask-2.png,mask-1.png,h,1,0.7791731000179425,h,1,0.0942941999528557,0.04767100000753999,0.0476149000460282,0.10080749995540828,0.10175520007032901,0.7491321999114007
RSVPLG03,cs,20251030-135357,1.0.1,20251020-085245,728,Experiment,Both,1,Automatic,main,113,20251030-140545,local,global,750,S,H,A,E,A-S.png,H-E.png,sS,hH,mask-3.png,mask-1.png,s,1,3.488276100018993,h,1,0.02208769996650517,0.046853399951942265,0.04749519994948059,0.10100339993368834,0.10062369995284826,0.7505518000107259
RSVPLG03,cs,20251030-135357,1.0.1,20251020-085245,728,Experiment,Both,1,Automatic,main,114,20251030-140553,global,local,300,H,S,E,A,H-E.png,A-S.png,hH,sS,mask-4.png,mask-3.png,h,1,1.1783475000411272,s,1,0.10956809995695949,0.0483231000835076,0.04761120001785457,0.10130000009667128,0.10157450009137392,0.29951949999667704
RSVPLG03,cs,20251030-135357,1.0.1,20251020-085245,728,Experiment,Both,1,Automatic,main,115,20251030-140558,local,global,750,S,S,A,A,A-S.png,S-A.png,sS,sS,mask-4.png,mask-3.png,s,1,1.7714878999395296,h,0,0.05885799997486174,0.04751219996251166,0.04771089996211231,0.10000279999803752,0.09988879994489253,0.7498642000136897
RSVPLG03,cs,20251030-135357,1.0.1,20251020-085245,728,Experiment,Both,1,Automatic,main,116,20251030-140604,global,global,750,S,S,A,A,S-A.png,S-A.png,sS,sS,mask-4.png,mask-1.png,s,1,0.9319793999893591,h,0,0.07354080001823604,0.047677500057034194,0.047539399936795235,0.0998933999799192,0.1007095999084413,0.7494892000686377
RSVPLG03,cs,20251030-135357,1.0.1,20251020-085245,728,Experiment,Both,1,Automatic,main,117,20251030-140609,global,local,750,H,H,A,A,H-A.png,A-H.png,hH,hH,mask-2.png,mask-2.png,h,1,0.634601500001736,h,1,0.08698470005765557,0.04658159997779876,0.0464347000233829,0.09975499997381121,0.09923109994269907,0.7497391999932006
RSVPLG03,cs,20251030-135357,1.0.1,20251020-085245,728,Experiment,Both,1,Automatic,main,118,20251030-140614,global,local,300,H,S,A,A,H-A.png,A-S.png,hH,sS,mask-1.png,mask-4.png,h,1,1.1202517000492662,s,1,0.11491370003204793,0.04727940005250275,0.04720680008176714,0.10045810008887202,0.09823920007329434,0.30164479999803007
RSVPLG03,cs,20251030-135357,1.0.1,20251020-085245,728,Experiment,Both,1,Automatic,main,119,20251030-140619,global,local,300,S,H,A,E,S-A.png,E-H.png,sS,hH,mask-2.png,mask-2.png,s,1,0.6637771000387147,h,1,0.32901980006136,0.04862919996958226,0.046991400071419775,0.10080869996454567,0.09929000004194677,0.3012551999418065
RSVPLG03,cs,20251030-135357,1.0.1,20251020-085245,728,Experiment,Both,1,Automatic,main,120,20251030-140624,local,local,300,H,S,A,E,A-H.png,E-S.png,hH,sS,mask-3.png,mask-3.png,h,1,0.6396477000089362,s,1,0.10686970001552254,0.04752789996564388,0.04794610000681132,0.09852759994100779,0.09901110001374036,0.2994240999687463
RSVPLG03,cs,20251030-135357,1.0.1,20251020-085245,728,Experiment,Both,1,Automatic,main,121,20251030-140629,global,local,300,H,H,A,E,H-A.png,E-H.png,hH,hH,mask-4.png,mask-4.png,h,1,0.6659418999915943,h,1,0.2734966999851167,0.04848809994291514,0.04744250001385808,0.10151869989931583,0.10041890002321452,0.3006296999519691
RSVPLG03,cs,20251030-135357,1.0.1,20251020-085245,728,Experiment,Both,1,Automatic,main,122,20251030-140633,global,global,750,S,S,E,A,S-E.png,S-A.png,sS,sS,mask-3.png,mask-2.png,s,1,0.6777005000039935,h,0,0.2360036000609398,0.047483500093221664,0.04749590007122606,0.09949540009256452,0.10053200006950647,0.7496520000277087
RSVPLG03,cs,20251030-135357,1.0.1,20251020-085245,728,Experiment,Both,1,Automatic,main,123,20251030-140639,local,global,300,H,S,E,E,E-H.png,S-E.png,hH,sS,mask-3.png,mask-1.png,h,1,0.6299924000632018,s,1,0.6753686999436468,0.048625499941408634,0.047546899993903935,0.1009392999112606,0.10070820001419634,0.300350199919194
RSVPLG03,cs,20251030-135357,1.0.1,20251020-085245,728,Experiment,Both,1,Automatic,main,124,20251030-140644,global,local,300,S,H,E,E,S-E.png,E-H.png,sS,hH,mask-3.png,mask-2.png,s,1,0.6687319999327883,h,1,0.19029339996632189,0.047577999997884035,0.048465500003658235,0.10165820003021508,0.10136259999126196,0.3001071000471711
RSVPLG03,cs,20251030-135357,1.0.1,20251020-085245,728,Experiment,Both,1,Automatic,main,125,20251030-140649,local,global,750,H,H,E,A,E-H.png,H-A.png,hH,hH,mask-3.png,mask-4.png,h,1,0.7996823999565095,s,0,0.1796139000216499,0.04764479992445558,0.047542399959638715,0.10170340002514422,0.09858509991317987,0.751669600023888
RSVPLG03,cs,20251030-140757,1.0.1,20251020-085245,728,Experiment,Both,1,Automatic,warmup,1,20251030-140833,global,local,750,S,H,E,A,S-E.png,A-H.png,sS,hH,mask-4.png,mask-2.png,s,1,1.2085370999993756,h,1,0.16763909999281168,0.047434600070118904,0.04868369991891086,0.10053120006341487,0.10147420002613217,0.7503275000490248
RSVPLG03,cs,20251030-140757,1.0.1,20251020-085245,728,Experiment,Both,1,Automatic,warmup,2,20251030-140839,local,local,300,H,S,A,A,A-H.png,A-S.png,hH,sS,mask-3.png,mask-4.png,h,1,0.46443519997410476,s,1,0.0546759000280872,0.04755260003730655,0.046794299967586994,0.09966210008133203,0.0999864999903366,0.2997741000726819
RSVPLG03,cs,20251030-140757,1.0.1,20251020-085245,728,Experiment,Both,1,Automatic,warmup,3,20251030-140843,local,local,750,H,S,A,A,A-H.png,A-S.png,hH,sS,mask-2.png,mask-4.png,h,1,0.49892350006848574,s,1,0.2302423999644816,0.04756259999703616,0.04887249995954335,0.09955769998487085,0.10095380002167076,0.7496923999860883
RSVPLG03,cs,20251030-140757,1.0.1,20251020-085245,728,Experiment,Both,1,Automatic,warmup,4,20251030-140848,local,global,750,S,H,E,E,E-S.png,H-E.png,sS,hH,mask-4.png,mask-3.png,s,1,0.6467422000132501,h,1,0.14985829999204725,0.048659599968232214,0.048809500061906874,0.10086810006760061,0.09999090002384037,0.7513407999649644
RSVPLG03,cs,20251030-140757,1.0.1,20251020-085245,728,Experiment,Both,1,Automatic,warmup,5,20251030-140853,local,global,300,S,H,A,E,A-S.png,H-E.png,sS,hH,mask-4.png,mask-2.png,s,1,1.0015382999554276,h,1,0.10817799996584654,0.046712399926036596,0.04674709995742887,0.09997629991266876,0.10001219995319843,0.300194300012663
RSVPLG03,cs,20251030-140757,1.0.1,20251020-085245,728,Experiment,Both,1,Automatic,main,6,20251030-140858,global,local,750,S,H,E,A,S-E.png,A-H.png,sS,hH,mask-3.png,mask-2.png,s,1,0.7787730999989435,h,1,0.14908130001276731,0.04849560000002384,0.047718900023028255,0.10076359997037798,0.10087209998164326,0.7510925999376923
RSVPLG03,cs,20251030-140757,1.0.1,20251020-085245,728,Experiment,Both,1,Automatic,main,7,20251030-140903,local,local,750,H,S,E,A,E-H.png,A-S.png,hH,sS,mask-2.png,mask-4.png,h,1,0.602250500000082,s,1,0.17101030005142093,0.04769000003580004,0.0476811999687925,0.09991410002112389,0.10077110002748668,0.7493037000531331
RSVPLG03,cs,20251030-140757,1.0.1,20251020-085245,728,Experiment,Both,1,Automatic,main,8,20251030-140908,local,local,300,H,H,A,A,A-H.png,A-H.png,hH,hH,mask-1.png,mask-4.png,h,1,1.4476908999495208,h,1,0.08659830002579838,0.04665290005505085,0.04668969998601824,0.09984659997280687,0.09974720003083348,0.30050130002200603
RSVPLG03,cs,20251030-140757,1.0.1,20251020-085245,728,Experiment,Both,1,Automatic,main,9,20251030-140913,local,global,750,H,H,E,E,E-H.png,H-E.png,hH,hH,mask-4.png,mask-4.png,h,1,1.2809827000601217,h,1,1.3970278999768198,0.04669170000124723,0.04770330002065748,0.09988440002780408,0.0999117000028491,0.7516969999996945
RSVPLG03,cs,20251030-140757,1.0.1,20251020-085245,728,Experiment,Both,1,Automatic,main,10,20251030-140920,local,global,750,H,H,E,A,E-H.png,H-A.png,hH,hH,mask-3.png,mask-2.png,h,1,0.6728179999627173,h,1,0.0892427999060601,0.04702890000771731,0.04775060003157705,0.09924890007823706,0.10000059998128563,0.7497291000327095
RSVPLG03,cs,20251030-140757,1.0.1,20251020-085245,728,Experiment,Both,1,Automatic,main,11,20251030-140925,global,local,300,S,S,A,A,S-A.png,A-S.png,sS,sS,mask-3.png,mask-4.png,s,1,0.915203999960795,h,0,0.20399579999502748,0.047733800020068884,0.04650709999259561,0.09997340000700206,0.09970010002143681,0.30061799997929484
RSVPLG03,cs,20251030-140757,1.0.1,20251020-085245,728,Experiment,Both,1,Automatic,main,12,20251030-140930,global,local,300,S,S,A,E,S-A.png,E-S.png,sS,sS,mask-1.png,mask-1.png,s,1,0.8172962999669835,h,0,0.6497872000327334,0.048450500005856156,0.04639749997295439,0.1013756999745965,0.09936280001420528,0.3021404000464827
RSVPLG03,cs,20251030-140757,1.0.1,20251020-085245,728,Experiment,Both,1,Automatic,main,13,20251030-140936,global,local,750,H,S,A,A,H-A.png,A-S.png,hH,sS,mask-4.png,mask-2.png,h,1,0.5535892000189051,s,1,0.30584509996697307,0.04723380005452782,0.046743499930016696,0.1003822999773547,0.09891049994621426,0.7511677000438794
RSVPLG03,cs,20251030-140757,1.0.1,20251020-085245,728,Experiment,Both,1,Automatic,main,14,20251030-140941,local,global,300,S,H,A,A,A-S.png,H-A.png,sS,hH,mask-4.png,mask-4.png,s,1,0.6436033999780193,h,1,0.3176931000780314,0.04767080000601709,0.047712599975056946,0.10086980008054525,0.09977519989479333,0.30052790010813624
RSVPLG03,cs,20251030-140757,1.0.1,20251020-085245,728,Experiment,Both,1,Automatic,main,15,20251030-140945,local,local,750,S,H,E,A,E-S.png,A-H.png,sS,hH,mask-1.png,mask-3.png,s,1,0.46432539995294064,h,1,0.23258870001882315,0.04769020003732294,0.04770799994003028,0.09989249997306615,0.09991459990851581,0.7503739000530913
RSVPLG03,cs,20251030-140757,1.0.1,20251020-085245,728,Experiment,Both,1,Automatic,main,16,20251030-140950,local,local,300,S,H,E,E,E-S.png,E-H.png,sS,hH,mask-3.png,mask-2.png,s,1,0.6523814999964088,h,1,0.6192206999985501,0.04750999994575977,0.04726869997102767,0.1005507999798283,0.10029269999358803,0.30013789993245155
RSVPLG03,cs,20251030-140757,1.0.1,20251020-085245,728,Experiment,Both,1,Automatic,main,17,20251030-140955,local,local,750,S,S,A,E,A-S.png,E-S.png,sS,sS,mask-2.png,mask-2.png,s,1,0.3967089999932796,s,1,0.18777600000612438,0.04751240008044988,0.04680420004297048,0.10069099999964237,0.10088670009281486,0.7506567999953404
RSVPLG03,cs,20251030-140757,1.0.1,20251020-085245,728,Experiment,Both,1,Automatic,main,18,20251030-141000,local,local,750,S,S,A,A,A-S.png,A-S.png,sS,sS,mask-4.png,mask-4.png,s,1,0.45940149994567037,s,1,0.20044569997116923,0.04853480006568134,0.04753290000371635,0.10154459998011589,0.09955439995974302,0.7520415000617504
RSVPLG03,cs,20251030-140757,1.0.1,20251020-085245,728,Experiment,Both,1,Automatic,main,19,20251030-141005,global,local,300,S,S,A,E,S-A.png,E-S.png,sS,sS,mask-3.png,mask-2.png,s,1,1.2146915000630543,h,0,0.6472306000068784,0.04669879993889481,0.04664189997129142,0.09991780004929751,0.09959040000103414,0.30010270001366735
RSVPLG03,cs,20251030-140757,1.0.1,20251020-085245,728,Experiment,Both,1,Automatic,main,20,20251030-141011,local,local,300,S,H,E,A,E-S.png,A-H.png,sS,hH,mask-2.png,mask-3.png,s,1,0.573876200011,h,1,0.09368339995853603,0.048523199977353215,0.04756980005186051,0.10155809996649623,0.10064019996207207,0.3011699999915436
RSVPLG03,cs,20251030-140757,1.0.1,20251020-085245,728,Experiment,Both,1,Automatic,main,21,20251030-141015,local,local,750,H,S,E,A,E-H.png,A-S.png,hH,sS,mask-2.png,mask-3.png,h,1,0.31837869994342327,s,1,0.1604309999383986,0.04739980003796518,0.04666270001325756,0.10123630007728934,0.09986660000868142,0.7524794000200927
RSVPLG03,cs,20251030-140757,1.0.1,20251020-085245,728,Experiment,Both,1,Automatic,main,22,20251030-141020,local,local,300,S,S,E,E,E-S.png,E-S.png,sS,sS,mask-3.png,mask-3.png,s,1,0.39069929998368025,h,0,0.26197229989338666,0.04757239995524287,0.04754469997715205,0.09940820001065731,0.09936009999364614,0.3007921000244096
RSVPLG03,cs,20251030-140757,1.0.1,20251020-085245,728,Experiment,Both,1,Automatic,main,23,20251030-141024,global,global,750,H,S,E,A,H-E.png,S-A.png,hH,sS,mask-1.png,mask-1.png,h,1,0.4425392000703141,s,1,0.2681710999459028,0.04751580010633916,0.04662060004193336,0.10152930009644479,0.09801740001421422,0.7520373000297695
RSVPLG03,cs,20251030-140757,1.0.1,20251020-085245,728,Experiment,Both,1,Automatic,main,24,20251030-141029,global,global,750,H,S,A,A,H-A.png,S-A.png,hH,sS,mask-4.png,mask-3.png,h,1,0.5410646999953315,s,1,0.1850810000905767,0.04751970001962036,0.04749890009406954,0.10051300004124641,0.1004955000244081,0.7500722999684513
RSVPLG03,cs,20251030-140757,1.0.1,20251020-085245,728,Experiment,Both,1,Automatic,main,25,20251030-141034,global,local,750,S,H,A,E,S-A.png,E-H.png,sS,hH,mask-1.png,mask-4.png,s,1,0.42319090000819415,s,0,0.1247353000799194,0.04750440001953393,0.047529300092719495,0.09960269997827709,0.09855410002637655,0.7513240999542177
RSVPLG03,cs,20251030-140757,1.0.1,20251020-085245,728,Experiment,Both,1,Automatic,main,26,20251030-141058,local,local,750,S,S,A,E,A-S.png,E-S.png,sS,sS,mask-1.png,mask-4.png,s,1,0.35026650002691895,s,1,0.13859340001363307,0.04868740006349981,0.04765880003105849,0.09934220009017736,0.09986199997365475,0.7508924000430852
RSVPLG03,cs,20251030-140757,1.0.1,20251020-085245,728,Experiment,Both,1,Automatic,main,27,20251030-141103,global,global,750,H,S,A,A,H-A.png,S-A.png,hH,sS,mask-4.png,mask-1.png,h,1,0.5038428000407293,s,1,0.12121260003186762,0.04655070009175688,0.047789799980819225,0.09983990003820509,0.1010165000334382,0.7495436000172049
RSVPLG03,cs,20251030-140757,1.0.1,20251020-085245,728,Experiment,Both,1,Automatic,main,28,20251030-141107,global,global,300,H,H,E,E,H-E.png,H-E.png,hH,hH,mask-3.png,mask-4.png,h,1,1.5250547000905499,h,1,0.172501299995929,0.0475252999458462,0.04761909996159375,0.09953919996041805,0.10071040003094822,0.298811599961482
RSVPLG03,cs,20251030-140757,1.0.1,20251020-085245,728,Experiment,Both,1,Automatic,main,29,20251030-141113,global,global,300,S,H,A,A,S-A.png,H-A.png,sS,hH,mask-4.png,mask-1.png,s,1,0.530433899955824,s,0,0.17231850000098348,0.048566199955530465,0.047512599965557456,0.1001296000322327,0.10052390000782907,0.3007952000480145
RSVPLG03,cs,20251030-140757,1.0.1,20251020-085245,728,Experiment,Both,1,Automatic,main,30,20251030-141117,local,global,750,S,H,A,E,A-S.png,H-E.png,sS,hH,mask-3.png,mask-2.png,s,1,0.378317299997434,s,0,0.20698549994267523,0.04863130010198802,0.04844119993504137,0.10069840005598962,0.10103629995137453,0.7510964000830427
RSVPLG03,cs,20251030-140757,1.0.1,20251020-085245,728,Experiment,Both,1,Automatic,main,31,20251030-141122,global,local,750,H,S,E,A,H-E.png,A-S.png,hH,sS,mask-4.png,mask-3.png,h,1,0.37428600003477186,h,0,0.09980049997102469,0.047517500002868474,0.047518800012767315,0.09962350002024323,0.09924909996334463,0.7497541999910027
RSVPLG03,cs,20251030-140757,1.0.1,20251020-085245,728,Experiment,Both,1,Automatic,main,32,20251030-141127,global,global,750,H,S,A,A,H-A.png,S-A.png,hH,sS,mask-1.png,mask-4.png,h,1,0.5584608000935987,s,1,0.0819904999807477,0.0476614999352023,0.045976299908943474,0.10069349990226328,0.09972199995536357,0.75163449998945
RSVPLG03,cs,20251030-140757,1.0.1,20251020-085245,728,Experiment,Both,1,Automatic,main,33,20251030-141132,local,local,750,H,H,A,E,A-H.png,E-H.png,hH,hH,mask-3.png,mask-2.png,h,1,0.5290950000053272,h,1,0.11364749993663281,0.047949699917808175,0.04764130001422018,0.10007079993374646,0.09980870003346354,0.7507992999162525
RSVPLG03,cs,20251030-140757,1.0.1,20251020-085245,728,Experiment,Both,1,Automatic,main,34,20251030-141136,local,global,300,H,H,E,A,E-H.png,H-A.png,hH,hH,mask-1.png,mask-1.png,h,1,0.7920981999486685,s,0,0.21772880002390593,0.047595900017768145,0.04756089998409152,0.10076639999169856,0.1009095999179408,0.30109100008849055
RSVPLG03,cs,20251030-140757,1.0.1,20251020-085245,728,Experiment,Both,1,Automatic,main,35,20251030-141141,local,local,300,S,S,E,A,E-S.png,A-S.png,sS,sS,mask-3.png,mask-2.png,s,1,0.40779680002015084,s,1,0.09055169997736812,0.04728830000385642,0.04823080007918179,0.1004763999953866,0.09993260004557669,0.30106339999474585
RSVPLG03,cs,20251030-140757,1.0.1,20251020-085245,728,Experiment,Both,1,Automatic,main,36,20251030-141145,local,global,300,S,S,E,A,E-S.png,S-A.png,sS,sS,mask-3.png,mask-1.png,s,1,0.7111738999374211,s,1,0.08805499994195998,0.04724240000359714,0.04695429990533739,0.09981980000156909,0.09836850001011044,0.3011881000129506
RSVPLG03,cs,20251030-140757,1.0.1,20251020-085245,728,Experiment,Both,1,Automatic,main,37,20251030-141150,global,global,300,H,H,A,A,H-A.png,H-A.png,hH,hH,mask-3.png,mask-4.png,h,1,0.5325330999912694,h,1,0.2475779999513179,0.047197500010952353,0.04732140002306551,0.10071030003018677,0.10036289994604886,0.3012102000648156
RSVPLG03,cs,20251030-140757,1.0.1,20251020-085245,728,Experiment,Both,1,Automatic,main,38,20251030-141154,global,global,300,S,H,A,E,S-A.png,H-E.png,sS,hH,mask-1.png,mask-2.png,s,1,0.3422820999985561,h,1,0.09054200001992285,0.04723560006823391,0.04865989997051656,0.09914499998558313,0.10108910000417382,0.2995357000036165
RSVPLG03,cs,20251030-140757,1.0.1,20251020-085245,728,Experiment,Both,1,Automatic,main,39,20251030-141159,global,global,750,H,H,E,A,H-E.png,H-A.png,hH,hH,mask-3.png,mask-2.png,h,1,0.404861299903132,h,1,0.09717880003154278,0.04822780005633831,0.048017999972216785,0.10024170007091016,0.10070929990615696,0.7502263000933453
RSVPLG03,cs,20251030-140757,1.0.1,20251020-085245,728,Experiment,Both,1,Automatic,main,40,20251030-141203,local,global,300,H,S,E,E,E-H.png,S-E.png,hH,sS,mask-2.png,mask-4.png,h,1,0.663686600048095,h,0,0.1545195000944659,0.047788600088097155,0.047365699894726276,0.09979660005774349,0.10128719999920577,0.2995486001018435
RSVPLG03,cs,20251030-140757,1.0.1,20251020-085245,728,Experiment,Both,1,Automatic,main,41,20251030-141208,global,global,750,H,S,E,E,H-E.png,S-E.png,hH,sS,mask-1.png,mask-1.png,h,1,0.16509969998151064,s,1,0.3160105000715703,0.04744710004888475,0.04808870004490018,0.10049920005258173,0.10043170000426471,0.7500434999819845
RSVPLG03,cs,20251030-140757,1.0.1,20251020-085245,728,Experiment,Both,1,Automatic,main,42,20251030-141212,local,local,750,H,H,E,A,E-H.png,A-H.png,hH,hH,mask-1.png,mask-2.png,h,1,0.4216494000284001,s,0,0.1521763000637293,0.047687900019809604,0.048702399944886565,0.09920370008330792,0.10090499999932945,0.7502132001100108
RSVPLG03,cs,20251030-140757,1.0.1,20251020-085245,728,Experiment,Both,1,Automatic,main,43,20251030-141217,global,global,750,H,H,A,A,H-A.png,H-A.png,hH,hH,mask-4.png,mask-4.png,h,1,0.18545639992225915,h,1,0.08401710004545748,0.04755489993840456,0.04755650006700307,0.10060989996418357,0.10136299999430776,0.7505268999375403
RSVPLG03,cs,20251030-140757,1.0.1,20251020-085245,728,Experiment,Both,1,Automatic,main,44,20251030-141222,global,global,750,H,H,A,E,H-A.png,H-E.png,hH,hH,mask-4.png,mask-4.png,h,1,0.28628180001396686,h,1,0.09320449992083013,0.04761420004069805,0.047521499916911125,0.10164989996701479,0.1005190999712795,0.7517496000509709
RSVPLG03,cs,20251030-140757,1.0.1,20251020-085245,728,Experiment,Both,1,Automatic,main,45,20251030-141226,local,global,300,H,H,E,E,E-H.png,H-E.png,hH,hH,mask-4.png,mask-1.png,h,1,0.448027899954468,h,1,0.16619699995499104,0.04837440000846982,0.048323099967092276,0.10140869999304414,0.10019879997707903,0.3005772000178695
RSVPLG03,cs,20251030-140757,1.0.1,20251020-085245,728,Experiment,Both,1,Automatic,main,46,20251030-141230,local,local,300,S,H,A,E,A-S.png,E-H.png,sS,hH,mask-3.png,mask-4.png,s,1,0.33380689995829016,h,1,0.040406999993138015,0.047652200097218156,0.04660710005555302,0.09948990005068481,0.09965690004173666,0.29999780002981424
RSVPLG03,cs,20251030-140757,1.0.1,20251020-085245,728,Experiment,Both,1,Automatic,main,47,20251030-141235,global,global,300,H,S,A,A,H-A.png,S-A.png,hH,sS,mask-3.png,mask-4.png,h,1,0.49862920003943145,s,1,0.155129500082694,0.04772949998732656,0.04653439996764064,0.09989079996012151,0.10024029994383454,0.2996419999981299
RSVPLG03,cs,20251030-140757,1.0.1,20251020-085245,728,Experiment,Both,1,Automatic,main,48,20251030-141239,local,global,750,S,S,A,E,A-S.png,S-E.png,sS,sS,mask-1.png,mask-3.png,s,1,0.4125493000028655,s,1,0.13760180003009737,0.047524699941277504,0.04673309996724129,0.09954029996879399,0.09984499996062368,0.7508774999296293
RSVPLG03,cs,20251030-140757,1.0.1,20251020-085245,728,Experiment,Both,1,Automatic,main,49,20251030-141244,local,global,300,H,S,E,E,E-H.png,S-E.png,hH,sS,mask-4.png,mask-1.png,h,1,1.311005900031887,s,1,0.23468429991044104,0.04772419994696975,0.046662200009450316,0.09992639999836683,0.09939280000980943,0.2997486999956891
RSVPLG03,cs,20251030-140757,1.0.1,20251020-085245,728,Experiment,Both,1,Automatic,main,50,20251030-141249,local,local,750,H,H,E,E,E-H.png,E-H.png,hH,hH,mask-4.png,mask-3.png,h,1,0.36327600001823157,h,1,0.08879219996742904,0.04731599998194724,0.047338200034573674,0.09950830007437617,0.10050169995520264,0.7497127000242472
RSVPLG03,cs,20251030-140757,1.0.1,20251020-085245,728,Experiment,Both,1,Automatic,main,51,20251030-141321,local,local,300,S,S,A,A,A-S.png,A-S.png,sS,sS,mask-3.png,mask-3.png,s,1,0.5261005000211298,s,1,0.08744040003512055,0.04665759997442365,0.046711400034837425,0.09989419998601079,0.09989529999438673,0.2995427999412641
RSVPLG03,cs,20251030-140757,1.0.1,20251020-085245,728,Experiment,Both,1,Automatic,main,52,20251030-141326,global,global,300,S,S,E,E,S-E.png,S-E.png,sS,sS,mask-4.png,mask-4.png,s,1,0.4139988999813795,s,1,0.07272689999081194,0.047727700090035796,0.04770450002979487,0.10097900009714067,0.09947449993342161,0.30070540006272495
RSVPLG03,cs,20251030-140757,1.0.1,20251020-085245,728,Experiment,Both,1,Automatic,main,53,20251030-141330,local,local,300,S,S,A,A,A-S.png,A-S.png,sS,sS,mask-1.png,mask-1.png,s,1,0.33487749996129423,s,1,0.08780179999303073,0.047690700041130185,0.047683299984782934,0.09889110003132373,0.10192629997618496,0.2985355000710115
RSVPLG03,cs,20251030-140757,1.0.1,20251020-085245,728,Experiment,Both,1,Automatic,main,54,20251030-141334,local,global,750,S,S,A,E,A-S.png,S-E.png,sS,sS,mask-2.png,mask-2.png,s,1,0.483263099915348,h,0,0.2483627999899909,0.04667990002781153,0.048963500070385635,0.09970060002524406,0.09997660003136843,0.7497414000099525
RSVPLG03,cs,20251030-140757,1.0.1,20251020-085245,728,Experiment,Both,1,Automatic,main,55,20251030-141339,local,global,750,S,H,A,A,A-S.png,H-A.png,sS,hH,mask-2.png,mask-3.png,s,1,0.5173258000286296,h,1,0.13987750001251698,0.04661530000157654,0.04601059993728995,0.09860549995210022,0.10015049995854497,0.7508920000400394
RSVPLG03,cs,20251030-140757,1.0.1,20251020-085245,728,Experiment,Both,1,Automatic,main,56,20251030-141344,global,local,750,H,S,E,E,H-E.png,E-S.png,hH,sS,mask-2.png,mask-2.png,h,1,0.8085337999509647,s,1,0.2907854000804946,0.047533199889585376,0.04656690009869635,0.09955489996355027,0.09964690008200705,0.7502620999002829
RSVPLG03,cs,20251030-140757,1.0.1,20251020-085245,728,Experiment,Both,1,Automatic,main,57,20251030-141349,local,local,750,S,H,A,A,A-S.png,A-H.png,sS,hH,mask-3.png,mask-1.png,s,1,0.251398199936375,h,1,0.12403209996409714,0.047587100067175925,0.047616800060495734,0.10146540007553995,0.10056809999514371,0.7509061000309885
RSVPLG03,cs,20251030-140757,1.0.1,20251020-085245,728,Experiment,Both,1,Automatic,main,58,20251030-141354,global,local,750,H,H,E,A,H-E.png,A-H.png,hH,hH,mask-3.png,mask-1.png,h,1,0.07935169991105795,h,1,0.14005559997167438,0.047536499914713204,0.047625400009565055,0.10154249996412545,0.09970979997888207,0.7515837999526411
RSVPLG03,cs,20251030-140757,1.0.1,20251020-085245,728,Experiment,Both,1,Automatic,main,59,20251030-141358,local,local,300,H,S,E,A,E-H.png,A-S.png,hH,sS,mask-3.png,mask-2.png,h,1,1.207200299948454,s,1,1.4602653000038117,0.04871359991375357,0.04671649995725602,0.10056449996773154,0.09881659992970526,0.3018758000107482
RSVPLG03,cs,20251030-140757,1.0.1,20251020-085245,728,Experiment,Both,1,Automatic,main,60,20251030-141405,global,global,300,S,S,E,E,S-E.png,S-E.png,sS,sS,mask-2.png,mask-3.png,s,1,0.379988000029698,h,0,0.1172730999533087,0.046757099917158484,0.04668829997535795,0.10108749999199063,0.099884899915196,0.3006848000222817
RSVPLG03,cs,20251030-140757,1.0.1,20251020-085245,728,Experiment,Both,1,Automatic,main,61,20251030-141409,global,global,750,S,H,A,E,S-A.png,H-E.png,sS,hH,mask-4.png,mask-2.png,s,1,0.44218139990698546,h,1,0.08657059993129224,0.04767649993300438,0.04714709997642785,0.09876950003672391,0.10045060003176332,0.7501380000030622
RSVPLG03,cs,20251030-140757,1.0.1,20251020-085245,728,Experiment,Both,1,Automatic,main,62,20251030-141414,global,local,300,H,H,A,E,H-A.png,E-H.png,hH,hH,mask-4.png,mask-2.png,h,1,0.6295820999657735,s,0,0.18908000004012138,0.046492099994793534,0.04761030001100153,0.09952440008055419,0.10074989998247474,0.2992330000270158
RSVPLG03,cs,20251030-140757,1.0.1,20251020-085245,728,Experiment,Both,1,Automatic,main,63,20251030-141419,global,global,750,S,S,E,A,S-E.png,S-A.png,sS,sS,mask-4.png,mask-1.png,s,1,0.3581738999346271,s,1,0.08439109998289496,0.04754719999618828,0.04652209999039769,0.09954890003427863,0.09889669995754957,0.7502029000315815
RSVPLG03,cs,20251030-140757,1.0.1,20251020-085245,728,Experiment,Both,1,Automatic,main,64,20251030-141423,global,local,750,H,H,A,E,H-A.png,E-H.png,hH,hH,mask-1.png,mask-4.png,h,1,1.1254477000329643,h,1,1.0817755999742076,0.048533699940890074,0.047515899990685284,0.10157880000770092,0.09952950000297278,0.7516549999127164
RSVPLG03,cs,20251030-140757,1.0.1,20251020-085245,728,Experiment,Both,1,Automatic,main,65,20251030-141430,global,local,300,H,S,A,E,H-A.png,E-S.png,hH,sS,mask-3.png,mask-1.png,h,1,0.5974887000629678,h,0,0.41001500003039837,0.04775649996008724,0.04672999994363636,0.10004109994042665,0.09999299992341548,0.30051189998630434
RSVPLG03,cs,20251030-140757,1.0.1,20251020-085245,728,Experiment,Both,1,Automatic,main,66,20251030-141434,local,local,750,S,S,E,A,E-S.png,A-S.png,sS,sS,mask-1.png,mask-1.png,s,1,0.3110603999812156,s,1,0.08956530003342777,0.046395699959248304,0.04751060006674379,0.09927629993762821,0.09966780000831932,0.7500992999412119
RSVPLG03,cs,20251030-140757,1.0.1,20251020-085245,728,Experiment,Both,1,Automatic,main,67,20251030-141439,global,local,300,H,S,A,E,H-A.png,E-S.png,hH,sS,mask-3.png,mask-2.png,h,1,0.518723199958913,h,0,0.15353130002040416,0.0475210000295192,0.04752419993747026,0.0995575999841094,0.09960229997523129,0.29981180001050234
RSVPLG03,cs,20251030-140757,1.0.1,20251020-085245,728,Experiment,Both,1,Automatic,main,68,20251030-141443,local,global,300,H,H,A,A,A-H.png,H-A.png,hH,hH,mask-2.png,mask-4.png,h,1,0.5977411000058055,h,1,0.06933829991612583,0.04750489990692586,0.04852850001771003,0.101511099957861,0.09987879998516291,0.30088859994430095
RSVPLG03,cs,20251030-140757,1.0.1,20251020-085245,728,Experiment,Both,1,Automatic,main,69,20251030-141448,global,global,750,H,S,E,E,H-E.png,S-E.png,hH,sS,mask-2.png,mask-1.png,h,1,0.4681743000401184,s,1,0.342108300072141,0.04751800000667572,0.046533399960026145,0.09953670005779713,0.09954279998783022,0.750573500059545
RSVPLG03,cs,20251030-140757,1.0.1,20251020-085245,728,Experiment,Both,1,Automatic,main,70,20251030-141453,global,global,300,H,S,A,E,H-A.png,S-E.png,hH,sS,mask-3.png,mask-3.png,h,1,0.4157161999028176,h,0,0.9456332999980077,0.047553000040352345,0.04854029999114573,0.09854969999287277,0.10056679998524487,0.2991844000061974
RSVPLG03,cs,20251030-140757,1.0.1,20251020-085245,728,Experiment,Both,1,Automatic,main,71,20251030-141458,global,local,300,H,S,E,E,H-E.png,E-S.png,hH,sS,mask-3.png,mask-3.png,h,1,0.5025392000097781,h,0,0.16132229997310787,0.04749069991521537,0.046381100080907345,0.09938919998239726,0.09929460007697344,0.3004272999241948
RSVPLG03,cs,20251030-140757,1.0.1,20251020-085245,728,Experiment,Both,1,Automatic,main,72,20251030-141503,global,global,300,S,H,A,A,S-A.png,H-A.png,sS,hH,mask-1.png,mask-3.png,s,1,0.3653737000422552,h,1,0.3386873999843374,0.04772210004739463,0.047672900022007525,0.0999112999998033,0.09911159996408969,0.2994425999931991
RSVPLG03,cs,20251030-140757,1.0.1,20251020-085245,728,Experiment,Both,1,Automatic,main,73,20251030-141507,global,global,300,S,H,E,E,S-E.png,H-E.png,sS,hH,mask-4.png,mask-3.png,s,1,0.3910104000242427,h,1,0.18773310002870858,0.047542500076815486,0.04946070001460612,0.10145770001690835,0.10047440009657294,0.30003929999656975
RSVPLG03,cs,20251030-140757,1.0.1,20251020-085245,728,Experiment,Both,1,Automatic,main,74,20251030-141511,local,global,300,H,H,E,E,E-H.png,H-E.png,hH,hH,mask-2.png,mask-1.png,h,1,0.5347474999725819,h,1,0.16784519993234426,0.04751790000591427,0.04747520003002137,0.09954550000838935,0.10076519998256117,0.2990457999985665
RSVPLG03,cs,20251030-140757,1.0.1,20251020-085245,728,Experiment,Both,1,Automatic,main,75,20251030-141516,local,local,300,H,H,A,E,A-H.png,E-H.png,hH,hH,mask-3.png,mask-3.png,h,1,0.5302056000800803,h,1,0.19825540005695075,0.04869279998820275,0.04719210008624941,0.1009095999179408,0.10041930002626032,0.30062289990019053
RSVPLG03,cs,20251030-140757,1.0.1,20251020-085245,728,Experiment,Both,1,Automatic,main,76,20251030-141543,local,global,750,S,S,E,A,E-S.png,S-A.png,sS,sS,mask-4.png,mask-3.png,s,1,0.4714960000710562,h,0,0.1188576000276953,0.04734589997678995,0.04777079995255917,0.09911179996561259,0.10005549993366003,0.7502230000682175
RSVPLG03,cs,20251030-140757,1.0.1,20251020-085245,728,Experiment,Both,1,Automatic,main,77,20251030-141547,global,local,300,S,H,E,A,S-E.png,A-H.png,sS,hH,mask-4.png,mask-3.png,s,1,0.3864327999763191,h,1,0.1073162000393495,0.047687700018286705,0.04769300005864352,0.09989479999057949,0.09991430002264678,0.30064929998479784
RSVPLG03,cs,20251030-140757,1.0.1,20251020-085245,728,Experiment,Both,1,Automatic,main,78,20251030-141552,global,local,750,S,H,E,E,S-E.png,E-H.png,sS,hH,mask-4.png,mask-3.png,s,1,1.127563300076872,h,1,0.3866514000110328,0.04711100005079061,0.04752559994813055,0.09980850003194064,0.0993589999852702,0.7499244000064209
RSVPLG03,cs,20251030-140757,1.0.1,20251020-085245,728,Experiment,Both,1,Automatic,main,79,20251030-141557,global,global,300,H,H,A,E,H-A.png,H-E.png,hH,hH,mask-3.png,mask-4.png,h,1,0.6004802000243217,s,0,0.259269000031054,0.04755370004568249,0.04694119992200285,0.1005623999517411,0.09999409993179142,0.29984600003808737
RSVPLG03,cs,20251030-140757,1.0.1,20251020-085245,728,Experiment,Both,1,Automatic,main,80,20251030-141602,local,global,750,H,S,A,E,A-H.png,S-E.png,hH,sS,mask-2.png,mask-2.png,h,1,0.5419789999723434,h,0,0.6296781999990344,0.047586799948476255,0.047600500052794814,0.10064029996283352,0.10065370006486773,0.7499882999109104
RSVPLG03,cs,20251030-140757,1.0.1,20251020-085245,728,Experiment,Both,1,Automatic,main,81,20251030-141608,global,local,300,S,H,E,E,S-E.png,E-H.png,sS,hH,mask-3.png,mask-4.png,s,1,0.30997679999563843,h,1,0.3134848999325186,0.046884699957445264,0.047807599999941885,0.10097339993808419,0.09936200000811368,0.30026859999634326
RSVPLG03,cs,20251030-140757,1.0.1,20251020-085245,728,Experiment,Both,1,Automatic,main,82,20251030-141612,global,local,300,H,H,E,A,H-E.png,A-H.png,hH,hH,mask-3.png,mask-3.png,h,1,0.7054336000001058,s,0,0.5200108999852091,0.04780359996948391,0.04773269989527762,0.10101860004942864,0.09993679996114224,0.3007342000491917
RSVPLG03,cs,20251030-140757,1.0.1,20251020-085245,728,Experiment,Both,1,Automatic,main,83,20251030-141617,local,global,300,S,H,A,A,A-S.png,H-A.png,sS,hH,mask-3.png,mask-3.png,s,1,0.38055240001995116,h,1,0.23604460002388805,0.04801470006350428,0.04753139999229461,0.10114600008819252,0.09997300000395626,0.3010135000804439
RSVPLG03,cs,20251030-140757,1.0.1,20251020-085245,728,Experiment,Both,1,Automatic,main,84,20251030-141621,global,global,300,H,S,E,E,H-E.png,S-E.png,hH,sS,mask-2.png,mask-4.png,h,1,0.5245556000154465,h,0,0.39057729998603463,0.0477553999517113,0.04654789995402098,0.10073059995193034,0.0986082999734208,0.3014604999916628
RSVPLG03,cs,20251030-140757,1.0.1,20251020-085245,728,Experiment,Both,1,Automatic,main,85,20251030-141626,global,global,750,S,H,E,A,S-E.png,H-A.png,sS,hH,mask-1.png,mask-2.png,s,1,0.4203311000019312,h,1,0.2350004999898374,0.04750869993586093,0.047520300024189055,0.09958639997057617,0.10151680000126362,0.7496826999122277
RSVPLG03,cs,20251030-140757,1.0.1,20251020-085245,728,Experiment,Both,1,Automatic,main,86,20251030-141631,global,local,750,H,S,A,A,H-A.png,A-S.png,hH,sS,mask-1.png,mask-2.png,h,1,0.8654382000677288,s,1,0.2430841000750661,0.047542199958115816,0.04755379993002862,0.10056749999057502,0.09954779990948737,0.7500925000058487
RSVPLG03,cs,20251030-140757,1.0.1,20251020-085245,728,Experiment,Both,1,Automatic,main,87,20251030-141637,local,local,750,S,H,E,E,E-S.png,E-H.png,sS,hH,mask-3.png,mask-4.png,s,1,0.35206710000056773,h,1,0.25004620000254363,0.048636999912559986,0.04636549996212125,0.10166039993055165,0.09919470001477748,0.7514652999816462
RSVPLG03,cs,20251030-140757,1.0.1,20251020-085245,728,Experiment,Both,1,Automatic,main,88,20251030-141641,global,local,300,H,H,E,E,H-E.png,E-H.png,hH,hH,mask-4.png,mask-3.png,h,1,0.5393927999539301,h,1,0.2642051000148058,0.045546800014562905,0.0467113999184221,0.09853289998136461,0.09905600000638515,0.29975270002614707
RSVPLG03,cs,20251030-140757,1.0.1,20251020-085245,728,Experiment,Both,1,Automatic,main,89,20251030-141646,global,global,300,H,H,E,E,H-E.png,H-E.png,hH,hH,mask-1.png,mask-4.png,h,1,0.5212070998968557,h,1,0.1474833000684157,0.04840869992040098,0.04871710005681962,0.10064650001004338,0.10177300008945167,0.2997671999037266
RSVPLG03,cs,20251030-140757,1.0.1,20251020-085245,728,Experiment,Both,1,Automatic,main,90,20251030-141650,global,global,300,S,H,A,E,S-A.png,H-E.png,sS,hH,mask-4.png,mask-2.png,s,1,0.3534250999800861,h,1,0.24612509994767606,0.04685320006683469,0.04759810003452003,0.09891820000484586,0.10057470004539937,0.2993702000239864
RSVPLG03,cs,20251030-140757,1.0.1,20251020-085245,728,Experiment,Both,1,Automatic,main,91,20251030-141655,local,local,750,S,S,E,A,E-S.png,A-S.png,sS,sS,mask-3.png,mask-1.png,s,1,0.5571286999620497,s,1,0.3636410000035539,0.04668569995556027,0.04838569997809827,0.10056039993651211,0.10138020000886172,0.7496844999259338
RSVPLG03,cs,20251030-140757,1.0.1,20251020-085245,728,Experiment,Both,1,Automatic,main,92,20251030-141700,local,global,750,H,S,E,A,E-H.png,S-A.png,hH,sS,mask-1.png,mask-4.png,h,1,0.6389304000185803,h,0,0.107503000064753,0.04765689990017563,0.04854440002236515,0.09971879993099719,0.10060150001663715,0.7494145999662578
RSVPLG03,cs,20251030-140757,1.0.1,20251020-085245,728,Experiment,Both,1,Automatic,main,93,20251030-141705,local,local,300,H,H,E,A,E-H.png,A-H.png,hH,hH,mask-3.png,mask-3.png,h,1,0.5106164000462741,s,0,0.1385357000399381,0.0475950000109151,0.0476114999037236,0.10071310005150735,0.09886629995889962,0.30089000007137656
RSVPLG03,cs,20251030-140757,1.0.1,20251020-085245,728,Experiment,Both,1,Automatic,main,94,20251030-141709,local,global,750,H,S,A,A,A-H.png,S-A.png,hH,sS,mask-4.png,mask-1.png,h,1,0.47930599993560463,h,0,0.09186360007151961,0.04873889998998493,0.047202799934893847,0.10085829999297857,0.10048949997872114,0.7509927999926731
RSVPLG03,cs,20251030-140757,1.0.1,20251020-085245,728,Experiment,Both,1,Automatic,main,95,20251030-141714,local,global,300,H,S,E,E,E-H.png,S-E.png,hH,sS,mask-2.png,mask-4.png,h,1,0.8151500000385568,h,0,0.756866000010632,0.04766439995728433,0.047425500000827014,0.09985869994852692,0.10044750000815839,0.2993537000147626
RSVPLG03,cs,20251030-140757,1.0.1,20251020-085245,728,Experiment,Both,1,Automatic,main,96,20251030-141719,local,local,750,S,S,A,E,A-S.png,E-S.png,sS,sS,mask-4.png,mask-2.png,s,1,0.32111900008749217,h,0,0.17961329990066588,0.04678650002460927,0.04774059995543212,0.0981789999641478,0.09982030000537634,0.7500326000154018
RSVPLG03,cs,20251030-140757,1.0.1,20251020-085245,728,Experiment,Both,1,Automatic,main,97,20251030-141724,local,local,300,S,S,E,A,E-S.png,A-S.png,sS,sS,mask-4.png,mask-4.png,s,1,0.6369178000604734,s,1,0.09068919997662306,0.0474823999684304,0.04760970000643283,0.10056669998448342,0.10059559997171164,0.29985109996050596
RSVPLG03,cs,20251030-140757,1.0.1,20251020-085245,728,Experiment,Both,1,Automatic,main,98,20251030-141729,global,local,300,S,S,A,E,S-A.png,E-S.png,sS,sS,mask-4.png,mask-4.png,s,1,0.51004780002404,h,0,0.1865377000067383,0.046846100012771785,0.04798569995909929,0.09932190005201846,0.10053579998202622,0.3004214999964461
RSVPLG03,cs,20251030-140757,1.0.1,20251020-085245,728,Experiment,Both,1,Automatic,main,99,20251030-141733,global,local,750,S,S,E,E,S-E.png,E-S.png,sS,sS,mask-3.png,mask-3.png,s,1,0.44296410004608333,s,1,0.1708210000069812,0.048711400013417006,0.04655620001722127,0.0997100000968203,0.09932819998357445,0.7519966000691056
RSVPLG03,cs,20251030-140757,1.0.1,20251020-085245,728,Experiment,Both,1,Automatic,main,100,20251030-141738,global,local,750,H,S,E,A,H-E.png,A-S.png,hH,sS,mask-4.png,mask-4.png,h,1,0.7186006000265479,s,1,0.11004860000684857,0.04756129998713732,0.04730129998642951,0.10160200006794184,0.10033310006838292,0.7518982000183314
RSVPLG03,cs,20251030-140757,1.0.1,20251020-085245,728,Experiment,Both,1,Automatic,main,101,20251030-141813,local,global,750,H,S,E,E,E-H.png,S-E.png,hH,sS,mask-2.png,mask-1.png,h,1,0.6858593999641016,s,1,0.31578280008397996,0.04773300001397729,0.047702400013804436,0.09897080005612224,0.10011350002605468,0.7504219000693411
RSVPLG03,cs,20251030-140757,1.0.1,20251020-085245,728,Experiment,Both,1,Automatic,main,102,20251030-141818,global,global,750,H,S,A,A,H-A.png,S-A.png,hH,sS,mask-4.png,mask-4.png,h,1,0.4518765000393614,h,0,0.05442339996807277,0.04853899998124689,0.04752410005312413,0.10062569996807724,0.10157649999018759,0.7507483999943361
RSVPLG03,cs,20251030-140757,1.0.1,20251020-085245,728,Experiment,Both,1,Automatic,main,103,20251030-141823,global,local,750,S,H,E,E,S-E.png,E-H.png,sS,hH,mask-3.png,mask-2.png,s,1,0.3861838000593707,h,1,0.13771380006801337,0.04772699996829033,0.04669720004312694,0.09869010001420975,0.09991039999295026,0.7503184999804944
RSVPLG03,cs,20251030-140757,1.0.1,20251020-085245,728,Experiment,Both,1,Automatic,main,104,20251030-141827,local,global,300,H,H,E,E,E-H.png,H-E.png,hH,hH,mask-4.png,mask-3.png,h,1,0.7312418000074103,h,1,0.0521689000306651,0.04862510005477816,0.04857169999741018,0.09985110000707209,0.09988170000724494,0.3007328000385314
RSVPLG03,cs,20251030-140757,1.0.1,20251020-085245,728,Experiment,Both,1,Automatic,main,105,20251030-141832,local,global,300,H,H,A,A,A-H.png,H-A.png,hH,hH,mask-1.png,mask-4.png,h,1,0.5917635000078008,h,1,0.06975070002954453,0.046494800015352666,0.04708420007955283,0.100453200051561,0.10001950000878423,0.30025500000920147
RSVPLG03,cs,20251030-140757,1.0.1,20251020-085245,728,Experiment,Both,1,Automatic,main,106,20251030-141836,local,local,300,H,S,E,A,E-H.png,A-S.png,hH,sS,mask-1.png,mask-2.png,h,1,0.8644187999889255,s,1,0.4570373999886215,0.04709160001948476,0.04717839998193085,0.09956990007776767,0.09962569992057979,0.29991340008564293
RSVPLG03,cs,20251030-140757,1.0.1,20251020-085245,728,Experiment,Both,1,Automatic,main,107,20251030-141841,global,local,750,S,S,A,A,S-A.png,A-S.png,sS,sS,mask-2.png,mask-2.png,s,1,0.505531599977985,h,0,0.12353230000007898,0.048800099990330637,0.04669539991300553,0.10200070007704198,0.09989690000656992,0.7526244000764564
RSVPLG03,cs,20251030-140757,1.0.1,20251020-085245,728,Experiment,Both,1,Automatic,main,108,20251030-141846,local,global,300,S,H,E,E,E-S.png,H-E.png,sS,hH,mask-4.png,mask-1.png,s,1,0.9964674999937415,h,1,0.3920341999037191,0.047339700045995414,0.04842470004223287,0.09966290008742362,0.10155470005702227,0.29940180003177375
RSVPLG03,cs,20251030-140757,1.0.1,20251020-085245,728,Experiment,Both,1,Automatic,main,109,20251030-141851,local,local,300,H,S,E,E,E-H.png,E-S.png,hH,sS,mask-2.png,mask-3.png,h,1,0.4855709000257775,s,1,0.19311480002943426,0.04712860006839037,0.0474279000191018,0.10014340002089739,0.10050090006552637,0.299686299986206
RSVPLG03,cs,20251030-140757,1.0.1,20251020-085245,728,Experiment,Both,1,Automatic,main,110,20251030-141856,local,global,750,H,H,E,A,E-H.png,H-A.png,hH,hH,mask-4.png,mask-4.png,h,1,0.619888799963519,h,1,0.07180600007995963,0.04864409996662289,0.04741539992392063,0.09974710003007203,0.09959120000712574,0.7518532000249252
RSVPLG03,cs,20251030-140757,1.0.1,20251020-085245,728,Experiment,Both,1,Automatic,main,111,20251030-141901,global,local,300,S,S,E,A,S-E.png,A-S.png,sS,sS,mask-1.png,mask-4.png,s,1,0.6854751999489963,h,0,0.14955400000326335,0.048661199980415404,0.047543999971821904,0.10075729992240667,0.0996510999975726,0.30115199997089803
RSVPLG03,cs,20251030-140757,1.0.1,20251020-085245,728,Experiment,Both,1,Automatic,main,112,20251030-141905,global,global,750,H,H,E,A,H-E.png,H-A.png,hH,hH,mask-1.png,mask-4.png,h,1,0.42444670002441853,h,1,0.08799080003518611,0.0466761999996379,0.04736289998982102,0.09969880001153797,0.10045450006145984,0.7493139000143856
RSVPLG03,cs,20251030-140757,1.0.1,20251020-085245,728,Experiment,Both,1,Automatic,main,113,20251030-141910,global,local,300,H,H,E,E,H-E.png,E-H.png,hH,hH,mask-2.png,mask-2.png,h,1,0.7595073999837041,s,0,0.4355010000290349,0.04780209995806217,0.04754180007148534,0.10088899999391288,0.09953450004104525,0.30117989995051175
RSVPLG03,cs,20251030-140757,1.0.1,20251020-085245,728,Experiment,Both,1,Automatic,main,114,20251030-141915,local,local,300,S,S,A,E,A-S.png,E-S.png,sS,sS,mask-2.png,mask-3.png,s,1,0.4591702999314293,s,1,0.326653900090605,0.047204900067299604,0.047515899990685284,0.10022960009519011,0.10054450004827231,0.2999505000188947
RSVPLG03,cs,20251030-140757,1.0.1,20251020-085245,728,Experiment,Both,1,Automatic,main,115,20251030-141919,local,local,750,H,H,E,A,E-H.png,A-H.png,hH,hH,mask-1.png,mask-4.png,h,1,0.2660852000117302,h,1,0.08744000003207475,0.04749560006894171,0.047785400063730776,0.09953650005627424,0.10096420010086149,0.7500609999988228
RSVPLG03,cs,20251030-140757,1.0.1,20251020-085245,728,Experiment,Both,1,Automatic,main,116,20251030-141924,global,global,750,S,H,A,A,S-A.png,H-A.png,sS,hH,mask-2.png,mask-4.png,s,1,0.5039521000580862,h,1,0.140819700085558,0.047521800035610795,0.04754349996801466,0.09858690004330128,0.09875859995372593,0.7502557000843808
RSVPLG03,cs,20251030-140757,1.0.1,20251020-085245,728,Experiment,Both,1,Automatic,main,117,20251030-141929,local,global,750,S,S,E,E,E-S.png,S-E.png,sS,sS,mask-3.png,mask-1.png,s,1,0.417271799989976,s,1,0.4027731999522075,0.04749259992968291,0.04727510001976043,0.10050269996281713,0.09927839995361865,0.7501816999865696
