exp,exp_initials,runtime,ver,modtime,sub,blocktype,targets,cuetype,mode,trialtype,trial,trialtime,t1_level,t2_level,t2_lag,t1,t2,distractor1,distractor2,stimfile1,stimfile2,t1_corr,t2_corr,maskfile1,maskfile2,t1_resp,t1_acc,t1_rt,t2_resp,t2_acc,t2_rt,t1_dur,t2_dur,t1mask_soa,t2mask_soa,t1t2_soa
RSVPLG03,si,20260226-160935,1.0.2,20260219-152011,779,Introduction,T1,1,Automatic,main,1,20260226-161010,global,global,750,S,S,E,E,S-E.png,S-E.png,sS,sS,mask-2.png,mask-1.png,s,1,1.2972688998561352,none,-5,0,0.0950708999298513,0.10018149996176362,0.19544590008445084,0.19913300010375679,0.7457298999652267
RSVPLG03,si,20260226-160935,1.0.2,20260219-152011,779,Introduction,T1,1,Automatic,main,2,20260226-161016,local,local,750,H,S,A,E,A-H.png,E-S.png,hH,sS,mask-3.png,mask-2.png,s,0,4.935700200032443,none,-5,0,0.09997809980995953,0.10056599997915328,0.20004739984869957,0.19990699994377792,0.7499108000192791
RSVPLG03,si,20260226-160935,1.0.2,20260219-152011,779,Introduction,T1,1,Automatic,main,3,20260226-161025,local,local,750,H,S,A,A,A-H.png,A-S.png,hH,sS,mask-1.png,mask-2.png,h,1,1.9687022001016885,none,-5,0,0.09947780007496476,0.09906799998134375,0.19943160004913807,0.201116600073874,0.7486852000001818
RSVPLG03,si,20260226-160935,1.0.2,20260219-152011,779,Introduction,T1,1,Automatic,main,4,20260226-161031,global,global,750,H,H,A,A,H-A.png,H-A.png,hH,hH,mask-1.png,mask-3.png,s,0,2.071969399927184,none,-5,0,0.0998840001411736,0.10023719980381429,0.20177350006997585,0.19923599995672703,0.7515786001458764
RSVPLG03,si,20260226-160935,1.0.2,20260219-152011,779,Introduction,T1,1,Automatic,main,5,20260226-161037,local,local,750,H,H,E,E,E-H.png,E-H.png,hH,hH,mask-1.png,mask-4.png,s,0,2.8150611999444664,none,-5,0,0.09943120018579066,0.09994359989650548,0.20100850006565452,0.19983959989622235,0.7496731001883745
RSVPLG03,si,20260226-160935,1.0.2,20260219-152011,779,Introduction,T1,1,Automatic,main,6,20260226-161044,global,global,750,S,H,A,E,S-A.png,H-E.png,sS,hH,mask-3.png,mask-1.png,h,0,1.184039399959147,none,-5,0,0.09838790004141629,0.1000936001073569,0.19786940002813935,0.20106060011312366,0.7476653000339866
RSVPLG03,si,20260226-160935,1.0.2,20260219-152011,779,Introduction,T1,1,Automatic,main,7,20260226-161050,global,local,750,H,S,E,E,H-E.png,E-S.png,hH,sS,mask-3.png,mask-2.png,s,0,0.668886800063774,none,-5,0,0.09998719999566674,0.0999350999481976,0.20092549989931285,0.19961269991472363,0.7497024999465793
RSVPLG03,si,20260226-160935,1.0.2,20260219-152011,779,Introduction,T1,1,Automatic,main,8,20260226-161054,global,local,750,S,S,A,A,S-A.png,A-S.png,sS,sS,mask-2.png,mask-2.png,s,1,1.2210943999234587,none,-5,0,0.0992896999232471,0.09910200000740588,0.19908829987980425,0.19916159985587,0.7501056999899447
RSVPLG03,si,20260226-160935,1.0.2,20260219-152011,779,Introduction,T1,1,Automatic,main,9,20260226-161100,global,local,750,S,H,E,A,S-E.png,A-H.png,sS,hH,mask-4.png,mask-1.png,h,0,0.3870509001426399,none,-5,0,0.09840049990452826,0.09813509997911751,0.19925419986248016,0.1981280001346022,0.7493662999477237
RSVPLG03,si,20260226-160935,1.0.2,20260219-152011,779,Introduction,T1,1,Automatic,main,10,20260226-161104,local,global,750,S,S,A,E,A-S.png,S-E.png,sS,sS,mask-2.png,mask-4.png,s,1,0.2318602001760155,none,-5,0,0.10094880010001361,0.09922570013441145,0.20019909995608032,0.2001575999893248,0.7498069000430405
RSVPLG03,si,20260226-160935,1.0.2,20260219-152011,779,Introduction,T1,1,Automatic,main,11,20260226-161109,local,global,750,H,H,A,A,A-H.png,H-A.png,hH,hH,mask-2.png,mask-4.png,s,0,0.9249547000508755,none,-5,0,0.10088669997639954,0.09873279999010265,0.2008690000511706,0.20011680014431477,0.7515871999785304
RSVPLG03,si,20260226-160935,1.0.2,20260219-152011,779,Introduction,T1,1,Automatic,main,12,20260226-161114,local,local,750,S,H,E,A,E-S.png,A-H.png,sS,hH,mask-2.png,mask-2.png,s,1,2.417129199951887,none,-5,0,0.0999511000700295,0.10118360002525151,0.20031840004958212,0.20093410019762814,0.7491570999845862
RSVPLG03,si,20260226-160935,1.0.2,20260219-152011,779,Introduction,T1,1,Automatic,main,13,20260226-161120,global,global,750,S,H,E,E,S-E.png,H-E.png,sS,hH,mask-2.png,mask-4.png,h,0,0.4825776000507176,none,-5,0,0.10082469996996224,0.10119599988684058,0.2018325999379158,0.20066959992982447,0.7506057999562472
RSVPLG03,si,20260226-160935,1.0.2,20260219-152011,779,Introduction,T1,1,Automatic,main,14,20260226-161125,global,local,750,S,H,A,A,S-A.png,A-H.png,sS,hH,mask-3.png,mask-2.png,h,0,0.37465989985503256,none,-5,0,0.10080940020270646,0.10027469997294247,0.20125120016746223,0.20008910004980862,0.7500939001329243
RSVPLG03,si,20260226-160935,1.0.2,20260219-152011,779,Introduction,T1,1,Automatic,main,15,20260226-161129,local,global,750,H,H,A,E,A-H.png,H-E.png,hH,hH,mask-1.png,mask-4.png,h,1,0.6915603000670671,none,-5,0,0.09965760004706681,0.10008510015904903,0.1989808001089841,0.2000720000360161,0.7505018999800086
RSVPLG03,si,20260226-160935,1.0.2,20260219-152011,779,Introduction,T1,1,Automatic,main,16,20260226-161134,local,global,750,H,S,A,A,A-H.png,S-A.png,hH,sS,mask-2.png,mask-3.png,h,1,0.6477777999825776,none,-5,0,0.10099510010331869,0.10015830001793802,0.1997984000481665,0.20008009998127818,0.749761400045827
RSVPLG03,si,20260226-161200,1.0.2,20260219-152011,779,Practice,T1,1,Automatic,main,1,20260226-161237,global,global,750,S,S,E,E,S-E.png,S-E.png,sS,sS,mask-1.png,mask-2.png,s,1,0.6614536000415683,none,-5,0,0.049570699920877814,0.04986659996211529,0.09974299999885261,0.09993689996190369,0.7508211999665946
RSVPLG03,si,20260226-161200,1.0.2,20260219-152011,779,Practice,T1,1,Automatic,main,2,20260226-161242,local,local,300,S,S,E,E,E-S.png,E-S.png,sS,sS,mask-4.png,mask-3.png,s,1,0.342505999840796,none,-5,0,0.049689400009810925,0.0497206998988986,0.09951910004019737,0.0992030999623239,0.30021410016343
RSVPLG03,si,20260226-161200,1.0.2,20260219-152011,779,Practice,T1,1,Automatic,main,3,20260226-161246,global,global,300,H,H,E,A,H-E.png,H-A.png,hH,hH,mask-2.png,mask-4.png,h,1,0.7106570999603719,none,-5,0,0.050171100068837404,0.04985800012946129,0.09940280020236969,0.10063030011951923,0.299111400032416
RSVPLG03,si,20260226-161200,1.0.2,20260219-152011,779,Practice,T1,1,Automatic,main,4,20260226-161250,local,local,750,H,H,E,E,E-H.png,E-H.png,hH,hH,mask-4.png,mask-1.png,h,1,0.5296159000135958,none,-5,0,0.04983469983562827,0.05062470003031194,0.09951359988190234,0.09952829987742007,0.7500915999989957
RSVPLG03,si,20260226-161200,1.0.2,20260219-152011,779,Practice,T1,1,Automatic,main,5,20260226-161255,global,global,750,S,H,A,E,S-A.png,H-E.png,sS,hH,mask-3.png,mask-2.png,s,1,0.8469682999420911,none,-5,0,0.05114679993130267,0.05173450009897351,0.1002712999470532,0.10158500005491078,0.7509035000111908
RSVPLG03,si,20260226-161200,1.0.2,20260219-152011,779,Practice,T1,1,Automatic,main,6,20260226-161300,local,global,750,H,S,E,A,E-H.png,S-A.png,hH,sS,mask-4.png,mask-2.png,s,0,2.021496699890122,none,-5,0,0.049721800023689866,0.04970690002664924,0.09963290020823479,0.10181459994055331,0.7505727000534534
RSVPLG03,si,20260226-161200,1.0.2,20260219-152011,779,Practice,T1,1,Automatic,main,7,20260226-161306,local,global,300,S,S,E,E,E-S.png,S-E.png,sS,sS,mask-4.png,mask-1.png,h,0,0.5497498998884112,none,-5,0,0.04809399996884167,0.04996920004487038,0.10022170003503561,0.09836139995604753,0.30024700006470084
RSVPLG03,si,20260226-161200,1.0.2,20260219-152011,779,Practice,T1,1,Automatic,main,8,20260226-161310,local,local,750,S,S,A,A,A-S.png,A-S.png,sS,sS,mask-2.png,mask-2.png,s,1,0.6476646999362856,none,-5,0,0.05010719993151724,0.05012240004725754,0.09930059988982975,0.09860300016589463,0.7516057998873293
RSVPLG03,si,20260226-161200,1.0.2,20260219-152011,779,Practice,T1,1,Automatic,main,9,20260226-161315,local,local,300,H,H,E,E,E-H.png,E-H.png,hH,hH,mask-3.png,mask-4.png,h,1,0.27771289995871484,none,-5,0,0.050486900145187974,0.050391900120303035,0.09864480001851916,0.10082649998366833,0.29880280001088977
RSVPLG03,si,20260226-161200,1.0.2,20260219-152011,779,Practice,T1,1,Automatic,main,10,20260226-161318,global,local,300,S,S,A,E,S-A.png,E-S.png,sS,sS,mask-1.png,mask-3.png,h,0,1.0781564998906106,none,-5,0,0.04785290011204779,0.05031260009855032,0.09856960014440119,0.10144590004347265,0.2983421999961138
RSVPLG03,si,20260226-161200,1.0.2,20260219-152011,779,Practice,T1,1,Automatic,main,11,20260226-161323,local,global,300,S,H,A,A,A-S.png,H-A.png,sS,hH,mask-1.png,mask-2.png,h,0,2.7438020000699908,none,-5,0,0.04869210021570325,0.049596300115808845,0.0997590001206845,0.09976810007356107,0.30001350003294647
RSVPLG03,si,20260226-161200,1.0.2,20260219-152011,779,Practice,T1,1,Automatic,main,12,20260226-161329,global,local,300,S,S,A,E,S-A.png,E-S.png,sS,sS,mask-4.png,mask-1.png,s,1,2.4479070000816137,none,-5,0,0.04878129996359348,0.04866569978184998,0.098663599928841,0.09958259994164109,0.30024780007079244
RSVPLG03,si,20260226-161200,1.0.2,20260219-152011,779,Practice,T1,1,Automatic,main,13,20260226-161335,global,local,750,H,H,E,E,H-E.png,E-H.png,hH,hH,mask-1.png,mask-4.png,h,1,0.8918326999992132,none,-5,0,0.049837700091302395,0.04847149993292987,0.10156109998933971,0.098845100030303,0.751533200033009
RSVPLG03,si,20260226-161200,1.0.2,20260219-152011,779,Practice,T1,1,Automatic,main,14,20260226-161340,global,global,300,S,S,E,A,S-E.png,S-A.png,sS,sS,mask-1.png,mask-2.png,s,1,0.7487631000112742,none,-5,0,0.0507878998760134,0.049751600017771125,0.10039189993403852,0.10011749994009733,0.3012606999836862
RSVPLG03,si,20260226-161200,1.0.2,20260219-152011,779,Practice,T1,1,Automatic,main,15,20260226-161344,local,global,750,S,H,A,A,A-S.png,H-A.png,sS,hH,mask-1.png,mask-2.png,h,0,0.7842415999621153,none,-5,0,0.049678499810397625,0.04887229995802045,0.09873879980295897,0.09984789998270571,0.7507813998963684
RSVPLG03,si,20260226-161200,1.0.2,20260219-152011,779,Practice,T1,1,Automatic,main,16,20260226-161349,global,local,750,H,H,E,A,H-E.png,A-H.png,hH,hH,mask-1.png,mask-1.png,h,1,0.5578031002078205,none,-5,0,0.050252499990165234,0.050134999910369515,0.10037319990806282,0.09998840000480413,0.7497086999937892
RSVPLG03,si,20260226-161459,1.0.2,20260219-152011,779,Practice,T1,1,Automatic,main,1,20260226-161518,local,local,750,S,H,A,E,A-S.png,E-H.png,sS,hH,mask-2.png,mask-3.png,s,1,2.1638956000097096,none,-5,0,0.04874619981274009,0.05066319997422397,0.09705129987560213,0.10102659999392927,0.7465279998723418
RSVPLG03,si,20260226-161459,1.0.2,20260219-152011,779,Practice,T1,1,Automatic,main,2,20260226-161524,global,global,300,H,S,E,A,H-E.png,S-A.png,hH,sS,mask-3.png,mask-3.png,s,0,0.4011339999269694,none,-5,0,0.048588200006634,0.050196300027891994,0.09841069998219609,0.0991189000196755,0.2987061000894755
RSVPLG03,si,20260226-161459,1.0.2,20260219-152011,779,Practice,T1,1,Automatic,main,3,20260226-161528,global,global,300,S,S,E,A,S-E.png,S-A.png,sS,sS,mask-1.png,mask-4.png,s,1,0.3276798001024872,none,-5,0,0.049090599874034524,0.0505256000906229,0.09930529980920255,0.09926320007070899,0.2982780998572707
RSVPLG03,si,20260226-161459,1.0.2,20260219-152011,779,Practice,T1,1,Automatic,main,4,20260226-161532,local,global,750,S,S,E,E,E-S.png,S-E.png,sS,sS,mask-3.png,mask-4.png,s,1,0.4917006001342088,none,-5,0,0.04998750006780028,0.04936429997906089,0.09916929993778467,0.10088169993832707,0.7476081000640988
RSVPLG03,si,20260226-161459,1.0.2,20260219-152011,779,Practice,T1,1,Automatic,main,5,20260226-161536,local,local,750,S,H,A,E,A-S.png,E-H.png,sS,hH,mask-1.png,mask-2.png,h,0,0.607807699823752,none,-5,0,0.04915429977700114,0.048756400123238564,0.0996248999144882,0.09908590000122786,0.7499159998260438
RSVPLG03,si,20260226-161459,1.0.2,20260219-152011,779,Practice,T1,1,Automatic,main,6,20260226-161541,global,local,750,H,H,E,E,H-E.png,E-H.png,hH,hH,mask-2.png,mask-2.png,h,1,1.6470793997868896,none,-5,0,0.05099639995023608,0.049413800006732345,0.09963119984604418,0.09920120006427169,0.7500367998145521
RSVPLG03,si,20260226-161459,1.0.2,20260219-152011,779,Practice,T1,1,Automatic,main,7,20260226-161547,local,local,300,H,S,E,E,E-H.png,E-S.png,hH,sS,mask-2.png,mask-1.png,h,1,0.35129930009134114,none,-5,0,0.05144739989191294,0.04946409980766475,0.10013150004670024,0.09919019998051226,0.3002939000725746
RSVPLG03,si,20260226-161459,1.0.2,20260219-152011,779,Practice,T1,1,Automatic,main,8,20260226-161551,local,global,750,H,S,E,A,E-H.png,S-A.png,hH,sS,mask-3.png,mask-2.png,s,0,0.6205573999322951,none,-5,0,0.04922569985501468,0.04859070014208555,0.10122119984589517,0.09831680008210242,0.7498734998516738
RSVPLG03,si,20260226-161459,1.0.2,20260219-152011,779,Practice,T1,1,Automatic,main,9,20260226-161555,local,local,300,S,S,A,A,A-S.png,A-S.png,sS,sS,mask-2.png,mask-4.png,h,0,1.1152850999496877,none,-5,0,0.049250900046899915,0.04938410012982786,0.09921350004151464,0.10006000008434057,0.3001278000883758
RSVPLG03,si,20260226-161459,1.0.2,20260219-152011,779,Practice,T1,1,Automatic,main,10,20260226-161600,global,local,300,H,S,E,E,H-E.png,E-S.png,hH,sS,mask-3.png,mask-1.png,h,1,1.884149600053206,none,-5,0,0.04801790020428598,0.0499855000525713,0.09810270019806921,0.10005800006911159,0.29792260006070137
RSVPLG03,si,20260226-161459,1.0.2,20260219-152011,779,Practice,T1,1,Automatic,main,11,20260226-161605,global,global,750,S,H,A,E,S-A.png,H-E.png,sS,hH,mask-1.png,mask-1.png,s,1,5.602659000083804,none,-5,0,0.049603400053456426,0.05041350005194545,0.10162920015864074,0.1001025999430567,0.7483485999982804
RSVPLG03,si,20260226-161459,1.0.2,20260219-152011,779,Practice,T1,1,Automatic,main,12,20260226-161615,local,global,300,S,S,E,E,E-S.png,S-E.png,sS,sS,mask-2.png,mask-1.png,s,1,0.3341763000935316,none,-5,0,0.049894000170752406,0.04988289996981621,0.1014334000647068,0.10070910002104938,0.2992864002007991
RSVPLG03,si,20260226-161459,1.0.2,20260219-152011,779,Practice,T1,1,Automatic,main,13,20260226-161619,local,global,300,S,H,A,A,A-S.png,H-A.png,sS,hH,mask-4.png,mask-2.png,h,0,1.4817203998100013,none,-5,0,0.048719200072810054,0.04829320008866489,0.10067240009084344,0.09836460021324456,0.30017589987255633
RSVPLG03,si,20260226-161459,1.0.2,20260219-152011,779,Practice,T1,1,Automatic,main,14,20260226-161624,global,global,750,S,S,A,E,S-A.png,S-E.png,sS,sS,mask-4.png,mask-2.png,s,1,0.5773690999485552,none,-5,0,0.04977559996768832,0.04894790006801486,0.09954269998706877,0.0989967999048531,0.7482068000826985
RSVPLG03,si,20260226-161459,1.0.2,20260219-152011,779,Practice,T1,1,Automatic,main,15,20260226-161628,global,local,750,S,S,E,A,S-E.png,A-S.png,sS,sS,mask-1.png,mask-1.png,s,1,0.596756299957633,none,-5,0,0.051173599902540445,0.049574899952858686,0.09941619983874261,0.09985240013338625,0.7489823999349028
RSVPLG03,si,20260226-161459,1.0.2,20260219-152011,779,Practice,T1,1,Automatic,main,16,20260226-161633,global,local,300,H,H,E,A,H-E.png,A-H.png,hH,hH,mask-3.png,mask-4.png,h,1,0.5903294999152422,none,-5,0,0.04937449982389808,0.050583700183779,0.09968289989046752,0.10135220014490187,0.29785879980772734
RSVPLG03,si,20260226-161731,1.0.2,20260219-152011,779,Practice,T1,1,Automatic,main,1,20260226-161754,global,global,300,H,S,E,A,H-E.png,S-A.png,hH,sS,mask-4.png,mask-4.png,h,1,0.5065497001633048,none,-5,0,0.04497330007143319,0.050345700001344085,0.09562089992687106,0.09979890007525682,0.29509039991535246
RSVPLG03,si,20260226-161731,1.0.2,20260219-152011,779,Practice,T1,1,Automatic,main,2,20260226-161758,global,global,750,S,H,A,E,S-A.png,H-E.png,sS,hH,mask-1.png,mask-4.png,s,1,0.4753978999797255,none,-5,0,0.049728200072422624,0.04969109990634024,0.09890640014782548,0.10048540006391704,0.7500273000914603
RSVPLG03,si,20260226-161731,1.0.2,20260219-152011,779,Practice,T1,1,Automatic,main,3,20260226-161802,local,global,750,S,S,E,A,E-S.png,S-A.png,sS,sS,mask-1.png,mask-3.png,s,1,0.19720970001071692,none,-5,0,0.049723400035873055,0.05041010002605617,0.09845390007831156,0.10079280007630587,0.7492915000766516
RSVPLG03,si,20260226-161731,1.0.2,20260219-152011,779,Practice,T1,1,Automatic,main,4,20260226-161806,global,global,750,S,S,E,E,S-E.png,S-E.png,sS,sS,mask-4.png,mask-1.png,s,1,0.381588599877432,none,-5,0,0.04978300002403557,0.05048560001887381,0.1001570001244545,0.09929849999025464,0.7502562999725342
RSVPLG03,si,20260226-161731,1.0.2,20260219-152011,779,Practice,T1,1,Automatic,main,5,20260226-161811,local,global,300,S,H,A,E,A-S.png,H-E.png,sS,hH,mask-1.png,mask-2.png,s,1,0.2665017999242991,none,-5,0,0.04991250019520521,0.04976460011675954,0.10097180004231632,0.10058730002492666,0.2998836000915617
RSVPLG03,si,20260226-161731,1.0.2,20260219-152011,779,Practice,T1,1,Automatic,main,6,20260226-161815,local,local,300,S,S,E,E,E-S.png,E-S.png,sS,sS,mask-2.png,mask-3.png,s,1,0.3098344001919031,none,-5,0,0.047909499844536185,0.05039240000769496,0.09787589986808598,0.09997290000319481,0.29768839990720153
RSVPLG03,si,20260226-161731,1.0.2,20260219-152011,779,Practice,T1,1,Automatic,main,7,20260226-161818,global,local,750,S,H,A,A,S-A.png,A-H.png,sS,hH,mask-4.png,mask-2.png,s,1,0.004290299955755472,none,-5,0,0.050737799843773246,0.05100849992595613,0.10061119985766709,0.10059699998237193,0.7515893999952823
RSVPLG03,si,20260226-161731,1.0.2,20260219-152011,779,Practice,T1,1,Automatic,main,8,20260226-161822,local,local,750,S,S,E,E,E-S.png,E-S.png,sS,sS,mask-1.png,mask-1.png,s,1,0.8842718999367207,none,-5,0,0.048940999899059534,0.04857919993810356,0.09884699992835522,0.09895220003090799,0.7512531999964267
RSVPLG03,si,20260226-161731,1.0.2,20260219-152011,779,Practice,T1,1,Automatic,main,9,20260226-161827,global,global,300,H,S,E,A,H-E.png,S-A.png,hH,sS,mask-4.png,mask-1.png,h,1,0.7777625999879092,none,-5,0,0.05049520009197295,0.050304400036111474,0.10034519992768764,0.10133980005048215,0.29948009992949665
RSVPLG03,si,20260226-161731,1.0.2,20260219-152011,779,Practice,T1,1,Automatic,main,10,20260226-161832,local,global,750,H,H,A,E,A-H.png,H-E.png,hH,hH,mask-4.png,mask-2.png,h,1,0.3773548000026494,none,-5,0,0.04895359999500215,0.0517601000610739,0.09875170001760125,0.10147790005430579,0.7488916998263448
RSVPLG03,si,20260226-161731,1.0.2,20260219-152011,779,Practice,T1,1,Automatic,main,11,20260226-161836,global,local,300,S,S,E,A,S-E.png,A-S.png,sS,sS,mask-3.png,mask-1.png,s,1,0.14182240003719926,none,-5,0,0.04936180007643998,0.05028180009685457,0.09895250014960766,0.09920069994404912,0.2996863001026213
RSVPLG03,si,20260226-161731,1.0.2,20260219-152011,779,Practice,T1,1,Automatic,main,12,20260226-161840,global,local,300,H,H,A,E,H-A.png,E-H.png,hH,hH,mask-4.png,mask-3.png,s,0,2.865066099911928,none,-5,0,0.048757300013676286,0.050851300125941634,0.09840469993650913,0.1017249000724405,0.29814149998128414
RSVPLG03,si,20260226-161731,1.0.2,20260219-152011,779,Practice,T1,1,Automatic,main,13,20260226-161846,local,local,750,S,S,E,E,E-S.png,E-S.png,sS,sS,mask-1.png,mask-1.png,s,1,0.3411979000084102,none,-5,0,0.049782299902290106,0.05055500008165836,0.09887009998783469,0.10023190011270344,0.7496225999202579
RSVPLG03,si,20260226-161731,1.0.2,20260219-152011,779,Practice,T1,1,Automatic,main,14,20260226-161850,local,local,300,S,H,E,A,E-S.png,A-H.png,sS,hH,mask-3.png,mask-1.png,s,1,0.13577439985238016,none,-5,0,0.05165160004980862,0.050399500178173184,0.1007414001505822,0.10308190016075969,0.3007225999608636
RSVPLG03,si,20260226-161731,1.0.2,20260219-152011,779,Practice,T1,1,Automatic,main,15,20260226-161854,global,local,750,H,H,A,E,H-A.png,E-H.png,hH,hH,mask-3.png,mask-1.png,h,1,1.1208756000269204,none,-5,0,0.05065150000154972,0.05040359986014664,0.09960650000721216,0.09983960003592074,0.7496226001530886
RSVPLG03,si,20260226-161731,1.0.2,20260219-152011,779,Practice,T1,1,Automatic,main,16,20260226-161859,local,global,300,S,H,E,A,E-S.png,H-A.png,sS,hH,mask-1.png,mask-2.png,s,1,0.15923019987531006,none,-5,0,0.05105459992773831,0.051575300050899386,0.09967179992236197,0.10019519994966686,0.29970289999619126
RSVPLG03,si,20260226-161928,1.0.2,20260219-152011,779,Introduction,Both,1,Automatic,main,1,20260226-162027,local,global,750,H,H,E,E,E-H.png,H-E.png,hH,hH,mask-4.png,mask-3.png,s,0,3.9457070000935346,h,1,1.4091986001003534,0.09868789999745786,0.09904680005274713,0.1985801998525858,0.19966809987090528,0.7481943999882787
RSVPLG03,si,20260226-161928,1.0.2,20260219-152011,779,Introduction,Both,1,Automatic,main,2,20260226-162037,local,local,750,H,H,E,E,E-H.png,E-H.png,hH,hH,mask-1.png,mask-2.png,h,1,1.0659959001932293,s,0,0.00046289991587400436,0.09858520003035665,0.09944109991192818,0.19770599994808435,0.19937930000014603,0.7477756000589579
RSVPLG03,si,20260226-161928,1.0.2,20260219-152011,779,Introduction,Both,1,Automatic,main,3,20260226-162043,global,global,750,S,S,E,E,S-E.png,S-E.png,sS,sS,mask-2.png,mask-3.png,s,1,3.033157299971208,h,0,0.33736520004458725,0.099572200095281,0.0999980999622494,0.19930520001798868,0.20006110006943345,0.7484073999803513
RSVPLG03,si,20260226-161928,1.0.2,20260219-152011,779,Introduction,Both,1,Automatic,main,4,20260226-162050,global,local,750,S,H,A,A,S-A.png,A-H.png,sS,hH,mask-3.png,mask-1.png,s,1,1.478186700027436,h,1,2.4413524998817593,0.10124520002864301,0.09969529998488724,0.20159770012833178,0.20042990008369088,0.7488708000164479
RSVPLG03,si,20260226-161928,1.0.2,20260219-152011,779,Introduction,Both,1,Automatic,main,5,20260226-162058,local,local,750,H,H,E,A,E-H.png,A-H.png,hH,hH,mask-2.png,mask-1.png,s,0,8.25485449982807,h,1,0.26642270013689995,0.09820759994909167,0.09894070005975664,0.198322799988091,0.1978762000799179,0.7486449999269098
RSVPLG03,si,20260226-161928,1.0.2,20260219-152011,779,Introduction,Both,1,Automatic,main,6,20260226-162111,global,local,750,H,S,E,A,H-E.png,A-S.png,hH,sS,mask-1.png,mask-4.png,h,1,2.9437239998951554,s,1,2.2012249999679625,0.10052630002610385,0.09976519993506372,0.19941459991969168,0.19960869988426566,0.7499416000209749
RSVPLG03,si,20260226-161928,1.0.2,20260219-152011,779,Introduction,Both,1,Automatic,main,7,20260226-162121,global,local,750,H,H,E,E,H-E.png,E-H.png,hH,hH,mask-2.png,mask-2.png,h,1,1.462226599920541,h,1,0.10851159994490445,0.09985590004362166,0.09974450012668967,0.1989094999153167,0.19968329998664558,0.748274999903515
RSVPLG03,si,20260226-161928,1.0.2,20260219-152011,779,Introduction,Both,1,Automatic,main,8,20260226-162126,global,global,750,H,S,E,A,H-E.png,S-A.png,hH,sS,mask-2.png,mask-2.png,h,1,1.43693029996939,h,0,0.18527970020659268,0.09956440003588796,0.09971500001847744,0.1984655000269413,0.1992243998683989,0.7480436000041664
RSVPLG03,si,20260226-161928,1.0.2,20260219-152011,779,Introduction,Both,1,Automatic,main,9,20260226-162132,local,local,750,H,S,A,E,A-H.png,E-S.png,hH,sS,mask-2.png,mask-4.png,h,1,0.6542684000451118,s,1,0.22441240004263818,0.09810500009916723,0.09871180006302893,0.1994207000825554,0.19862590008415282,0.7476005000062287
RSVPLG03,si,20260226-161928,1.0.2,20260219-152011,779,Introduction,Both,1,Automatic,main,10,20260226-162137,global,global,750,H,H,A,A,H-A.png,H-A.png,hH,hH,mask-4.png,mask-3.png,h,1,1.1246951001230627,h,1,0.10465959995053709,0.10040810005739331,0.09977469989098608,0.20134639996103942,0.1998032999690622,0.7486718001309782
RSVPLG03,si,20260226-161928,1.0.2,20260219-152011,779,Introduction,Both,1,Automatic,main,11,20260226-162143,local,global,750,H,S,E,A,E-H.png,S-A.png,hH,sS,mask-2.png,mask-3.png,h,1,0.9314917998854071,h,0,0.08983470010571182,0.09965700004249811,0.10018300008960068,0.19935470004566014,0.19803189998492599,0.7496356000192463
RSVPLG03,si,20260226-161928,1.0.2,20260219-152011,779,Introduction,Both,1,Automatic,main,12,20260226-162148,global,global,750,H,S,E,E,H-E.png,S-E.png,hH,sS,mask-4.png,mask-1.png,h,1,0.5955489999614656,h,0,0.06513430015183985,0.1003282000310719,0.1000554000493139,0.1997337001375854,0.1990980999544263,0.7493638000451028
RSVPLG03,si,20260226-161928,1.0.2,20260219-152011,779,Introduction,Both,1,Automatic,main,13,20260226-162153,local,local,750,S,S,A,E,A-S.png,E-S.png,sS,sS,mask-2.png,mask-2.png,s,1,0.28451040014624596,s,1,0.21819510008208454,0.09927910007536411,0.09887800016440451,0.19806940015405416,0.19776480016298592,0.748923399951309
RSVPLG03,si,20260226-161928,1.0.2,20260219-152011,779,Introduction,Both,1,Automatic,main,14,20260226-162158,local,global,750,H,S,E,E,E-H.png,S-E.png,hH,sS,mask-1.png,mask-4.png,s,0,2.616166800027713,h,0,0.09636420011520386,0.10084580001421273,0.0986552000977099,0.20008029998280108,0.19911359995603561,0.7497525999788195
RSVPLG03,si,20260226-161928,1.0.2,20260219-152011,779,Introduction,Both,1,Automatic,main,15,20260226-162205,local,global,750,H,S,A,A,A-H.png,S-A.png,hH,sS,mask-3.png,mask-4.png,h,1,1.2713201998267323,s,1,0.11300230002962053,0.10111439996398985,0.10095290001481771,0.20104609988629818,0.2000523000024259,0.7488671999890357
RSVPLG03,si,20260226-161928,1.0.2,20260219-152011,779,Introduction,Both,1,Automatic,main,16,20260226-162210,global,local,750,H,S,E,E,H-E.png,E-S.png,hH,sS,mask-3.png,mask-4.png,h,1,2.0849164000246674,s,1,0.04932290012948215,0.09882909990847111,0.09870449989102781,0.19832369987852871,0.19965019985102117,0.7484937000554055
RSVPLG03,si,20260226-162311,1.0.2,20260219-152011,779,Practice,Both,1,Automatic,main,1,20260226-162329,global,global,300,S,H,E,E,S-E.png,H-E.png,sS,hH,mask-4.png,mask-4.png,s,1,1.3204383000265807,h,1,0.1293693999759853,0.047044399892911315,0.051794799976050854,0.09622840001247823,0.10173149988986552,0.29596549994312227
RSVPLG03,si,20260226-162311,1.0.2,20260219-152011,779,Practice,Both,1,Automatic,main,2,20260226-162334,global,local,300,S,S,E,A,S-E.png,A-S.png,sS,sS,mask-3.png,mask-4.png,s,1,1.3754681001883,h,0,0.11351529997773468,0.04905230016447604,0.049700899980962276,0.09884069999679923,0.09948879992589355,0.29980890010483563
RSVPLG03,si,20260226-162311,1.0.2,20260219-152011,779,Practice,Both,1,Automatic,main,3,20260226-162339,local,global,750,S,H,E,A,E-S.png,H-A.png,sS,hH,mask-3.png,mask-4.png,s,1,1.0457542999647558,h,1,0.024512399919331074,0.04969329992309213,0.04994019982405007,0.09944280004128814,0.09890719992108643,0.7526752001140267
RSVPLG03,si,20260226-162311,1.0.2,20260219-152011,779,Practice,Both,1,Automatic,main,4,20260226-162345,local,global,300,H,S,A,A,A-H.png,S-A.png,hH,sS,mask-2.png,mask-4.png,h,1,1.2726000999100506,s,1,0.22606889996677637,0.05015549995005131,0.04991109995171428,0.09918259992264211,0.10065110004507005,0.29956609988585114
RSVPLG03,si,20260226-162311,1.0.2,20260219-152011,779,Practice,Both,1,Automatic,main,5,20260226-162350,global,global,300,H,S,E,E,H-E.png,S-E.png,hH,sS,mask-1.png,mask-1.png,h,1,0.9861156998667866,s,1,0.15437000012025237,0.050654900027439,0.04972729994915426,0.10100190015509725,0.09971669991500676,0.3006520001217723
RSVPLG03,si,20260226-162311,1.0.2,20260219-152011,779,Practice,Both,1,Automatic,main,6,20260226-162355,global,local,750,H,S,E,A,H-E.png,A-S.png,hH,sS,mask-3.png,mask-4.png,h,1,1.57753870007582,s,1,0.017521300120279193,0.05142690008506179,0.049010299844667315,0.10047090006992221,0.10005689994432032,0.7519225000869483
RSVPLG03,si,20260226-162311,1.0.2,20260219-152011,779,Practice,Both,1,Automatic,main,7,20260226-162400,global,global,750,S,S,A,A,S-A.png,S-A.png,sS,sS,mask-3.png,mask-4.png,s,1,1.041793999960646,s,1,0.11358050000853837,0.04937179991975427,0.0486546999309212,0.1015767001081258,0.0994337999727577,0.7513580999802798
RSVPLG03,si,20260226-162311,1.0.2,20260219-152011,779,Practice,Both,1,Automatic,main,8,20260226-162406,global,global,750,S,H,E,A,S-E.png,H-A.png,sS,hH,mask-1.png,mask-1.png,s,1,0.8320877999067307,h,1,0.01750209997408092,0.05016219988465309,0.04970499989576638,0.10017469990998507,0.10010439995676279,0.7515201999340206
RSVPLG03,si,20260226-162311,1.0.2,20260219-152011,779,Practice,Both,1,Automatic,main,9,20260226-162411,global,local,300,S,H,A,A,S-A.png,A-H.png,sS,hH,mask-3.png,mask-2.png,s,1,0.8428563000634313,h,1,1.0028407000936568,0.050212400034070015,0.04883320000953972,0.10146959987469018,0.09863629983738065,0.30121439998038113
RSVPLG03,si,20260226-162311,1.0.2,20260219-152011,779,Practice,Both,1,Automatic,main,10,20260226-162415,local,global,750,H,H,A,E,A-H.png,H-E.png,hH,hH,mask-1.png,mask-4.png,h,1,0.9002203000709414,s,0,0.9805725000333041,0.049407499842345715,0.05082390015013516,0.0993470000103116,0.10063670016825199,0.7502340998034924
RSVPLG03,si,20260226-162311,1.0.2,20260219-152011,779,Practice,Both,1,Automatic,main,11,20260226-162420,local,local,750,H,H,E,A,E-H.png,A-H.png,hH,hH,mask-2.png,mask-4.png,h,1,0.6751115000806749,h,1,0.0729877999983728,0.04946119990199804,0.0495454000774771,0.09927370003424585,0.09959370014257729,0.7513037999160588
RSVPLG03,si,20260226-162311,1.0.2,20260219-152011,779,Practice,Both,1,Automatic,main,12,20260226-162425,local,local,750,H,H,E,E,E-H.png,E-H.png,hH,hH,mask-2.png,mask-4.png,h,1,0.6105398000217974,h,1,0.07445219997316599,0.049003500025719404,0.04979240009561181,0.0997539998497814,0.10155509994365275,0.7505500998813659
RSVPLG03,si,20260226-162311,1.0.2,20260219-152011,779,Practice,Both,1,Automatic,main,13,20260226-162430,local,global,300,H,S,E,A,E-H.png,S-A.png,hH,sS,mask-1.png,mask-3.png,h,1,0.49883639998734,s,1,0.0018990000244230032,0.05051329988054931,0.049939499935135245,0.099449000088498,0.10152789996936917,0.29961690003983676
RSVPLG03,si,20260226-162311,1.0.2,20260219-152011,779,Practice,Both,1,Automatic,main,14,20260226-162434,local,local,300,H,S,A,A,A-H.png,A-S.png,hH,sS,mask-2.png,mask-3.png,h,1,0.6176370000466704,s,1,0.2411821000277996,0.05061600008048117,0.05119509994983673,0.1003054000902921,0.1003082999959588,0.3006337000988424
RSVPLG03,si,20260226-162311,1.0.2,20260219-152011,779,Practice,Both,1,Automatic,main,15,20260226-162439,local,local,300,S,S,A,A,A-S.png,A-S.png,sS,sS,mask-2.png,mask-2.png,h,0,0.27233710000291467,h,0,0.041731700068339705,0.0506630998570472,0.04976239986717701,0.10046129999682307,0.10156009998172522,0.30073109990917146
RSVPLG03,si,20260226-162311,1.0.2,20260219-152011,779,Practice,Both,1,Automatic,main,16,20260226-162443,global,local,750,S,S,E,A,S-E.png,A-S.png,sS,sS,mask-4.png,mask-3.png,s,1,0.20888439984992146,s,1,0.08214329998008907,0.04976409999653697,0.049453499959781766,0.0996582000516355,0.10132799996063113,0.7513510000426322
RSVPLG03,si,20260226-162543,1.0.2,20260219-152011,779,Experiment,Both,1,Automatic,warmup,1,20260226-162620,global,local,750,S,H,E,E,S-E.png,E-H.png,sS,hH,mask-2.png,mask-2.png,s,1,1.0923532999586314,h,1,0.15204209997318685,0.05033660004846752,0.05008219997398555,0.10018220008350909,0.10013419995084405,0.7503667001146823
RSVPLG03,si,20260226-162543,1.0.2,20260219-152011,779,Experiment,Both,1,Automatic,warmup,2,20260226-162626,local,local,300,H,H,A,A,A-H.png,A-H.png,hH,hH,mask-4.png,mask-4.png,h,1,0.9780303000006825,s,0,0.048868400044739246,0.0494911998976022,0.04888710007071495,0.1003942999523133,0.09944869996979833,0.3004065998829901
RSVPLG03,si,20260226-162543,1.0.2,20260219-152011,779,Experiment,Both,1,Automatic,warmup,3,20260226-162631,local,local,750,S,S,A,A,A-S.png,A-S.png,sS,sS,mask-4.png,mask-3.png,s,1,0.984043300151825,s,1,0.09750250005163252,0.0488605999853462,0.04989210003986955,0.09990359982475638,0.09935669996775687,0.7498737999703735
RSVPLG03,si,20260226-162543,1.0.2,20260219-152011,779,Experiment,Both,1,Automatic,warmup,4,20260226-162636,global,global,750,S,S,A,E,S-A.png,S-E.png,sS,sS,mask-1.png,mask-4.png,s,1,0.37973639997653663,s,1,0.08035750011913478,0.049623899860307574,0.049053900176659226,0.1000220999121666,0.09946950012817979,0.7506038998253644
RSVPLG03,si,20260226-162543,1.0.2,20260219-152011,779,Experiment,Both,1,Automatic,main,5,20260226-162640,global,local,300,H,H,A,A,H-A.png,A-H.png,hH,hH,mask-2.png,mask-3.png,h,1,2.8579416000284255,h,1,0.0722360999789089,0.05095240008085966,0.04980849986895919,0.10090849990956485,0.0997338998131454,0.30124610010534525
RSVPLG03,si,20260226-162543,1.0.2,20260219-152011,779,Experiment,Both,1,Automatic,main,6,20260226-162647,global,local,750,S,H,E,E,S-E.png,E-H.png,sS,hH,mask-1.png,mask-2.png,s,1,0.9239781000651419,h,1,0.20191150018945336,0.04913880000822246,0.04972059978172183,0.1003570999018848,0.09956469992175698,0.7514061001129448
RSVPLG03,si,20260226-162543,1.0.2,20260219-152011,779,Experiment,Both,1,Automatic,main,7,20260226-162652,local,global,300,S,H,E,A,E-S.png,H-A.png,sS,hH,mask-2.png,mask-3.png,s,1,0.8422431999351829,h,1,0.9785305000841618,0.049399400129914284,0.051152899861335754,0.09992530010640621,0.10122639988549054,0.29917230014689267
RSVPLG03,si,20260226-162543,1.0.2,20260219-152011,779,Experiment,Both,1,Automatic,main,8,20260226-162657,local,global,750,H,H,E,A,E-H.png,H-A.png,hH,hH,mask-2.png,mask-4.png,s,0,0.8193415000569075,h,1,0.8990935999900103,0.049177899956703186,0.0499737998470664,0.09800709993578494,0.09831049991771579,0.7504660000558943
RSVPLG03,si,20260226-162543,1.0.2,20260219-152011,779,Experiment,Both,1,Automatic,main,9,20260226-162702,local,local,300,S,S,A,A,A-S.png,A-S.png,sS,sS,mask-3.png,mask-2.png,s,1,0.3827030002139509,h,0,0.24131050007417798,0.049651999957859516,0.04939420009031892,0.10220029996708035,0.0994728000368923,0.30114230001345277
RSVPLG03,si,20260226-162543,1.0.2,20260219-152011,779,Experiment,Both,1,Automatic,main,10,20260226-162706,local,global,300,H,S,A,A,A-H.png,S-A.png,hH,sS,mask-2.png,mask-3.png,h,1,1.6604994998779148,s,1,0.057908699847757816,0.04974799999035895,0.05062830005772412,0.09820690006017685,0.10045960010029376,0.299115699948743
RSVPLG03,si,20260226-162543,1.0.2,20260219-152011,779,Experiment,Both,1,Automatic,main,11,20260226-162712,local,local,300,H,S,E,E,E-H.png,E-S.png,hH,sS,mask-3.png,mask-2.png,h,1,0.6792133001144975,s,1,0.8232164001092315,0.04967790003865957,0.05094830016605556,0.09964739996939898,0.10029960004612803,0.3002871999051422
RSVPLG03,si,20260226-162543,1.0.2,20260219-152011,779,Experiment,Both,1,Automatic,main,12,20260226-162716,local,global,750,H,H,E,A,E-H.png,H-A.png,hH,hH,mask-3.png,mask-1.png,h,1,1.3295167000032961,s,0,0.36181050003506243,0.049724499927833676,0.04907780000939965,0.09858520003035665,0.0985113000497222,0.7510573999024928
RSVPLG03,si,20260226-162543,1.0.2,20260219-152011,779,Experiment,Both,1,Automatic,main,13,20260226-162722,local,global,300,S,S,E,E,E-S.png,S-E.png,sS,sS,mask-3.png,mask-3.png,h,0,0.9361206998582929,s,1,0.008141099940985441,0.049625499872490764,0.04876870010048151,0.09974580002017319,0.09986420022323728,0.3002735998015851
RSVPLG03,si,20260226-162543,1.0.2,20260219-152011,779,Experiment,Both,1,Automatic,main,14,20260226-162727,local,global,750,H,H,A,A,A-H.png,H-A.png,hH,hH,mask-2.png,mask-4.png,h,1,0.594502099789679,s,0,0.7785762997809798,0.05013360013253987,0.051711199805140495,0.10086150001734495,0.10166689986363053,0.7497239001095295
RSVPLG03,si,20260226-162543,1.0.2,20260219-152011,779,Experiment,Both,1,Automatic,main,15,20260226-162732,local,global,300,S,H,E,A,E-S.png,H-A.png,sS,hH,mask-3.png,mask-2.png,s,1,1.0474839000962675,h,1,1.1669765999540687,0.050032899947836995,0.04959940002299845,0.0998726999387145,0.09937279997393489,0.30058979988098145
RSVPLG03,si,20260226-162543,1.0.2,20260219-152011,779,Experiment,Both,1,Automatic,main,16,20260226-162736,local,local,750,H,H,A,A,A-H.png,A-H.png,hH,hH,mask-3.png,mask-2.png,h,1,1.9708948000334203,h,1,0.3845627000555396,0.05058439983986318,0.04909650003537536,0.10016219993121922,0.09892500005662441,0.7513060998171568
RSVPLG03,si,20260226-162543,1.0.2,20260219-152011,779,Experiment,Both,1,Automatic,main,17,20260226-162743,local,local,300,H,H,A,A,A-H.png,A-H.png,hH,hH,mask-3.png,mask-2.png,h,1,1.233144200174138,h,1,0.08304800000041723,0.04978929995559156,0.05151189980097115,0.10063449991866946,0.10145939979702234,0.29944490012712777
RSVPLG03,si,20260226-162543,1.0.2,20260219-152011,779,Experiment,Both,1,Automatic,main,18,20260226-162748,local,global,300,S,H,E,E,E-S.png,H-E.png,sS,hH,mask-1.png,mask-2.png,s,1,1.0420007000211626,h,1,0.0023091998882591724,0.04970169998705387,0.05015069991350174,0.09956909995526075,0.10087800002656877,0.29926400003023446
RSVPLG03,si,20260226-162543,1.0.2,20260219-152011,779,Experiment,Both,1,Automatic,main,19,20260226-162753,local,local,300,S,S,A,A,A-S.png,A-S.png,sS,sS,mask-2.png,mask-2.png,s,1,0.6248397999443114,s,1,0.24971030000597239,0.049320599995553493,0.05043880012817681,0.0999360999558121,0.10007699998095632,0.30000149994157255
RSVPLG03,si,20260226-162543,1.0.2,20260219-152011,779,Experiment,Both,1,Automatic,main,20,20260226-162757,local,local,750,S,S,E,E,E-S.png,E-S.png,sS,sS,mask-1.png,mask-2.png,s,1,1.6677870999556035,s,1,0.38219929998740554,0.04980539996176958,0.04910659999586642,0.10078500001691282,0.09994180011563003,0.7516733999364078
RSVPLG03,si,20260226-162543,1.0.2,20260219-152011,779,Experiment,Both,1,Automatic,main,21,20260226-162803,global,local,750,S,S,A,A,S-A.png,A-S.png,sS,sS,mask-3.png,mask-2.png,s,1,1.101438500219956,s,1,0.12251569982618093,0.05019700014963746,0.04968030005693436,0.09859560010954738,0.0983773001935333,0.7500454999972135
RSVPLG03,si,20260226-162543,1.0.2,20260219-152011,779,Experiment,Both,1,Automatic,main,22,20260226-162809,global,local,750,H,S,E,E,H-E.png,E-S.png,hH,sS,mask-1.png,mask-1.png,h,1,0.6816517000552267,h,0,0.12805090006440878,0.04840930015780032,0.05049839988350868,0.09898190014064312,0.10019469982944429,0.7491908001247793
RSVPLG03,si,20260226-162543,1.0.2,20260219-152011,779,Experiment,Both,1,Automatic,main,23,20260226-162814,global,global,300,H,H,A,E,H-A.png,H-E.png,hH,hH,mask-2.png,mask-4.png,h,1,0.6396900999825448,s,0,0.0014909999445080757,0.05040819989517331,0.049843600019812584,0.10022190003655851,0.10170300002209842,0.30012369994074106
RSVPLG03,si,20260226-162543,1.0.2,20260219-152011,779,Experiment,Both,1,Automatic,main,24,20260226-162818,global,global,300,H,H,A,E,H-A.png,H-E.png,hH,hH,mask-1.png,mask-4.png,h,1,1.1666073999367654,h,1,2.288458599941805,0.049277100013569,0.049155900022014976,0.0998255000449717,0.10016639996320009,0.3002822999842465
RSVPLG03,si,20260226-162543,1.0.2,20260219-152011,779,Experiment,Both,1,Automatic,main,25,20260226-162825,global,global,750,H,H,A,E,H-A.png,H-E.png,hH,hH,mask-2.png,mask-1.png,h,1,0.8374880000483245,h,1,0.10509130009450018,0.05089650000445545,0.049882999854162335,0.10018999991007149,0.09916819981299341,0.7518011000938714
RSVPLG03,si,20260226-162543,1.0.2,20260219-152011,779,Experiment,Both,1,Automatic,main,26,20260226-162904,global,local,750,S,H,E,A,S-E.png,A-H.png,sS,hH,mask-2.png,mask-2.png,s,1,2.376719099935144,h,1,1.8165796999819577,0.050732299918308854,0.05029040016233921,0.1000165999867022,0.10121410014107823,0.7501874999143183
RSVPLG03,si,20260226-162543,1.0.2,20260219-152011,779,Experiment,Both,1,Automatic,main,27,20260226-162909,global,global,750,S,S,A,A,S-A.png,S-A.png,sS,sS,mask-4.png,mask-2.png,s,1,1.6885732999071479,s,1,0.8409049999900162,0.0496503000613302,0.049513099947944283,0.09917589998804033,0.09940379997715354,0.7515662000514567
RSVPLG03,si,20260226-162543,1.0.2,20260219-152011,779,Experiment,Both,1,Automatic,main,28,20260226-162914,global,local,300,S,H,A,E,S-A.png,E-H.png,sS,hH,mask-1.png,mask-3.png,s,1,0.12151059997268021,h,1,0.9857336001005024,0.05180149991065264,0.049016800010576844,0.0996055998839438,0.09865929977968335,0.30118660000152886
RSVPLG03,si,20260226-162543,1.0.2,20260219-152011,779,Experiment,Both,1,Automatic,main,29,20260226-162919,local,local,750,S,H,E,E,E-S.png,E-H.png,sS,hH,mask-1.png,mask-1.png,s,1,0.8736833999864757,h,1,1.0994397001340985,0.049541099928319454,0.04878919990733266,0.09960359986871481,0.09874560008756816,0.7516004999633878
RSVPLG03,si,20260226-162543,1.0.2,20260219-152011,779,Experiment,Both,1,Automatic,main,30,20260226-162924,global,local,300,S,S,A,E,S-A.png,E-S.png,sS,sS,mask-2.png,mask-1.png,s,1,0.9790293001569808,h,0,0.7490314999595284,0.04962619999423623,0.05186080001294613,0.09863170003518462,0.10031050001271069,0.2978952000848949
RSVPLG03,si,20260226-162543,1.0.2,20260219-152011,779,Experiment,Both,1,Automatic,main,31,20260226-162928,global,global,750,H,H,E,E,H-E.png,H-E.png,hH,hH,mask-2.png,mask-4.png,h,1,0.2884030998684466,h,1,0.07070919987745583,0.04977419995702803,0.05081439996138215,0.09985750005580485,0.1010652999393642,0.7490143000613898
RSVPLG03,si,20260226-162543,1.0.2,20260219-152011,779,Experiment,Both,1,Automatic,main,32,20260226-162933,global,local,300,H,H,E,E,H-E.png,E-H.png,hH,hH,mask-2.png,mask-1.png,h,1,0.6691323998384178,s,0,0.6052294000983238,0.050118800019845366,0.05012540007010102,0.1002076999284327,0.1012941999360919,0.30017429986037314
RSVPLG03,si,20260226-162543,1.0.2,20260219-152011,779,Experiment,Both,1,Automatic,main,33,20260226-162937,global,global,750,S,H,E,E,S-E.png,H-E.png,sS,hH,mask-1.png,mask-1.png,s,1,0.24848389998078346,h,1,0.17774710012599826,0.050760400015860796,0.05069470009766519,0.10025230003520846,0.10113870003260672,0.7513313998933882
RSVPLG03,si,20260226-162543,1.0.2,20260219-152011,779,Experiment,Both,1,Automatic,main,34,20260226-162943,global,global,300,H,H,E,A,H-E.png,H-A.png,hH,hH,mask-1.png,mask-2.png,h,1,0.4878400999587029,h,1,0.0738393000792712,0.04952720017172396,0.050655199913308024,0.10087019996717572,0.09997699991799891,0.3001036001369357
RSVPLG03,si,20260226-162543,1.0.2,20260219-152011,779,Experiment,Both,1,Automatic,main,35,20260226-162947,local,local,750,S,S,A,E,A-S.png,E-S.png,sS,sS,mask-2.png,mask-2.png,s,1,0.9799965999554843,s,1,0.40389190008863807,0.04987420001998544,0.04939389997161925,0.10003579990006983,0.09946449985727668,0.7505663000047207
RSVPLG03,si,20260226-162543,1.0.2,20260219-152011,779,Experiment,Both,1,Automatic,main,36,20260226-162952,local,local,750,H,H,A,A,A-H.png,A-H.png,hH,hH,mask-3.png,mask-1.png,h,1,0.3360212000552565,h,1,0.26521060010418296,0.04997040005400777,0.050267199985682964,0.09979260014370084,0.09984559984877706,0.7502741001080722
RSVPLG03,si,20260226-162543,1.0.2,20260219-152011,779,Experiment,Both,1,Automatic,main,37,20260226-162957,global,global,750,S,H,A,E,S-A.png,H-E.png,sS,hH,mask-2.png,mask-3.png,s,1,0.5604825001209974,h,1,0.009372400119900703,0.05010610003955662,0.05026230006478727,0.10006980015896261,0.09882100019603968,0.750292900018394
RSVPLG03,si,20260226-162543,1.0.2,20260219-152011,779,Experiment,Both,1,Automatic,main,38,20260226-163002,local,global,750,S,S,E,E,E-S.png,S-E.png,sS,sS,mask-4.png,mask-4.png,s,1,0.9876399000640959,s,1,0.6685260001104325,0.048305599950253963,0.04975299979560077,0.09859540010802448,0.09958709985949099,0.7489216001704335
RSVPLG03,si,20260226-162543,1.0.2,20260219-152011,779,Experiment,Both,1,Automatic,main,39,20260226-163007,local,global,750,H,H,A,E,A-H.png,H-E.png,hH,hH,mask-1.png,mask-2.png,h,1,0.4376215999945998,h,1,0.05726839997805655,0.050105700036510825,0.05072049982845783,0.10052939993329346,0.09954929980449378,0.7508507000748068
RSVPLG03,si,20260226-162543,1.0.2,20260219-152011,779,Experiment,Both,1,Automatic,main,40,20260226-163011,global,global,300,S,S,E,A,S-E.png,S-A.png,sS,sS,mask-2.png,mask-3.png,s,1,0.08144350000657141,h,0,0.14599540014751256,0.04907259996980429,0.05183369992300868,0.09997259988449514,0.09974049986340106,0.29916379996575415
RSVPLG03,si,20260226-162543,1.0.2,20260219-152011,779,Experiment,Both,1,Automatic,main,41,20260226-163017,local,local,750,H,S,A,A,A-H.png,A-S.png,hH,sS,mask-1.png,mask-1.png,h,1,1.2640972000081092,h,0,0.17751820012927055,0.0497552000451833,0.04953930014744401,0.1003294000402093,0.09851999999955297,0.7522342000156641
RSVPLG03,si,20260226-162543,1.0.2,20260219-152011,779,Experiment,Both,1,Automatic,main,42,20260226-163023,global,local,750,S,H,A,A,S-A.png,A-H.png,sS,hH,mask-1.png,mask-4.png,s,1,2.052814800059423,h,1,0.9367623999714851,0.04974169982597232,0.05027710017748177,0.09918230003677309,0.1002570001874119,0.7499755998142064
RSVPLG03,si,20260226-162543,1.0.2,20260219-152011,779,Experiment,Both,1,Automatic,main,43,20260226-163028,local,global,300,H,H,A,A,A-H.png,H-A.png,hH,hH,mask-3.png,mask-3.png,h,1,1.489122400060296,h,1,0.1459987999405712,0.05164689989760518,0.04912039986811578,0.10134419985115528,0.09913939982652664,0.3015087000094354
RSVPLG03,si,20260226-162543,1.0.2,20260219-152011,779,Experiment,Both,1,Automatic,main,44,20260226-163033,global,global,750,S,H,E,A,S-E.png,H-A.png,sS,hH,mask-1.png,mask-1.png,s,1,0.7764234999194741,h,1,0.972285500029102,0.04887980013154447,0.04892880003899336,0.09885750012472272,0.09904620004817843,0.750012299977243
RSVPLG03,si,20260226-162543,1.0.2,20260219-152011,779,Experiment,Both,1,Automatic,main,45,20260226-163038,global,global,300,H,H,E,A,H-E.png,H-A.png,hH,hH,mask-2.png,mask-1.png,h,1,0.9690499999560416,h,1,0.09006100008264184,0.05042760004289448,0.05047810007818043,0.09925469988957047,0.09993300004862249,0.29956749989651144
RSVPLG03,si,20260226-162543,1.0.2,20260219-152011,779,Experiment,Both,1,Automatic,main,46,20260226-163043,global,global,300,S,H,A,A,S-A.png,H-A.png,sS,hH,mask-1.png,mask-1.png,s,1,0.7960524000227451,h,1,0.9967141998931766,0.049730399856343865,0.04977589985355735,0.09966579987667501,0.10089010000228882,0.3003086999524385
RSVPLG03,si,20260226-162543,1.0.2,20260219-152011,779,Experiment,Both,1,Automatic,main,47,20260226-163047,local,global,300,S,S,A,A,A-S.png,S-A.png,sS,sS,mask-2.png,mask-2.png,s,1,0.8686827998608351,h,0,1.2028469000943005,0.04969079978764057,0.05117320013232529,0.09932719985954463,0.10127199999988079,0.29862799984402955
RSVPLG03,si,20260226-162543,1.0.2,20260219-152011,779,Experiment,Both,1,Automatic,main,48,20260226-163052,local,local,750,S,H,A,E,A-S.png,E-H.png,sS,hH,mask-1.png,mask-3.png,h,0,0.9041421001311392,h,1,0.23282689996995032,0.05003809998743236,0.05083679989911616,0.10037830006331205,0.09982119989581406,0.7501497000921518
RSVPLG03,si,20260226-162543,1.0.2,20260219-152011,779,Experiment,Both,1,Automatic,main,49,20260226-163057,global,global,300,H,H,E,A,H-E.png,H-A.png,hH,hH,mask-1.png,mask-4.png,h,1,1.0926477999892086,h,1,0.07282710005529225,0.05060459999367595,0.04954939987510443,0.10063949995674193,0.10038820002228022,0.2998214000836015
RSVPLG03,si,20260226-162543,1.0.2,20260219-152011,779,Experiment,Both,1,Automatic,main,50,20260226-163102,global,local,300,S,S,A,A,S-A.png,A-S.png,sS,sS,mask-4.png,mask-4.png,s,1,1.058879200136289,s,1,1.1336632000748068,0.05079060001298785,0.04896460007876158,0.1002074999269098,0.09825509996153414,0.3017481998540461
RSVPLG03,si,20260226-162543,1.0.2,20260219-152011,779,Experiment,Both,1,Automatic,main,51,20260226-163118,global,local,300,H,S,A,A,H-A.png,A-S.png,hH,sS,mask-3.png,mask-2.png,h,1,0.7004631999880075,h,0,0.07352610002271831,0.050923499977216125,0.050809700042009354,0.10090680001303554,0.10076409997418523,0.30025249999016523
RSVPLG03,si,20260226-162543,1.0.2,20260219-152011,779,Experiment,Both,1,Automatic,main,52,20260226-163122,global,global,750,H,H,A,A,H-A.png,H-A.png,hH,hH,mask-3.png,mask-1.png,h,1,0.550067099975422,h,1,0.11337339994497597,0.05116249993443489,0.05088760005310178,0.10050190007314086,0.10074519994668663,0.7504656000528485
RSVPLG03,si,20260226-162543,1.0.2,20260219-152011,779,Experiment,Both,1,Automatic,main,53,20260226-163127,global,global,300,H,H,A,E,H-A.png,H-E.png,hH,hH,mask-1.png,mask-4.png,h,1,0.3337809999939054,h,1,0.06407959992066026,0.051403800025582314,0.048858199967071414,0.10205340012907982,0.09944300004281104,0.3009451001416892
RSVPLG03,si,20260226-162543,1.0.2,20260219-152011,779,Experiment,Both,1,Automatic,main,54,20260226-163131,local,local,750,S,H,E,E,E-S.png,E-H.png,sS,hH,mask-2.png,mask-3.png,s,1,11.408945000031963,h,1,0.0009781999979168177,0.05003809998743236,0.04793490003794432,0.10106820007786155,0.09787270007655025,0.7522245000582188
RSVPLG03,si,20260226-162543,1.0.2,20260219-152011,779,Experiment,Both,1,Automatic,main,55,20260226-163136,local,local,300,S,S,A,E,A-S.png,E-S.png,sS,sS,mask-1.png,mask-4.png,s,1,0.9913240999449044,h,0,0.16190810012631118,0.05024920008145273,0.049554199911653996,0.09991100011393428,0.0999210998415947,0.29984430014155805
RSVPLG03,si,20260226-162543,1.0.2,20260219-152011,779,Experiment,Both,1,Automatic,main,56,20260226-163140,local,local,750,H,S,A,E,A-H.png,E-S.png,hH,sS,mask-4.png,mask-1.png,h,1,1.0772941000759602,s,1,0.6365405998658389,0.049215400125831366,0.04982469999231398,0.09911940013989806,0.10062249982729554,0.7500973001588136
RSVPLG03,si,20260226-162543,1.0.2,20260219-152011,779,Experiment,Both,1,Automatic,main,57,20260226-163146,global,local,750,H,S,A,A,H-A.png,A-S.png,hH,sS,mask-2.png,mask-4.png,h,1,0.5394842000678182,h,0,0.07370589999482036,0.04918630002066493,0.05061810021288693,0.09948069998063147,0.09903890010900795,0.7493635998107493
RSVPLG03,si,20260226-162543,1.0.2,20260219-152011,779,Experiment,Both,1,Automatic,main,58,20260226-163151,local,global,750,H,S,E,A,E-H.png,S-A.png,hH,sS,mask-4.png,mask-2.png,h,1,1.5141529999673367,s,1,0.16252769995480776,0.05128900008276105,0.05026510008610785,0.10160490009002388,0.10004459996707737,0.7503430000506341
RSVPLG03,si,20260226-162543,1.0.2,20260219-152011,779,Experiment,Both,1,Automatic,main,59,20260226-163157,global,local,750,H,H,A,A,H-A.png,A-H.png,hH,hH,mask-2.png,mask-3.png,h,1,0.5999066999647766,h,1,0.09799099992960691,0.05072030005976558,0.04830939997918904,0.10084760002791882,0.09994670003652573,0.7528518000617623
RSVPLG03,si,20260226-162543,1.0.2,20260219-152011,779,Experiment,Both,1,Automatic,main,60,20260226-163201,local,global,750,H,H,E,E,E-H.png,H-E.png,hH,hH,mask-1.png,mask-2.png,s,0,0.11331519996747375,h,1,0.017678300151601434,0.051452500047162175,0.049895500065758824,0.10138230002485216,0.10081110009923577,0.7508415000047535
RSVPLG03,si,20260226-162543,1.0.2,20260219-152011,779,Experiment,Both,1,Automatic,main,61,20260226-163207,local,global,750,H,H,A,E,A-H.png,H-E.png,hH,hH,mask-4.png,mask-4.png,h,1,1.0917603999841958,h,1,0.07350110006518662,0.048670400166884065,0.049185500014573336,0.09843660006299615,0.0997246999759227,0.7498578000813723
RSVPLG03,si,20260226-162543,1.0.2,20260219-152011,779,Experiment,Both,1,Automatic,main,62,20260226-163212,local,local,300,S,S,E,E,E-S.png,E-S.png,sS,sS,mask-1.png,mask-4.png,s,1,1.245446499902755,h,0,1.0687411001417786,0.05105300014838576,0.04937110003083944,0.09935709997080266,0.10036060004495084,0.30021900008432567
RSVPLG03,si,20260226-162543,1.0.2,20260219-152011,779,Experiment,Both,1,Automatic,main,63,20260226-163217,global,local,750,H,S,E,A,H-E.png,A-S.png,hH,sS,mask-3.png,mask-2.png,s,0,0.9009302000049502,h,0,2.1596785997971892,0.04866460012272,0.049302699975669384,0.09847080009058118,0.10027769999578595,0.750430200016126
RSVPLG03,si,20260226-162543,1.0.2,20260219-152011,779,Experiment,Both,1,Automatic,main,64,20260226-163223,local,local,750,H,S,A,A,A-H.png,A-S.png,hH,sS,mask-4.png,mask-1.png,h,1,0.7857183001469821,s,1,2.008020699955523,0.05050030001439154,0.04896649997681379,0.10000370000489056,0.09824189986102283,0.7518126999493688
RSVPLG03,si,20260226-162543,1.0.2,20260219-152011,779,Experiment,Both,1,Automatic,main,65,20260226-163228,local,local,300,S,S,A,E,A-S.png,E-S.png,sS,sS,mask-2.png,mask-1.png,s,1,0.02572639985010028,h,0,0.9575114999897778,0.04975809995085001,0.0497355000115931,0.10061329999007285,0.09965789993293583,0.30027080001309514
RSVPLG03,si,20260226-162543,1.0.2,20260219-152011,779,Experiment,Both,1,Automatic,main,66,20260226-163232,global,local,750,H,S,A,E,H-A.png,E-S.png,hH,sS,mask-2.png,mask-3.png,s,0,0.805523700080812,h,0,1.1001919999253005,0.04972020001150668,0.048840099945664406,0.10149200004525483,0.09879739978350699,0.7520622001029551
RSVPLG03,si,20260226-162543,1.0.2,20260219-152011,779,Experiment,Both,1,Automatic,main,67,20260226-163238,local,global,300,H,S,A,A,A-H.png,S-A.png,hH,sS,mask-4.png,mask-4.png,h,1,1.224073600023985,s,1,0.9645030999090523,0.050282400101423264,0.049705500015988946,0.100931900087744,0.09958679997362196,0.30149670015089214
RSVPLG03,si,20260226-162543,1.0.2,20260219-152011,779,Experiment,Both,1,Automatic,main,68,20260226-163243,local,local,300,H,S,A,A,A-H.png,A-S.png,hH,sS,mask-4.png,mask-2.png,h,1,0.832884999923408,s,1,0.04830579995177686,0.04972870019264519,0.04985169996507466,0.09956230013631284,0.09967550006695092,0.3000749000348151
RSVPLG03,si,20260226-162543,1.0.2,20260219-152011,779,Experiment,Both,1,Automatic,main,69,20260226-163247,global,local,750,H,S,A,A,H-A.png,A-S.png,hH,sS,mask-2.png,mask-2.png,h,1,1.3917648000642657,h,0,0.07286670012399554,0.05000540008768439,0.05004819994792342,0.10091329994611442,0.09895440004765987,0.751581700053066
RSVPLG03,si,20260226-162543,1.0.2,20260219-152011,779,Experiment,Both,1,Automatic,main,70,20260226-163253,global,local,750,H,S,A,A,H-A.png,A-S.png,hH,sS,mask-4.png,mask-4.png,h,1,0.8165303999558091,s,1,0.9765917998738587,0.05005940003320575,0.050066999858245254,0.10023320000618696,0.09893589979037642,0.7521239002235234
RSVPLG03,si,20260226-162543,1.0.2,20260219-152011,779,Experiment,Both,1,Automatic,main,71,20260226-163258,local,local,750,H,S,A,A,A-H.png,A-S.png,hH,sS,mask-1.png,mask-2.png,h,1,1.363425200106576,h,0,0.08057280001230538,0.04914749995805323,0.0505065000616014,0.10018629999831319,0.10158060002140701,0.7502295000012964
RSVPLG03,si,20260226-162543,1.0.2,20260219-152011,779,Experiment,Both,1,Automatic,main,72,20260226-163303,local,local,750,S,H,A,A,A-S.png,A-H.png,sS,hH,mask-4.png,mask-2.png,h,0,1.0378662999719381,h,1,0.08226000005379319,0.049975299974903464,0.049164799973368645,0.09995699999853969,0.1014102001208812,0.750820699846372
RSVPLG03,si,20260226-162543,1.0.2,20260219-152011,779,Experiment,Both,1,Automatic,main,73,20260226-163308,global,global,300,H,H,E,A,H-E.png,H-A.png,hH,hH,mask-2.png,mask-2.png,h,1,0.6859943000599742,h,1,0.07391509995795786,0.05011700000613928,0.049941200064495206,0.0997206000611186,0.1000749000813812,0.3009007000364363
RSVPLG03,si,20260226-162543,1.0.2,20260219-152011,779,Experiment,Both,1,Automatic,main,74,20260226-163313,local,local,300,S,H,E,E,E-S.png,E-H.png,sS,hH,mask-3.png,mask-4.png,s,1,0.3468623000662774,s,0,0.07841149996966124,0.049860499799251556,0.04992460017092526,0.09993949998170137,0.10017070011235774,0.3006471998523921
RSVPLG03,si,20260226-162543,1.0.2,20260219-152011,779,Experiment,Both,1,Automatic,main,75,20260226-163317,local,global,300,S,H,E,A,E-S.png,H-A.png,sS,hH,mask-1.png,mask-4.png,s,1,0.2140447001438588,h,1,0.35798260010778904,0.04956150008365512,0.05021360004320741,0.10113040008582175,0.10049059987068176,0.3006080000195652
RSVPLG03,si,20260226-162543,1.0.2,20260219-152011,779,Experiment,Both,1,Automatic,main,76,20260226-163324,global,local,300,H,S,A,E,H-A.png,E-S.png,hH,sS,mask-1.png,mask-4.png,h,1,1.0357708998490125,s,1,0.0014462999533861876,0.049292200012132525,0.04974350007250905,0.10053299996070564,0.09990360005758703,0.29966669995337725
RSVPLG03,si,20260226-162543,1.0.2,20260219-152011,779,Experiment,Both,1,Automatic,main,77,20260226-163329,local,local,300,H,S,E,E,E-H.png,E-S.png,hH,sS,mask-4.png,mask-4.png,h,1,0.6400246999692172,s,1,0.8000060999765992,0.05000280006788671,0.05197890009731054,0.10139199998229742,0.1001414000056684,0.2987674998585135
RSVPLG03,si,20260226-162543,1.0.2,20260219-152011,779,Experiment,Both,1,Automatic,main,78,20260226-163333,local,global,750,H,S,E,A,E-H.png,S-A.png,hH,sS,mask-2.png,mask-1.png,h,1,0.9535081000067294,s,1,1.0733868998941034,0.05021920008584857,0.050208899891003966,0.10090199997648597,0.10064559988677502,0.74994540004991
RSVPLG03,si,20260226-162543,1.0.2,20260219-152011,779,Experiment,Both,1,Automatic,main,79,20260226-163338,global,global,750,S,H,E,A,S-E.png,H-A.png,sS,hH,mask-3.png,mask-1.png,s,1,1.4555973999667913,h,1,0.18367489986121655,0.0519510000012815,0.05473179998807609,0.10097629996016622,0.10173110011965036,0.7502292999997735
RSVPLG03,si,20260226-162543,1.0.2,20260219-152011,779,Experiment,Both,1,Automatic,main,80,20260226-163344,global,local,300,H,H,A,A,H-A.png,A-H.png,hH,hH,mask-2.png,mask-3.png,h,1,0.999218099983409,s,0,0.08240249985828996,0.048319000052288175,0.050095299957320094,0.0991565000731498,0.09940090007148683,0.2990317000076175
RSVPLG03,si,20260226-162543,1.0.2,20260219-152011,779,Experiment,Both,1,Automatic,main,81,20260226-163349,local,global,300,S,S,A,E,A-S.png,S-E.png,sS,sS,mask-3.png,mask-1.png,s,1,1.8726130998693407,h,0,0.7377453001681715,0.05015929997898638,0.05231110006570816,0.10114030004478991,0.10090279998257756,0.29997849999926984
RSVPLG03,si,20260226-162543,1.0.2,20260219-152011,779,Experiment,Both,1,Automatic,main,82,20260226-163355,global,local,300,S,S,E,A,S-E.png,A-S.png,sS,sS,mask-4.png,mask-3.png,s,1,1.5143327999394387,h,0,0.6895165001042187,0.04963880009017885,0.04856229992583394,0.10039609996601939,0.09970039990730584,0.3013188000768423
RSVPLG03,si,20260226-162543,1.0.2,20260219-152011,779,Experiment,Both,1,Automatic,main,83,20260226-163401,global,global,300,S,H,A,E,S-A.png,H-E.png,sS,hH,mask-2.png,mask-3.png,s,1,0.6839107000268996,h,1,1.440821300027892,0.049903699895367026,0.050760000012815,0.1007679000031203,0.09982819994911551,0.30022879992611706
RSVPLG03,si,20260226-162543,1.0.2,20260219-152011,779,Experiment,Both,1,Automatic,main,84,20260226-163407,global,local,300,H,S,A,E,H-A.png,E-S.png,hH,sS,mask-2.png,mask-4.png,h,1,3.2561815998051316,s,1,0.07259760005399585,0.0496739000082016,0.04968040017411113,0.10047690011560917,0.10049209999851882,0.3009532999712974
RSVPLG03,si,20260226-162543,1.0.2,20260219-152011,779,Experiment,Both,1,Automatic,main,85,20260226-163414,local,local,300,H,H,E,A,E-H.png,A-H.png,hH,hH,mask-4.png,mask-3.png,h,1,1.8937132998835295,h,1,0.24062340008094907,0.0490705999545753,0.0500983998645097,0.09959940006956458,0.09903889987617731,0.30039290012791753
RSVPLG03,si,20260226-162543,1.0.2,20260219-152011,779,Experiment,Both,1,Automatic,main,86,20260226-163420,global,global,750,S,H,E,A,S-E.png,H-A.png,sS,hH,mask-3.png,mask-1.png,s,1,0.6605744000989944,h,1,0.836680999957025,0.04840359999798238,0.04992160014808178,0.09825340006500483,0.10014900006353855,0.74985869997181
RSVPLG03,si,20260226-162543,1.0.2,20260219-152011,779,Experiment,Both,1,Automatic,main,87,20260226-163425,local,global,750,S,H,A,A,A-S.png,H-A.png,sS,hH,mask-2.png,mask-1.png,s,1,1.3758733000140637,s,0,0.11334769986569881,0.04994020005688071,0.04839510004967451,0.09975009993650019,0.100309900008142,0.7511744999792427
RSVPLG03,si,20260226-162543,1.0.2,20260219-152011,779,Experiment,Both,1,Automatic,main,88,20260226-163430,local,global,750,S,H,E,A,E-S.png,H-A.png,sS,hH,mask-4.png,mask-2.png,s,1,0.41451249993406236,h,1,0.5668512999545783,0.04944279999472201,0.04998310003429651,0.10045700008049607,0.09986949991434813,0.7501777000725269
RSVPLG03,si,20260226-162543,1.0.2,20260219-152011,779,Experiment,Both,1,Automatic,main,89,20260226-163435,global,local,750,S,H,A,E,S-A.png,E-H.png,sS,hH,mask-2.png,mask-3.png,s,1,0.6839449000544846,h,1,0.8838357001077384,0.05107659986242652,0.04915589978918433,0.10064009996131063,0.1000068997964263,0.7510871000122279
RSVPLG03,si,20260226-162543,1.0.2,20260219-152011,779,Experiment,Both,1,Automatic,main,90,20260226-163440,global,local,300,H,S,A,E,H-A.png,E-S.png,hH,sS,mask-1.png,mask-4.png,h,1,0.2936197000090033,s,1,0.42953129997476935,0.050250399857759476,0.04936549998819828,0.10151229985058308,0.09986970014870167,0.3006225998979062
RSVPLG03,si,20260226-162543,1.0.2,20260219-152011,779,Experiment,Both,1,Automatic,main,91,20260226-163444,local,local,300,S,S,E,E,E-S.png,E-S.png,sS,sS,mask-1.png,mask-3.png,s,1,1.1876099000219256,h,0,1.3313650998752564,0.04999450012110174,0.05129839992150664,0.09962280001491308,0.10115669993683696,0.29965280019678175
RSVPLG03,si,20260226-162543,1.0.2,20260219-152011,779,Experiment,Both,1,Automatic,main,92,20260226-163448,local,global,300,S,H,E,A,E-S.png,H-A.png,sS,hH,mask-1.png,mask-2.png,h,0,0.38121140003204346,h,1,0.31112510012462735,0.04884270019829273,0.05038970010355115,0.09931190009228885,0.10043919994495809,0.29951460007578135
RSVPLG03,si,20260226-162543,1.0.2,20260219-152011,779,Experiment,Both,1,Automatic,main,93,20260226-163453,global,global,750,H,H,E,E,H-E.png,H-E.png,hH,hH,mask-2.png,mask-3.png,s,0,0.9133458000142127,h,1,0.04903220012784004,0.050723500084131956,0.049569700146093965,0.09964150004088879,0.0996012999676168,0.7508948999457061
RSVPLG03,si,20260226-162543,1.0.2,20260219-152011,779,Experiment,Both,1,Automatic,main,94,20260226-163458,global,global,750,H,S,E,A,H-E.png,S-A.png,hH,sS,mask-4.png,mask-2.png,h,1,0.6237904999870807,s,1,0.08978569996543229,0.049109399784356356,0.04976340010762215,0.09931199997663498,0.09893730003386736,0.7507892998401076
RSVPLG03,si,20260226-162543,1.0.2,20260219-152011,779,Experiment,Both,1,Automatic,main,95,20260226-163503,local,global,300,S,H,A,E,A-S.png,H-E.png,sS,hH,mask-1.png,mask-4.png,s,1,1.4154999998863786,h,1,0.07320840004831553,0.050633100094273686,0.051784300012513995,0.0990095001179725,0.10057240002788603,0.2986979999113828
RSVPLG03,si,20260226-162543,1.0.2,20260219-152011,779,Experiment,Both,1,Automatic,main,96,20260226-163508,global,global,300,S,S,A,A,S-A.png,S-A.png,sS,sS,mask-4.png,mask-3.png,s,1,1.1360134000424296,h,0,0.28164890012703836,0.049704200122505426,0.04983570007607341,0.10100889997556806,0.09976259991526604,0.3002528001088649
RSVPLG03,si,20260226-162543,1.0.2,20260219-152011,779,Experiment,Both,1,Automatic,main,97,20260226-163513,local,global,750,H,S,E,E,E-H.png,S-E.png,hH,sS,mask-3.png,mask-3.png,h,1,0.7000723998062313,h,0,0.09687780006788671,0.05027769994921982,0.05171479983255267,0.10121680004522204,0.10018219985067844,0.7499152000527829
RSVPLG03,si,20260226-162543,1.0.2,20260219-152011,779,Experiment,Both,1,Automatic,main,98,20260226-163518,global,local,300,S,H,A,A,S-A.png,A-H.png,sS,hH,mask-2.png,mask-1.png,s,1,0.9015556999947876,s,0,0.11350729991681874,0.05036110011860728,0.04897430003620684,0.09921390004456043,0.09922059997916222,0.30033420003019273
RSVPLG03,si,20260226-162543,1.0.2,20260219-152011,779,Experiment,Both,1,Automatic,main,99,20260226-163523,global,global,750,H,H,A,A,H-A.png,H-A.png,hH,hH,mask-4.png,mask-3.png,h,1,1.2444879000540823,s,0,0.0652710001450032,0.04961520014330745,0.051397399976849556,0.09964910009875894,0.10154499998316169,0.7494412001688033
RSVPLG03,si,20260226-162543,1.0.2,20260219-152011,779,Experiment,Both,1,Automatic,main,100,20260226-163528,global,global,300,H,S,A,A,H-A.png,S-A.png,hH,sS,mask-1.png,mask-3.png,h,1,0.6967609999701381,s,1,0.04221189999952912,0.0497596999630332,0.049752699909731746,0.09955619997344911,0.09937680000439286,0.3002993001136929
RSVPLG03,si,20260226-163629,1.0.2,20260219-152011,779,Experiment,Both,1,Automatic,warmup,1,20260226-163652,global,global,750,H,H,E,E,H-E.png,H-E.png,hH,hH,mask-3.png,mask-4.png,h,1,0.6407333000097424,s,0,0.7447198999579996,0.04791620001196861,0.0515306000597775,0.09683110006153584,0.10026329988613725,0.7471322000492364
RSVPLG03,si,20260226-163629,1.0.2,20260219-152011,779,Experiment,Both,1,Automatic,warmup,2,20260226-163657,local,local,300,S,S,A,E,A-S.png,E-S.png,sS,sS,mask-1.png,mask-4.png,s,1,0.3305319999344647,s,1,0.06522729992866516,0.04985029995441437,0.04885150003246963,0.09996909997425973,0.09946459997445345,0.2995712999254465
RSVPLG03,si,20260226-163629,1.0.2,20260219-152011,779,Experiment,Both,1,Automatic,warmup,3,20260226-163701,global,local,750,H,H,E,A,H-E.png,A-H.png,hH,hH,mask-4.png,mask-1.png,h,1,0.707480899989605,h,1,0.05726109980605543,0.05000879988074303,0.0487164999358356,0.09927510004490614,0.10060159978456795,0.7496436000801623
RSVPLG03,si,20260226-163629,1.0.2,20260219-152011,779,Experiment,Both,1,Automatic,warmup,4,20260226-163706,local,local,750,S,S,A,E,A-S.png,E-S.png,sS,sS,mask-4.png,mask-3.png,s,1,1.1570555998478085,h,0,0.15286099980585277,0.05025349999777973,0.0501757999882102,0.10075360001064837,0.1003174998331815,0.7512594000436366
RSVPLG03,si,20260226-163629,1.0.2,20260219-152011,779,Experiment,Both,1,Automatic,main,5,20260226-163711,global,global,300,S,H,E,A,S-E.png,H-A.png,sS,hH,mask-1.png,mask-4.png,h,0,1.4194448001217097,s,0,0.09807199984788895,0.04840869992040098,0.049757499946281314,0.10019799997098744,0.10052430001087487,0.2979645000305027
RSVPLG03,si,20260226-163629,1.0.2,20260219-152011,779,Experiment,Both,1,Automatic,main,6,20260226-163717,global,local,750,S,S,A,A,S-A.png,A-S.png,sS,sS,mask-3.png,mask-2.png,s,1,1.349346000002697,h,0,0.20213630003854632,0.048614999977871776,0.04786900011822581,0.10042759985662997,0.09811230003833771,0.7513793997932225
RSVPLG03,si,20260226-163629,1.0.2,20260219-152011,779,Experiment,Both,1,Automatic,main,7,20260226-163722,global,local,300,H,H,A,E,H-A.png,E-H.png,hH,hH,mask-3.png,mask-1.png,h,1,3.7700986000709236,s,0,0.1227184000890702,0.04982329998165369,0.04943050001747906,0.09882039995864034,0.10027919989079237,0.2990697999484837
RSVPLG03,si,20260226-163629,1.0.2,20260219-152011,779,Experiment,Both,1,Automatic,main,8,20260226-163730,global,local,300,H,H,A,E,H-A.png,E-H.png,hH,hH,mask-1.png,mask-2.png,h,1,1.1032798001542687,h,1,0.05751399998553097,0.04820030019618571,0.04822869994677603,0.09792950004339218,0.09885809989646077,0.2996629001572728
RSVPLG03,si,20260226-163629,1.0.2,20260219-152011,779,Experiment,Both,1,Automatic,main,9,20260226-163735,global,local,750,H,S,E,E,H-E.png,E-S.png,hH,sS,mask-3.png,mask-4.png,h,1,0.8684168001636863,s,1,0.44753480004146695,0.05049629998393357,0.05085749994032085,0.09986539999954402,0.10179360001347959,0.7485501000192016
RSVPLG03,si,20260226-163629,1.0.2,20260219-152011,779,Experiment,Both,1,Automatic,main,10,20260226-163740,local,local,750,S,S,A,E,A-S.png,E-S.png,sS,sS,mask-3.png,mask-4.png,s,1,0.5552988001145422,s,1,0.11325359996408224,0.04992390004917979,0.04987769993022084,0.10039420006796718,0.09967289981432259,0.750363300088793
RSVPLG03,si,20260226-163629,1.0.2,20260219-152011,779,Experiment,Both,1,Automatic,main,11,20260226-163745,global,global,300,H,H,A,A,H-A.png,H-A.png,hH,hH,mask-2.png,mask-3.png,h,1,0.5441310000605881,h,1,0.057525199837982655,0.05066980002447963,0.050092700170353055,0.10070049995556474,0.09971010009758174,0.30070609995163977
RSVPLG03,si,20260226-163629,1.0.2,20260219-152011,779,Experiment,Both,1,Automatic,main,12,20260226-163749,global,global,300,S,S,A,E,S-A.png,S-E.png,sS,sS,mask-3.png,mask-2.png,s,1,1.5449669999070466,h,0,0.03218149999156594,0.04971499997191131,0.0491374998819083,0.09944440005347133,0.09869059990160167,0.30001750006340444
RSVPLG03,si,20260226-163629,1.0.2,20260219-152011,779,Experiment,Both,1,Automatic,main,13,20260226-163754,global,global,750,H,S,A,E,H-A.png,S-E.png,hH,sS,mask-4.png,mask-4.png,s,0,1.6487700000870973,s,1,0.14562670001760125,0.04962679999880493,0.049855099990963936,0.09989969991147518,0.09984469995833933,0.750137799885124
RSVPLG03,si,20260226-163629,1.0.2,20260219-152011,779,Experiment,Both,1,Automatic,main,14,20260226-163800,global,global,300,H,H,E,E,H-E.png,H-E.png,hH,hH,mask-2.png,mask-4.png,h,1,0.5432003999594599,h,1,0.7295287000015378,0.048785399878397584,0.05071099987253547,0.09869659994728863,0.09955369983799756,0.29924530000425875
RSVPLG03,si,20260226-163629,1.0.2,20260219-152011,779,Experiment,Both,1,Automatic,main,15,20260226-163805,local,global,300,S,S,A,E,A-S.png,S-E.png,sS,sS,mask-2.png,mask-3.png,s,1,1.4198106001131237,h,0,0.06531090009957552,0.04620640003122389,0.05170330009423196,0.0960456000175327,0.10123150004073977,0.29486369993537664
RSVPLG03,si,20260226-163629,1.0.2,20260219-152011,779,Experiment,Both,1,Automatic,main,16,20260226-163811,global,local,300,H,S,A,E,H-A.png,E-S.png,hH,sS,mask-3.png,mask-3.png,h,1,1.4390680000651628,s,1,0.06553530017845333,0.04941780003719032,0.050184400053694844,0.09944770019501448,0.10005920007824898,0.2972252999898046
RSVPLG03,si,20260226-163629,1.0.2,20260219-152011,779,Experiment,Both,1,Automatic,main,17,20260226-163816,global,global,750,S,H,A,A,S-A.png,H-A.png,sS,hH,mask-4.png,mask-3.png,s,1,1.0708558999467641,s,0,0.11417909990996122,0.04927389998920262,0.049463799921795726,0.09859360009431839,0.09969870001077652,0.7491192000452429
RSVPLG03,si,20260226-163629,1.0.2,20260219-152011,779,Experiment,Both,1,Automatic,main,18,20260226-163821,global,global,300,H,H,E,A,H-E.png,H-A.png,hH,hH,mask-1.png,mask-3.png,h,1,1.1402247999794781,h,1,0.0594368998426944,0.050680699991062284,0.04975380003452301,0.10067569999955595,0.09973010001704097,0.30037409998476505
RSVPLG03,si,20260226-163629,1.0.2,20260219-152011,779,Experiment,Both,1,Automatic,main,19,20260226-163826,global,global,300,H,H,E,E,H-E.png,H-E.png,hH,hH,mask-1.png,mask-2.png,h,1,0.231778500135988,h,1,0.05846540001221001,0.05066519998945296,0.050335099920630455,0.10032009985297918,0.10017249989323318,0.3000757999252528
RSVPLG03,si,20260226-163629,1.0.2,20260219-152011,779,Experiment,Both,1,Automatic,main,20,20260226-163830,global,global,750,S,H,A,A,S-A.png,H-A.png,sS,hH,mask-2.png,mask-1.png,s,1,0.2878068999852985,s,0,0.2667314999271184,0.05173330008983612,0.048236200120300055,0.10210220003500581,0.09816720010712743,0.7516658999957144
RSVPLG03,si,20260226-163629,1.0.2,20260219-152011,779,Experiment,Both,1,Automatic,main,21,20260226-163835,local,local,750,S,S,A,A,A-S.png,A-S.png,sS,sS,mask-4.png,mask-4.png,s,1,0.22534319991245866,s,1,0.10415909998118877,0.050520499935373664,0.049011999974027276,0.09890059987083077,0.09994119987823069,0.7490056999959052
RSVPLG03,si,20260226-163629,1.0.2,20260219-152011,779,Experiment,Both,1,Automatic,main,22,20260226-163839,global,global,750,S,H,A,A,S-A.png,H-A.png,sS,hH,mask-1.png,mask-4.png,h,0,1.1484199999831617,h,1,0.8096018999349326,0.05067500006407499,0.050056900130584836,0.1003719000145793,0.10161310015246272,0.7505375999026
RSVPLG03,si,20260226-163629,1.0.2,20260219-152011,779,Experiment,Both,1,Automatic,main,23,20260226-163845,local,global,300,H,S,E,A,E-H.png,S-A.png,hH,sS,mask-4.png,mask-3.png,h,1,1.9197573999408633,s,1,0.177137800026685,0.05065299989655614,0.0506154999602586,0.09906829986721277,0.10057489993050694,0.2996928000357002
RSVPLG03,si,20260226-163629,1.0.2,20260219-152011,779,Experiment,Both,1,Automatic,main,24,20260226-163851,local,local,750,H,H,A,A,A-H.png,A-H.png,hH,hH,mask-4.png,mask-4.png,h,1,1.0203861999325454,h,1,0.18631989997811615,0.04924540012143552,0.047961599892005324,0.09942670003511012,0.09730269992724061,0.7506095001008362
RSVPLG03,si,20260226-163629,1.0.2,20260219-152011,779,Experiment,Both,1,Automatic,main,25,20260226-163856,local,global,750,H,S,E,A,E-H.png,S-A.png,hH,sS,mask-4.png,mask-4.png,h,1,0.4408430999610573,s,1,0.3931736999657005,0.04991140007041395,0.0496928000357002,0.09917200007475913,0.1005573000293225,0.7486046000849456
RSVPLG03,si,20260226-163629,1.0.2,20260219-152011,779,Experiment,Both,1,Automatic,main,26,20260226-163905,local,local,750,S,H,E,A,E-S.png,A-H.png,sS,hH,mask-1.png,mask-4.png,s,1,1.2676586001180112,h,1,0.10426319995895028,0.05130410008132458,0.049689400009810925,0.09968820004723966,0.09937570011243224,0.7501163999550045
RSVPLG03,si,20260226-163629,1.0.2,20260219-152011,779,Experiment,Both,1,Automatic,main,27,20260226-163910,local,local,750,S,S,A,A,A-S.png,A-S.png,sS,sS,mask-3.png,mask-1.png,s,1,1.6366840000264347,s,1,0.161466000135988,0.051387400133535266,0.049879500176757574,0.10047539998777211,0.10193230002187192,0.749587900005281
RSVPLG03,si,20260226-163629,1.0.2,20260219-152011,779,Experiment,Both,1,Automatic,main,28,20260226-163916,local,global,750,H,H,A,A,A-H.png,H-A.png,hH,hH,mask-3.png,mask-3.png,h,1,1.0696030999533832,h,1,0.19417819986119866,0.050443800166249275,0.05107440007850528,0.09884800016880035,0.10059010004624724,0.7487629000097513
RSVPLG03,si,20260226-163629,1.0.2,20260219-152011,779,Experiment,Both,1,Automatic,main,29,20260226-163922,local,local,300,H,H,A,A,A-H.png,A-H.png,hH,hH,mask-4.png,mask-3.png,h,1,0.7709726998582482,s,0,0.0659211000893265,0.05016669980250299,0.050041900016367435,0.09988250001333654,0.09961689985357225,0.2997783999890089
RSVPLG03,si,20260226-163629,1.0.2,20260219-152011,779,Experiment,Both,1,Automatic,main,30,20260226-163926,global,local,750,H,S,A,E,H-A.png,E-S.png,hH,sS,mask-2.png,mask-4.png,h,1,0.834838500013575,s,1,0.1377378001343459,0.04985719989053905,0.05222159996628761,0.10043259989470243,0.10096980002708733,0.7496058000251651
RSVPLG03,si,20260226-163629,1.0.2,20260219-152011,779,Experiment,Both,1,Automatic,main,31,20260226-163931,global,local,750,S,S,A,E,S-A.png,E-S.png,sS,sS,mask-3.png,mask-2.png,h,0,0.4311600998044014,h,0,0.1043896998744458,0.049243299989029765,0.050033000065013766,0.09797200001776218,0.09966860013082623,0.7481006998568773
RSVPLG03,si,20260226-163629,1.0.2,20260219-152011,779,Experiment,Both,1,Automatic,main,32,20260226-163936,local,global,300,H,S,A,E,A-H.png,S-E.png,hH,sS,mask-3.png,mask-3.png,h,1,1.0126105998642743,h,0,0.12057560007087886,0.050391600001603365,0.051316099939867854,0.09861570014618337,0.10135849984362721,0.29787740018218756
RSVPLG03,si,20260226-163629,1.0.2,20260219-152011,779,Experiment,Both,1,Automatic,main,33,20260226-163941,local,global,300,H,H,E,A,E-H.png,H-A.png,hH,hH,mask-2.png,mask-4.png,h,1,1.1209299000911415,s,0,1.2416091999039054,0.04977339995093644,0.04911640007048845,0.09982510004192591,0.09926310018636286,0.3004953998606652
RSVPLG03,si,20260226-163629,1.0.2,20260219-152011,779,Experiment,Both,1,Automatic,main,34,20260226-163946,local,local,300,H,S,E,A,E-H.png,A-S.png,hH,sS,mask-4.png,mask-1.png,h,1,1.084994199918583,s,1,0.041331399930641055,0.04972659982740879,0.04886749992147088,0.09978219983167946,0.1001302998047322,0.2998174000531435
RSVPLG03,si,20260226-163629,1.0.2,20260219-152011,779,Experiment,Both,1,Automatic,main,35,20260226-163951,local,local,750,H,H,A,A,A-H.png,A-H.png,hH,hH,mask-2.png,mask-2.png,h,1,1.530870599905029,h,1,0.2174531000200659,0.05103090009652078,0.047597500029951334,0.09968340001069009,0.09785789996385574,0.7516616000793874
RSVPLG03,si,20260226-163629,1.0.2,20260219-152011,779,Experiment,Both,1,Automatic,main,36,20260226-163956,global,local,750,S,S,A,A,S-A.png,A-S.png,sS,sS,mask-4.png,mask-3.png,s,1,0.9335417000111192,h,0,0.19360939995385706,0.049854000099003315,0.05014780000783503,0.10064050019718707,0.09986929991282523,0.7489540001843125
RSVPLG03,si,20260226-163629,1.0.2,20260219-152011,779,Experiment,Both,1,Automatic,main,37,20260226-164002,local,global,300,H,S,A,A,A-H.png,S-A.png,hH,sS,mask-2.png,mask-4.png,s,0,1.9157153000123799,h,0,0.07332510012201965,0.0491990998852998,0.05000669998116791,0.09942659991793334,0.09985310002230108,0.3001949000172317
RSVPLG03,si,20260226-163629,1.0.2,20260219-152011,779,Experiment,Both,1,Automatic,main,38,20260226-164007,global,local,300,H,H,E,E,H-E.png,E-H.png,hH,hH,mask-3.png,mask-3.png,h,1,1.301800300134346,s,0,0.2424973000306636,0.05043970001861453,0.0507750001270324,0.1004812999162823,0.10014890017919242,0.2999430999625474
RSVPLG03,si,20260226-163629,1.0.2,20260219-152011,779,Experiment,Both,1,Automatic,main,39,20260226-164013,local,global,750,S,H,A,A,A-S.png,H-A.png,sS,hH,mask-4.png,mask-2.png,s,1,1.02615230018273,h,1,0.2894001000095159,0.050164900021627545,0.04961730004288256,0.09947130014188588,0.10105290007777512,0.7485859000589699
RSVPLG03,si,20260226-163629,1.0.2,20260219-152011,779,Experiment,Both,1,Automatic,main,40,20260226-164018,local,local,750,H,S,E,A,E-H.png,A-S.png,hH,sS,mask-2.png,mask-2.png,h,1,1.297715999884531,s,1,0.04067539982497692,0.04975960007868707,0.05012160004116595,0.09869390004314482,0.10004519997164607,0.7488850001245737
RSVPLG03,si,20260226-163629,1.0.2,20260219-152011,779,Experiment,Both,1,Automatic,main,41,20260226-164024,global,global,750,S,S,E,E,S-E.png,S-E.png,sS,sS,mask-4.png,mask-2.png,s,1,0.45803890004754066,s,1,0.20107149984687567,0.049407599959522486,0.04843290010467172,0.09952099993824959,0.09970930009149015,0.749783799983561
RSVPLG03,si,20260226-163629,1.0.2,20260219-152011,779,Experiment,Both,1,Automatic,main,42,20260226-164029,local,global,300,S,H,E,E,E-S.png,H-E.png,sS,hH,mask-4.png,mask-3.png,s,1,0.992793699959293,h,1,0.05012669996358454,0.050060000037774444,0.048428500071167946,0.09943090006709099,0.09825480007566512,0.3002659999765456
RSVPLG03,si,20260226-163629,1.0.2,20260219-152011,779,Experiment,Both,1,Automatic,main,43,20260226-164033,global,local,750,H,H,A,A,H-A.png,A-H.png,hH,hH,mask-2.png,mask-4.png,h,1,0.41887699998915195,h,1,0.16904109995812178,0.04918179986998439,0.049520800122991204,0.09860769985243678,0.09909579996019602,0.7495279998984188
RSVPLG03,si,20260226-163629,1.0.2,20260219-152011,779,Experiment,Both,1,Automatic,main,44,20260226-164038,global,local,300,S,S,A,A,S-A.png,A-S.png,sS,sS,mask-3.png,mask-1.png,s,1,0.39859120012260973,h,0,0.7450639000162482,0.04973139986395836,0.048493900103494525,0.0992463999427855,0.09800710016861558,0.300849299877882
RSVPLG03,si,20260226-163629,1.0.2,20260219-152011,779,Experiment,Both,1,Automatic,main,45,20260226-164043,global,global,750,S,S,E,E,S-E.png,S-E.png,sS,sS,mask-1.png,mask-1.png,s,1,0.25847789994440973,s,1,0.13736289995722473,0.051047899993136525,0.04925500019453466,0.09957469999790192,0.09904310014098883,0.7504269999917597
RSVPLG03,si,20260226-163629,1.0.2,20260219-152011,779,Experiment,Both,1,Automatic,main,46,20260226-164047,local,global,750,H,H,A,A,A-H.png,H-A.png,hH,hH,mask-2.png,mask-2.png,h,1,0.9896271000616252,h,1,0.43355590011924505,0.04951469996012747,0.05114610004238784,0.09974489989690483,0.10032319999299943,0.749139399966225
RSVPLG03,si,20260226-163629,1.0.2,20260219-152011,779,Experiment,Both,1,Automatic,main,47,20260226-164053,global,global,750,H,H,E,E,H-E.png,H-E.png,hH,hH,mask-1.png,mask-3.png,h,1,0.33373080007731915,h,1,0.11250220006331801,0.04991810000501573,0.04966729995794594,0.0992421000264585,0.09927110001444817,0.7506659000646323
RSVPLG03,si,20260226-163629,1.0.2,20260219-152011,779,Experiment,Both,1,Automatic,main,48,20260226-164057,local,local,300,S,S,E,A,E-S.png,A-S.png,sS,sS,mask-3.png,mask-3.png,h,0,1.4504126999527216,h,0,0.11421589995734394,0.0509705999866128,0.05095669999718666,0.10138739994727075,0.10102450009435415,0.30018669995479286
RSVPLG03,si,20260226-163629,1.0.2,20260219-152011,779,Experiment,Both,1,Automatic,main,49,20260226-164103,global,local,300,H,S,A,E,H-A.png,E-S.png,hH,sS,mask-4.png,mask-1.png,h,1,1.527078199898824,s,1,0.04146740003488958,0.05055229994468391,0.04961919994093478,0.10071110003627837,0.10171850002370775,0.29973399988375604
RSVPLG03,si,20260226-163629,1.0.2,20260219-152011,779,Experiment,Both,1,Automatic,main,50,20260226-164108,local,global,750,S,H,A,E,A-S.png,H-E.png,sS,hH,mask-2.png,mask-4.png,s,1,2.360979299992323,h,1,0.08126439992338419,0.04878810001537204,0.04984860005788505,0.10039200005121529,0.1005969000980258,0.7494195001199841
RSVPLG03,si,20260226-163629,1.0.2,20260219-152011,779,Experiment,Both,1,Automatic,main,51,20260226-164122,local,local,300,H,S,E,E,E-H.png,E-S.png,hH,sS,mask-4.png,mask-2.png,h,1,0.988253700081259,h,0,0.07764409994706511,0.04843399999663234,0.05005419999361038,0.0999735000077635,0.09947740007191896,0.2979413000866771
RSVPLG03,si,20260226-163629,1.0.2,20260219-152011,779,Experiment,Both,1,Automatic,main,52,20260226-164127,global,local,750,S,H,E,E,S-E.png,E-H.png,sS,hH,mask-2.png,mask-3.png,s,1,0.44131419993937016,s,0,0.1596727001015097,0.04971570009365678,0.04948999988846481,0.09957840014249086,0.10012899991124868,0.7495502000674605
RSVPLG03,si,20260226-163629,1.0.2,20260219-152011,779,Experiment,Both,1,Automatic,main,53,20260226-164132,global,global,300,H,H,A,E,H-A.png,H-E.png,hH,hH,mask-1.png,mask-3.png,h,1,0.631491299951449,h,1,0.12867740006186068,0.04967179987579584,0.0497598999645561,0.0998064000159502,0.09965229989029467,0.2996986999642104
RSVPLG03,si,20260226-163629,1.0.2,20260219-152011,779,Experiment,Both,1,Automatic,main,54,20260226-164136,local,local,300,H,H,E,A,E-H.png,A-H.png,hH,hH,mask-3.png,mask-3.png,h,1,0.6393653000704944,h,1,0.1742328000254929,0.047727499855682254,0.0495682000182569,0.09808749984949827,0.09906910010613501,0.2986374997999519
RSVPLG03,si,20260226-163629,1.0.2,20260219-152011,779,Experiment,Both,1,Automatic,main,55,20260226-164141,local,global,750,H,S,E,E,E-H.png,S-E.png,hH,sS,mask-1.png,mask-2.png,h,1,0.21648119995370507,h,0,0.08033290016464889,0.049751700134947896,0.04784849984571338,0.09916300000622869,0.09863969986326993,0.7512166001833975
RSVPLG03,si,20260226-163629,1.0.2,20260219-152011,779,Experiment,Both,1,Automatic,main,56,20260226-164145,global,local,300,S,S,A,A,S-A.png,A-S.png,sS,sS,mask-3.png,mask-2.png,h,0,2.6867443001829088,s,1,0.12121320003643632,0.04976239986717701,0.04974980000406504,0.10061830002814531,0.10003099986352026,0.30042059998959303
RSVPLG03,si,20260226-163629,1.0.2,20260219-152011,779,Experiment,Both,1,Automatic,main,57,20260226-164152,local,local,750,S,H,E,E,E-S.png,E-H.png,sS,hH,mask-4.png,mask-1.png,s,1,0.8239121998194605,h,1,0.057652899995446205,0.049791600089520216,0.048736299853771925,0.10117159993387759,0.10032789991237223,0.7511154001113027
RSVPLG03,si,20260226-163629,1.0.2,20260219-152011,779,Experiment,Both,1,Automatic,main,58,20260226-164157,local,global,750,H,H,A,E,A-H.png,H-E.png,hH,hH,mask-4.png,mask-4.png,s,0,1.0220560999587178,h,1,1.1982621001079679,0.050591700011864305,0.04985020007006824,0.1001657999586314,0.10016250004991889,0.7499770999420434
RSVPLG03,si,20260226-163629,1.0.2,20260219-152011,779,Experiment,Both,1,Automatic,main,59,20260226-164202,local,local,300,H,H,A,E,A-H.png,E-H.png,hH,hH,mask-3.png,mask-1.png,h,1,0.908543299883604,s,0,0.1628235001116991,0.05024109990336001,0.04882019991055131,0.09970169980078936,0.09865220007486641,0.30023709987290204
RSVPLG03,si,20260226-163629,1.0.2,20260219-152011,779,Experiment,Both,1,Automatic,main,60,20260226-164207,local,local,300,H,S,A,E,A-H.png,E-S.png,hH,sS,mask-3.png,mask-3.png,h,1,0.48032850003801286,h,0,0.08925039996393025,0.05016570002771914,0.04940669983625412,0.10014619980938733,0.10018739989027381,0.29982670000754297
RSVPLG03,si,20260226-163629,1.0.2,20260219-152011,779,Experiment,Both,1,Automatic,main,61,20260226-164211,local,global,300,H,H,E,E,E-H.png,H-E.png,hH,hH,mask-4.png,mask-3.png,h,1,0.955141399987042,s,0,0.23303810018114746,0.04997600009664893,0.04914570017717779,0.09950220002792776,0.09905780013650656,0.29981689993292093
RSVPLG03,si,20260226-163629,1.0.2,20260219-152011,779,Experiment,Both,1,Automatic,main,62,20260226-164216,global,local,750,S,S,E,A,S-E.png,A-S.png,sS,sS,mask-4.png,mask-2.png,s,1,1.0493868999183178,s,1,0.14386489987373352,0.05018949997611344,0.05037569999694824,0.09975329996086657,0.10007680021226406,0.7496551999356598
RSVPLG03,si,20260226-163629,1.0.2,20260219-152011,779,Experiment,Both,1,Automatic,main,63,20260226-164221,global,global,750,H,H,A,E,H-A.png,H-E.png,hH,hH,mask-1.png,mask-4.png,h,1,0.9622245000209659,h,1,0.18548880005255342,0.04962940001860261,0.049163700081408024,0.09937429986894131,0.10137360007502139,0.7481644998770207
RSVPLG03,si,20260226-163629,1.0.2,20260219-152011,779,Experiment,Both,1,Automatic,main,64,20260226-164226,local,local,750,H,S,A,A,A-H.png,A-S.png,hH,sS,mask-4.png,mask-4.png,h,1,1.6256071999669075,h,0,0.1452422000002116,0.0501524000428617,0.049939399817958474,0.09934109984897077,0.0997482999227941,0.7493165000341833
RSVPLG03,si,20260226-163629,1.0.2,20260219-152011,779,Experiment,Both,1,Automatic,main,65,20260226-164232,global,global,300,H,S,A,E,H-A.png,S-E.png,hH,sS,mask-1.png,mask-4.png,h,1,1.6667067999951541,s,1,0.07464549993164837,0.04998070001602173,0.051114599918946624,0.09896039986051619,0.10047429986298084,0.29889239999465644
RSVPLG03,si,20260226-163629,1.0.2,20260219-152011,779,Experiment,Both,1,Automatic,main,66,20260226-164238,global,global,300,S,H,A,A,S-A.png,H-A.png,sS,hH,mask-1.png,mask-2.png,s,1,1.064978300128132,h,1,0.22550690011121333,0.048465099884197116,0.05004399991594255,0.0997490999288857,0.10019979998469353,0.2986971999052912
RSVPLG03,si,20260226-163629,1.0.2,20260219-152011,779,Experiment,Both,1,Automatic,main,67,20260226-164243,local,local,300,S,H,E,A,E-S.png,A-H.png,sS,hH,mask-1.png,mask-3.png,h,0,2.533145399997011,h,1,0.14581539994105697,0.04933629999868572,0.04916199995204806,0.09981100005097687,0.09981320006772876,0.2997139999642968
RSVPLG03,si,20260226-163629,1.0.2,20260219-152011,779,Experiment,Both,1,Automatic,main,68,20260226-164249,global,local,750,H,S,E,E,H-E.png,E-S.png,hH,sS,mask-1.png,mask-1.png,h,1,0.7446369999088347,s,1,0.8888752998318523,0.04900559992529452,0.04865430016070604,0.09994610003195703,0.09813820011913776,0.7504594998899847
RSVPLG03,si,20260226-163629,1.0.2,20260219-152011,779,Experiment,Both,1,Automatic,main,69,20260226-164254,global,local,300,H,S,E,A,H-E.png,A-S.png,hH,sS,mask-1.png,mask-4.png,h,1,0.7729317999910563,h,0,0.3537930999882519,0.04945329995825887,0.0497704001609236,0.0987099998164922,0.10063790017738938,0.298120099818334
RSVPLG03,si,20260226-163629,1.0.2,20260219-152011,779,Experiment,Both,1,Automatic,main,70,20260226-164259,local,global,750,H,H,E,E,E-H.png,H-E.png,hH,hH,mask-4.png,mask-2.png,h,1,0.8623917999211699,h,1,0.1764397001825273,0.05028429999947548,0.04936369997449219,0.09990959987044334,0.09967309981584549,0.7493781000375748
RSVPLG03,si,20260226-163629,1.0.2,20260219-152011,779,Experiment,Both,1,Automatic,main,71,20260226-164304,local,local,750,H,H,A,E,A-H.png,E-H.png,hH,hH,mask-2.png,mask-1.png,h,1,0.8676289001014084,s,0,0.04935050010681152,0.04984260001219809,0.0486693000420928,0.09981139982119203,0.09839170007035136,0.7504761999007314
RSVPLG03,si,20260226-163629,1.0.2,20260219-152011,779,Experiment,Both,1,Automatic,main,72,20260226-164309,local,local,750,H,H,A,A,A-H.png,A-H.png,hH,hH,mask-2.png,mask-3.png,h,1,0.5462456999812275,h,1,0.05750539992004633,0.04852900002151728,0.05039860005490482,0.10044199996627867,0.1002180001232773,0.7482716999948025
RSVPLG03,si,20260226-163629,1.0.2,20260219-152011,779,Experiment,Both,1,Automatic,main,73,20260226-164313,global,local,750,H,H,A,A,H-A.png,A-H.png,hH,hH,mask-3.png,mask-3.png,h,1,0.5242496998980641,h,1,0.10566570004448295,0.04976100008934736,0.049789899960160255,0.09868489997461438,0.10069370013661683,0.7492561999242753
RSVPLG03,si,20260226-163629,1.0.2,20260219-152011,779,Experiment,Both,1,Automatic,main,74,20260226-164318,local,global,300,S,H,E,A,E-S.png,H-A.png,sS,hH,mask-1.png,mask-4.png,s,1,2.7599327000789344,h,1,0.03333629993721843,0.049002100015059114,0.050251200096681714,0.10010950011201203,0.10075290012173355,0.2997570000588894
RSVPLG03,si,20260226-163629,1.0.2,20260219-152011,779,Experiment,Both,1,Automatic,main,75,20260226-164325,global,local,750,S,H,A,E,S-A.png,E-H.png,sS,hH,mask-4.png,mask-3.png,s,1,1.0059956000186503,s,0,0.16141579998657107,0.0490943999029696,0.05015349993482232,0.09900439996272326,0.09963999991305172,0.7497839999850839
RSVPLG03,si,20260226-163629,1.0.2,20260219-152011,779,Experiment,Both,1,Automatic,main,76,20260226-164339,local,global,300,H,H,E,E,E-H.png,H-E.png,hH,hH,mask-2.png,mask-4.png,h,1,1.3186664001550525,s,0,1.4786122001241893,0.0494824000634253,0.04966950020752847,0.09844820015132427,0.09980830014683306,0.2983373999595642
RSVPLG03,si,20260226-163629,1.0.2,20260219-152011,779,Experiment,Both,1,Automatic,main,77,20260226-164344,local,local,300,S,H,A,A,A-S.png,A-H.png,sS,hH,mask-3.png,mask-3.png,s,1,0.9057400000747293,h,1,1.0093647001776844,0.04970350000075996,0.0500276000238955,0.10053479997441173,0.0993466000072658,0.3000985998660326
RSVPLG03,si,20260226-163629,1.0.2,20260219-152011,779,Experiment,Both,1,Automatic,main,78,20260226-164349,global,local,300,S,H,A,E,S-A.png,E-H.png,sS,hH,mask-3.png,mask-2.png,s,1,0.7108750999905169,s,0,0.138275999808684,0.04972250014543533,0.048234299989417195,0.09983870014548302,0.10019899997860193,0.30026180017739534
RSVPLG03,si,20260226-163629,1.0.2,20260219-152011,779,Experiment,Both,1,Automatic,main,79,20260226-164353,global,global,300,H,S,A,A,H-A.png,S-A.png,hH,sS,mask-2.png,mask-2.png,h,1,0.75943319988437,s,1,0.03220880008302629,0.04977849987335503,0.05023039993830025,0.09893099986948073,0.10047769988887012,0.29885279992595315
RSVPLG03,si,20260226-163629,1.0.2,20260219-152011,779,Experiment,Both,1,Automatic,main,80,20260226-164358,global,global,750,H,S,A,A,H-A.png,S-A.png,hH,sS,mask-3.png,mask-3.png,h,1,0.38296210020780563,s,1,0.16950790002010763,0.0496972999535501,0.04905609996058047,0.10057169990614057,0.09808050002902746,0.7516202998813242
RSVPLG03,si,20260226-163629,1.0.2,20260219-152011,779,Experiment,Both,1,Automatic,main,81,20260226-164402,local,global,750,S,S,E,E,E-S.png,S-E.png,sS,sS,mask-4.png,mask-2.png,s,1,0.8051495999097824,h,0,0.00794419995509088,0.04919809987768531,0.05077430000528693,0.09829590003937483,0.09982539992779493,0.7480421999935061
RSVPLG03,si,20260226-163629,1.0.2,20260219-152011,779,Experiment,Both,1,Automatic,main,82,20260226-164407,global,global,750,H,H,A,E,H-A.png,H-E.png,hH,hH,mask-1.png,mask-3.png,h,1,0.8065139998216182,h,1,0.16808270011097193,0.04918859992176294,0.04663500003516674,0.09944899985566735,0.09743229998275638,0.7509403999429196
RSVPLG03,si,20260226-163629,1.0.2,20260219-152011,779,Experiment,Both,1,Automatic,main,83,20260226-164412,global,global,300,S,S,A,A,S-A.png,S-A.png,sS,sS,mask-1.png,mask-2.png,s,1,1.307114199968055,h,0,0.1615764000453055,0.04860819992609322,0.04778200015425682,0.09871519985608757,0.09931520000100136,0.30040889978408813
RSVPLG03,si,20260226-163629,1.0.2,20260219-152011,779,Experiment,Both,1,Automatic,main,84,20260226-164418,global,global,300,S,S,A,A,S-A.png,S-A.png,sS,sS,mask-1.png,mask-2.png,s,1,0.31938480003736913,s,1,0.0658019999973476,0.051314499927684665,0.04889389988966286,0.10029989993199706,0.10090840002521873,0.30018829996697605
RSVPLG03,si,20260226-163629,1.0.2,20260219-152011,779,Experiment,Both,1,Automatic,main,85,20260226-164422,local,local,750,H,S,E,E,E-H.png,E-S.png,hH,sS,mask-3.png,mask-1.png,h,1,1.0028036998119205,h,0,0.07368510006926954,0.048966299975290895,0.04979060008190572,0.09831380005925894,0.0997216000687331,0.748715199995786
RSVPLG03,si,20260226-163629,1.0.2,20260219-152011,779,Experiment,Both,1,Automatic,main,86,20260226-164427,global,local,300,H,S,E,A,H-E.png,A-S.png,hH,sS,mask-3.png,mask-2.png,h,1,1.0608135000802577,h,0,0.10348049993626773,0.05051809991709888,0.04976400011219084,0.10007269983179867,0.09917880012653768,0.2999908998608589
RSVPLG03,si,20260226-163629,1.0.2,20260219-152011,779,Experiment,Both,1,Automatic,main,87,20260226-164432,global,local,300,S,S,A,E,S-A.png,E-S.png,sS,sS,mask-4.png,mask-3.png,s,1,0.3082578999456018,s,1,0.10461169993504882,0.049213699996471405,0.04999820003286004,0.0992886999156326,0.09778269985690713,0.30051840003579855
RSVPLG03,si,20260226-163629,1.0.2,20260219-152011,779,Experiment,Both,1,Automatic,main,88,20260226-164436,local,global,750,S,H,A,A,A-S.png,H-A.png,sS,hH,mask-1.png,mask-1.png,h,0,1.3812315000686795,s,0,0.3371723999734968,0.04756209999322891,0.05093939998187125,0.09937860001809895,0.10055229999125004,0.7482336000539362
RSVPLG03,si,20260226-163629,1.0.2,20260219-152011,779,Experiment,Both,1,Automatic,main,89,20260226-164442,global,local,750,H,S,E,A,H-E.png,A-S.png,hH,sS,mask-4.png,mask-4.png,h,1,0.8462284000124782,s,1,0.3042286999989301,0.04952659993432462,0.04922749986872077,0.09959110012277961,0.09927939996123314,0.749510700115934
RSVPLG03,si,20260226-163629,1.0.2,20260219-152011,779,Experiment,Both,1,Automatic,main,90,20260226-164447,local,local,300,H,S,A,A,A-H.png,A-S.png,hH,sS,mask-2.png,mask-1.png,h,1,1.1322134998627007,s,1,0.009109399979934096,0.04979260009713471,0.04897950007580221,0.09847120009362698,0.09889440005645156,0.29882799996994436
RSVPLG03,si,20260226-163629,1.0.2,20260219-152011,779,Experiment,Both,1,Automatic,main,91,20260226-164452,global,global,750,S,S,A,A,S-A.png,S-A.png,sS,sS,mask-4.png,mask-1.png,h,0,1.9268521999474615,s,1,0.006579800043255091,0.049723600037395954,0.04966209991835058,0.09957040008157492,0.09955299994908273,0.7492194999940693
RSVPLG03,si,20260226-163629,1.0.2,20260219-152011,779,Experiment,Both,1,Automatic,main,92,20260226-164458,local,local,300,H,H,A,E,A-H.png,E-H.png,hH,hH,mask-3.png,mask-3.png,h,1,0.7532690998632461,h,1,0.08164170011878014,0.048952999990433455,0.05097910016775131,0.09931479999795556,0.10076560010202229,0.2980533998925239
RSVPLG03,si,20260226-163629,1.0.2,20260219-152011,779,Experiment,Both,1,Automatic,main,93,20260226-164503,local,global,750,S,S,E,E,E-S.png,S-E.png,sS,sS,mask-3.png,mask-1.png,s,1,1.2423433000221848,h,0,0.025238200090825558,0.04981890018098056,0.04947039997205138,0.09977690014056861,0.09874360007233918,0.7498802000191063
RSVPLG03,si,20260226-163629,1.0.2,20260219-152011,779,Experiment,Both,1,Automatic,main,94,20260226-164508,global,global,750,S,S,A,A,S-A.png,S-A.png,sS,sS,mask-2.png,mask-4.png,s,1,0.33853500010445714,s,1,0.15405389992520213,0.05099570006132126,0.05031349998898804,0.10005280002951622,0.10034660017117858,0.7487518999259919
RSVPLG03,si,20260226-163629,1.0.2,20260219-152011,779,Experiment,Both,1,Automatic,main,95,20260226-164513,local,global,300,H,S,A,E,A-H.png,S-E.png,hH,sS,mask-3.png,mask-4.png,h,1,0.6088617998175323,h,0,0.0568700002040714,0.04893280006945133,0.05042900005355477,0.09841799992136657,0.10016160015948117,0.2983814999461174
RSVPLG03,si,20260226-163629,1.0.2,20260219-152011,779,Experiment,Both,1,Automatic,main,96,20260226-164517,local,global,300,H,H,E,A,E-H.png,H-A.png,hH,hH,mask-4.png,mask-4.png,h,1,0.24759309994988143,s,0,0.38353320001624525,0.050003800075501204,0.04943239991553128,0.10013979999348521,0.0993053000420332,0.3011462001595646
RSVPLG03,si,20260226-163629,1.0.2,20260219-152011,779,Experiment,Both,1,Automatic,main,97,20260226-164521,local,global,300,H,S,A,A,A-H.png,S-A.png,hH,sS,mask-2.png,mask-2.png,h,1,1.2357247001491487,s,1,0.10521190008148551,0.04803800000809133,0.04958510003052652,0.10053059994243085,0.09970789984799922,0.2995474000927061
RSVPLG03,si,20260226-163629,1.0.2,20260219-152011,779,Experiment,Both,1,Automatic,main,98,20260226-164526,local,local,300,H,H,E,A,E-H.png,A-H.png,hH,hH,mask-4.png,mask-3.png,h,1,0.40974909998476505,h,1,0.06567339994944632,0.05067649995908141,0.050651999888941646,0.10064630000852048,0.10028890008106828,0.2997183999978006
RSVPLG03,si,20260226-163629,1.0.2,20260219-152011,779,Experiment,Both,1,Automatic,main,99,20260226-164530,local,global,750,H,S,A,E,A-H.png,S-E.png,hH,sS,mask-1.png,mask-4.png,h,1,0.505482800072059,h,0,2.93712170002982,0.049957099836319685,0.05001210002228618,0.1005863999016583,0.10001490009017289,0.7493345998227596
RSVPLG03,si,20260226-163629,1.0.2,20260219-152011,779,Experiment,Both,1,Automatic,main,100,20260226-164538,global,local,300,S,H,A,A,S-A.png,A-H.png,sS,hH,mask-2.png,mask-3.png,s,1,0.6903460000175983,h,1,0.24112919997423887,0.05072730011306703,0.048342599999159575,0.1016643000766635,0.09967350005172193,0.3010718000587076
