exp,exp_initials,runtime,ver,modtime,sub,blocktype,targets,cuetype,mode,trialtype,trial,trialtime,t1_level,t2_level,t2_lag,t1,t2,distractor1,distractor2,stimfile1,stimfile2,t1_corr,t2_corr,maskfile1,maskfile2,t1_resp,t1_acc,t1_rt,t2_resp,t2_acc,t2_rt,t1_dur,t2_dur,t1mask_soa,t2mask_soa,t1t2_soa
RSVPLG03,sg,20251104-115305,1.0.1,20251020-085245,734,Introduction,T1,1,Automatic,main,1,20251104-121411,local,local,750,S,H,E,E,E-S.png,E-H.png,sS,hH,mask-1.png,mask-3.png,s,1,0.14936519996263087,none,-5,0,0.09568809997290373,0.09855830017477274,0.19983699987642467,0.20160300005227327,0.7481040998827666
RSVPLG03,sg,20251104-115305,1.0.1,20251020-085245,734,Introduction,T1,1,Automatic,main,2,20251104-121415,global,global,750,H,H,E,E,H-E.png,H-E.png,hH,hH,mask-4.png,mask-1.png,h,1,0.050868900027126074,none,-5,0,0.09896280011162162,0.0984145998954773,0.20192739996127784,0.1992247998714447,0.750807800097391
RSVPLG03,sg,20251104-115305,1.0.1,20251020-085245,734,Introduction,T1,1,Automatic,main,3,20251104-121419,local,global,750,H,H,E,E,E-H.png,H-E.png,hH,hH,mask-3.png,mask-2.png,s,0,2.0986019999254495,none,-5,0,0.09735219995491207,0.09734480013139546,0.20020979992114007,0.20019629993475974,0.7498751999810338
RSVPLG03,sg,20251104-115305,1.0.1,20251020-085245,734,Introduction,T1,1,Automatic,main,4,20251104-121426,local,global,750,S,H,A,A,A-S.png,H-A.png,sS,hH,mask-3.png,mask-2.png,h,0,0.857904399977997,none,-5,0,0.09743849979713559,0.09842669987119734,0.1984455999918282,0.19964799983426929,0.7491075999569148
RSVPLG03,sg,20251104-115305,1.0.1,20251020-085245,734,Introduction,T1,1,Automatic,main,5,20251104-121431,global,global,750,H,H,E,A,H-E.png,H-A.png,hH,hH,mask-1.png,mask-2.png,h,1,0.7113652001135051,none,-5,0,0.09659620001912117,0.09663749998435378,0.20013240003027022,0.19968919991515577,0.7500738000962883
RSVPLG03,sg,20251104-115305,1.0.1,20251020-085245,734,Introduction,T1,1,Automatic,main,6,20251104-121435,local,global,750,H,H,E,E,E-H.png,H-E.png,hH,hH,mask-1.png,mask-3.png,h,1,2.3042929999064654,none,-5,0,0.09558179997839034,0.09746019984595478,0.1978428999427706,0.2003332998137921,0.7486545001156628
RSVPLG03,sg,20251104-115305,1.0.1,20251020-085245,734,Introduction,T1,1,Automatic,main,7,20251104-121442,local,local,750,S,S,E,E,E-S.png,E-S.png,sS,sS,mask-3.png,mask-1.png,s,1,0.9362815001513809,none,-5,0,0.09836450009606779,0.097467300016433,0.20029080007225275,0.20033999998122454,0.7504190001636744
RSVPLG03,sg,20251104-115305,1.0.1,20251020-085245,734,Introduction,T1,1,Automatic,main,8,20251104-121447,global,global,750,H,H,A,E,H-A.png,H-E.png,hH,hH,mask-1.png,mask-4.png,h,1,1.0459466001484543,none,-5,0,0.09736479981802404,0.09736760007217526,0.20007209992036223,0.2002494998741895,0.749626399949193
RSVPLG03,sg,20251104-115305,1.0.1,20251020-085245,734,Introduction,T1,1,Automatic,main,9,20251104-121452,global,local,750,H,S,E,A,H-E.png,A-S.png,hH,sS,mask-4.png,mask-4.png,h,1,0.5306047000922263,none,-5,0,0.0993659000378102,0.0973626000341028,0.2003551002126187,0.20024590007960796,0.7504823000635952
RSVPLG03,sg,20251104-115305,1.0.1,20251020-085245,734,Introduction,T1,1,Automatic,main,10,20251104-121457,local,local,750,S,H,A,E,A-S.png,E-H.png,sS,hH,mask-1.png,mask-3.png,s,1,0.2994868999812752,none,-5,0,0.09737900015898049,0.0975811998359859,0.1982307001017034,0.1992818999569863,0.7487493001390249
RSVPLG03,sg,20251104-115305,1.0.1,20251020-085245,734,Introduction,T1,1,Automatic,main,11,20251104-121501,global,local,750,S,H,E,A,S-E.png,A-H.png,sS,hH,mask-4.png,mask-1.png,s,1,0.5570607001427561,none,-5,0,0.09757660003378987,0.09753999998793006,0.19868190004490316,0.1991930000949651,0.7496780999936163
RSVPLG03,sg,20251104-115305,1.0.1,20251020-085245,734,Introduction,T1,1,Automatic,main,12,20251104-121506,global,global,750,S,H,A,E,S-A.png,H-E.png,sS,hH,mask-3.png,mask-2.png,s,1,0.40033649979159236,none,-5,0,0.09773489995859563,0.0955062999855727,0.1987462998367846,0.1995156998746097,0.7505487999878824
RSVPLG03,sg,20251104-115305,1.0.1,20251020-085245,734,Introduction,T1,1,Automatic,main,13,20251104-121511,global,local,750,S,H,A,A,S-A.png,A-H.png,sS,hH,mask-2.png,mask-1.png,s,1,0.3451549999881536,none,-5,0,0.09890959993936121,0.09742479980923235,0.20077310013584793,0.1993835000321269,0.7519098001066595
RSVPLG03,sg,20251104-115305,1.0.1,20251020-085245,734,Introduction,T1,1,Automatic,main,14,20251104-121515,global,local,750,S,H,A,E,S-A.png,E-H.png,sS,hH,mask-3.png,mask-4.png,s,1,0.4321876000612974,none,-5,0,0.09751989995129406,0.09756399993784726,0.20140899997204542,0.20087660010904074,0.7497791999485344
RSVPLG03,sg,20251104-115305,1.0.1,20251020-085245,734,Introduction,T1,1,Automatic,main,15,20251104-121520,local,local,750,S,H,A,E,A-S.png,E-H.png,sS,hH,mask-1.png,mask-3.png,s,1,0.30169559991918504,none,-5,0,0.09769510012120008,0.09637430007569492,0.20065400004386902,0.1990556998644024,0.751054200110957
RSVPLG03,sg,20251104-115305,1.0.1,20251020-085245,734,Introduction,T1,1,Automatic,main,16,20251104-121525,local,global,750,S,S,E,E,E-S.png,S-E.png,sS,sS,mask-3.png,mask-3.png,s,1,0.3618592000566423,none,-5,0,0.09638400003314018,0.09742469992488623,0.19931859988719225,0.20029289997182786,0.7498165001161397
RSVPLG03,sg,20251104-121555,1.0.1,20251020-085245,734,Practice,T1,1,Automatic,main,1,20251104-121622,global,local,750,H,S,E,E,H-E.png,E-S.png,hH,sS,mask-4.png,mask-3.png,h,1,0.46309680002741516,none,-5,0,0.041889999993145466,0.04671510006301105,0.09507380006834865,0.1007835001219064,0.7440565000288188
RSVPLG03,sg,20251104-121555,1.0.1,20251020-085245,734,Practice,T1,1,Automatic,main,2,20251104-121627,local,local,750,H,S,E,A,E-H.png,A-S.png,hH,sS,mask-1.png,mask-3.png,s,0,0.409034599782899,none,-5,0,0.047665299847722054,0.04764999984763563,0.10001729987561703,0.0998295999597758,0.7495112000033259
RSVPLG03,sg,20251104-121555,1.0.1,20251020-085245,734,Practice,T1,1,Automatic,main,3,20251104-121631,global,local,750,H,H,A,A,H-A.png,A-H.png,hH,hH,mask-4.png,mask-2.png,h,1,0.6555321000050753,none,-5,0,0.0465255999006331,0.04750919993966818,0.09970919997431338,0.09998059994541109,0.748440399998799
RSVPLG03,sg,20251104-121555,1.0.1,20251020-085245,734,Practice,T1,1,Automatic,main,4,20251104-121636,local,global,750,H,H,A,A,A-H.png,H-A.png,hH,hH,mask-3.png,mask-3.png,h,1,0.3725153999403119,none,-5,0,0.047666000202298164,0.04669860005378723,0.10004010004922748,0.09988450002856553,0.7505521001294255
RSVPLG03,sg,20251104-121555,1.0.1,20251020-085245,734,Practice,T1,1,Automatic,main,5,20251104-121640,global,local,300,S,S,E,A,S-E.png,A-S.png,sS,sS,mask-4.png,mask-2.png,s,1,0.4192546000704169,none,-5,0,0.04750750004313886,0.046552599873393774,0.10050760000012815,0.09954590001143515,0.30078630009666085
RSVPLG03,sg,20251104-121555,1.0.1,20251020-085245,734,Practice,T1,1,Automatic,main,6,20251104-121644,local,global,750,S,H,A,E,A-S.png,H-E.png,sS,hH,mask-1.png,mask-3.png,h,0,0.3857533000409603,none,-5,0,0.04851470002904534,0.04750790004618466,0.10162750002928078,0.10055350000038743,0.7497590000275522
RSVPLG03,sg,20251104-121555,1.0.1,20251020-085245,734,Practice,T1,1,Automatic,main,7,20251104-121649,global,local,300,H,H,A,E,H-A.png,E-H.png,hH,hH,mask-3.png,mask-1.png,h,1,0.6492418001871556,none,-5,0,0.047185299918055534,0.04771180008538067,0.10011280002072453,0.09878540015779436,0.30031859991140664
RSVPLG03,sg,20251104-121555,1.0.1,20251020-085245,734,Practice,T1,1,Automatic,main,8,20251104-121653,global,global,750,H,H,E,E,H-E.png,H-E.png,hH,hH,mask-2.png,mask-2.png,h,1,0.7834886000491679,none,-5,0,0.047515499871224165,0.04741360014304519,0.09875430003739893,0.09872880019247532,0.7499199998565018
RSVPLG03,sg,20251104-121555,1.0.1,20251020-085245,734,Practice,T1,1,Automatic,main,9,20251104-121658,global,global,300,H,H,A,E,H-A.png,H-E.png,hH,hH,mask-2.png,mask-1.png,h,1,0.657916400115937,none,-5,0,0.04699889989569783,0.04859040002338588,0.09819069993682206,0.09976130002178252,0.2984998000320047
RSVPLG03,sg,20251104-121555,1.0.1,20251020-085245,734,Practice,T1,1,Automatic,main,10,20251104-121702,local,global,300,H,S,E,E,E-H.png,S-E.png,hH,sS,mask-1.png,mask-2.png,h,1,0.7186789999250323,none,-5,0,0.04751840000972152,0.047652200097218156,0.09874559985473752,0.10080520017072558,0.299703799886629
RSVPLG03,sg,20251104-121555,1.0.1,20251020-085245,734,Practice,T1,1,Automatic,main,11,20251104-121707,local,local,300,S,S,E,E,E-S.png,E-S.png,sS,sS,mask-1.png,mask-4.png,s,1,0.43000169983133674,none,-5,0,0.048663799883797765,0.047671200009062886,0.10017800005152822,0.09989150008186698,0.29991839989088476
RSVPLG03,sg,20251104-121555,1.0.1,20251020-085245,734,Practice,T1,1,Automatic,main,12,20251104-121711,global,global,750,H,H,E,E,H-E.png,H-E.png,hH,hH,mask-2.png,mask-3.png,h,1,0.457155300071463,none,-5,0,0.04574330011382699,0.04667449998669326,0.0999541999772191,0.09778670012019575,0.7495345000643283
RSVPLG03,sg,20251104-121555,1.0.1,20251020-085245,734,Practice,T1,1,Automatic,main,13,20251104-121715,local,local,750,H,S,A,E,A-H.png,E-S.png,hH,sS,mask-1.png,mask-2.png,h,1,1.027235500048846,none,-5,0,0.04750869981944561,0.047541300067678094,0.10052479989826679,0.09956080000847578,0.750204199925065
RSVPLG03,sg,20251104-121555,1.0.1,20251020-085245,734,Practice,T1,1,Automatic,main,14,20251104-121720,global,global,300,H,S,A,A,H-A.png,S-A.png,hH,sS,mask-3.png,mask-4.png,h,1,0.8700665000360459,none,-5,0,0.048522899858653545,0.048517000162974,0.10057209990918636,0.10152489994652569,0.29991859989240766
RSVPLG03,sg,20251104-121555,1.0.1,20251020-085245,734,Practice,T1,1,Automatic,main,15,20251104-121725,local,local,300,H,H,E,E,E-H.png,E-H.png,hH,hH,mask-1.png,mask-4.png,s,0,0.5347168000880629,none,-5,0,0.046237099915742874,0.046584000112488866,0.0992803000845015,0.09849360003136098,0.3002613999415189
RSVPLG03,sg,20251104-121555,1.0.1,20251020-085245,734,Practice,T1,1,Automatic,main,16,20251104-121729,local,global,300,S,S,A,A,A-S.png,S-A.png,sS,sS,mask-3.png,mask-3.png,s,1,0.6653452999889851,none,-5,0,0.04765449999831617,0.046916000079363585,0.09982850006781518,0.0981757000554353,0.3014007001183927
RSVPLG03,sg,20251104-121853,1.0.1,20251020-085245,734,Introduction,Both,1,Automatic,main,1,20251104-121911,global,global,750,H,S,E,A,H-E.png,S-A.png,hH,sS,mask-1.png,mask-1.png,h,1,1.7502426002174616,s,1,0.6629604001063854,0.09124989993870258,0.09745339979417622,0.19290479994378984,0.2005234998650849,0.7426967001520097
RSVPLG03,sg,20251104-121853,1.0.1,20251020-085245,734,Introduction,Both,1,Automatic,main,2,20251104-121918,local,local,750,S,H,A,A,A-S.png,A-H.png,sS,hH,mask-1.png,mask-4.png,h,0,1.3159177999477834,h,1,0.31404479988850653,0.09749030019156635,0.09793390007689595,0.1994656000752002,0.19982780003920197,0.7493447000160813
RSVPLG03,sg,20251104-121853,1.0.1,20251020-085245,734,Introduction,Both,1,Automatic,main,3,20251104-121924,local,local,750,H,H,A,E,A-H.png,E-H.png,hH,hH,mask-4.png,mask-4.png,h,1,0.9561191000975668,s,0,0.5544557000976056,0.0982271998655051,0.09722059988416731,0.20108339982107282,0.1988657999318093,0.7506150000263005
RSVPLG03,sg,20251104-121853,1.0.1,20251020-085245,734,Introduction,Both,1,Automatic,main,4,20251104-121930,local,local,750,H,S,A,E,A-H.png,E-S.png,hH,sS,mask-3.png,mask-1.png,h,1,0.7405689998995513,s,1,0.4406780998688191,0.09598449990153313,0.09756310004740953,0.2001807999331504,0.19960399996489286,0.7482673998456448
RSVPLG03,sg,20251104-121853,1.0.1,20251020-085245,734,Introduction,Both,1,Automatic,main,5,20251104-121935,global,global,750,H,H,E,E,H-E.png,H-E.png,hH,hH,mask-3.png,mask-4.png,h,1,0.5849927000235766,h,1,0.46900880010798573,0.09777140012010932,0.09653809992596507,0.19988570013083518,0.2006592999678105,0.7500227000564337
RSVPLG03,sg,20251104-121853,1.0.1,20251020-085245,734,Introduction,Both,1,Automatic,main,6,20251104-121941,local,global,750,S,H,A,E,A-S.png,H-E.png,sS,hH,mask-3.png,mask-1.png,s,1,0.9336279002018273,h,1,0.3337620000820607,0.0954442999791354,0.09839619998820126,0.1983191000763327,0.200264299986884,0.7474907001014799
RSVPLG03,sg,20251104-121853,1.0.1,20251020-085245,734,Introduction,Both,1,Automatic,main,7,20251104-121946,local,local,750,H,S,A,A,A-H.png,A-S.png,hH,sS,mask-2.png,mask-2.png,h,1,0.6313067998271435,s,1,0.40760559984482825,0.09838169999420643,0.0973817000631243,0.20126640005037189,0.19924440002068877,0.7502669999375939
RSVPLG03,sg,20251104-121853,1.0.1,20251020-085245,734,Introduction,Both,1,Automatic,main,8,20251104-121952,global,local,750,S,S,E,A,S-E.png,A-S.png,sS,sS,mask-2.png,mask-2.png,s,1,0.6884262000676244,h,0,0.4128638000693172,0.09739739983342588,0.0973768001422286,0.2003740998916328,0.2002588000614196,0.750024699838832
RSVPLG03,sg,20251104-121853,1.0.1,20251020-085245,734,Introduction,Both,1,Automatic,main,9,20251104-121957,global,local,750,H,H,A,A,H-A.png,A-H.png,hH,hH,mask-4.png,mask-3.png,h,1,0.6538337001111358,h,1,0.5162522001191974,0.09730280004441738,0.09695110004395247,0.1992111001163721,0.19895730004645884,0.7489893001038581
RSVPLG03,sg,20251104-121853,1.0.1,20251020-085245,734,Introduction,Both,1,Automatic,main,10,20251104-122003,global,local,750,H,H,A,E,H-A.png,E-H.png,hH,hH,mask-4.png,mask-3.png,h,1,1.348578399978578,h,1,0.5057746998500079,0.09721989999525249,0.09855389990843832,0.20031320000998676,0.1996851998846978,0.7493301001377404
RSVPLG03,sg,20251104-121853,1.0.1,20251020-085245,734,Introduction,Both,1,Automatic,main,11,20251104-122009,global,global,750,H,S,E,E,H-E.png,S-E.png,hH,sS,mask-2.png,mask-4.png,h,1,1.0932182997930795,h,0,0.378773600095883,0.09731710003688931,0.09728600014932454,0.20038229995407164,0.20072400011122227,0.7488348998595029
RSVPLG03,sg,20251104-121853,1.0.1,20251020-085245,734,Introduction,Both,1,Automatic,main,12,20251104-122015,local,global,750,H,S,E,E,E-H.png,S-E.png,hH,sS,mask-3.png,mask-1.png,h,1,0.8361818001139909,s,1,0.45654809987172484,0.0975772999227047,0.09735630010254681,0.20065849996171892,0.19839349994435906,0.7503328998573124
RSVPLG03,sg,20251104-121853,1.0.1,20251020-085245,734,Introduction,Both,1,Automatic,main,13,20251104-122020,local,global,750,H,S,E,E,E-H.png,S-E.png,hH,sS,mask-2.png,mask-2.png,s,0,0.8276949999853969,s,1,0.3817481999285519,0.09755099983885884,0.09789450000971556,0.20164410001598299,0.20005219988524914,0.7500326000154018
RSVPLG03,sg,20251104-121853,1.0.1,20251020-085245,734,Introduction,Both,1,Automatic,main,14,20251104-122026,global,local,750,H,S,A,E,H-A.png,E-S.png,hH,sS,mask-3.png,mask-4.png,h,1,0.8942299000918865,s,1,0.36104259989224374,0.09600590006448328,0.09852640004828572,0.19914459995925426,0.20042879995889962,0.7485879000741988
RSVPLG03,sg,20251104-121853,1.0.1,20251020-085245,734,Introduction,Both,1,Automatic,main,15,20251104-122031,local,global,750,S,H,A,A,A-S.png,H-A.png,sS,hH,mask-1.png,mask-1.png,s,1,0.6500264999922365,h,1,0.43816019990481436,0.09834529994986951,0.0964137997943908,0.2000744000542909,0.19966739998199046,0.7501408001407981
RSVPLG03,sg,20251104-121853,1.0.1,20251020-085245,734,Introduction,Both,1,Automatic,main,16,20251104-122037,global,global,750,H,H,A,E,H-A.png,H-E.png,hH,hH,mask-3.png,mask-3.png,h,1,0.5896165000740439,h,1,0.3964718000497669,0.09837249992415309,0.09735570009797812,0.20029109995812178,0.20121570001356304,0.7488765998277813
RSVPLG03,sg,20251104-122126,1.0.1,20251020-085245,734,Practice,Both,1,Automatic,main,1,20251104-122146,local,global,300,S,H,E,E,E-S.png,H-E.png,sS,hH,mask-4.png,mask-4.png,s,1,0.8277318000327796,s,0,0.5069810000713915,0.042201200034469366,0.047733600018545985,0.09544479986652732,0.09993300004862249,0.2950817998498678
RSVPLG03,sg,20251104-122126,1.0.1,20251020-085245,734,Practice,Both,1,Automatic,main,2,20251104-122151,global,global,300,H,H,E,A,H-E.png,H-A.png,hH,hH,mask-1.png,mask-3.png,h,1,0.7249290000181645,h,1,0.3417909999843687,0.04752819985151291,0.0481088999658823,0.10057909996248782,0.10017440002411604,0.30041889986023307
RSVPLG03,sg,20251104-122126,1.0.1,20251020-085245,734,Practice,Both,1,Automatic,main,3,20251104-122156,local,global,750,S,H,E,E,E-S.png,H-E.png,sS,hH,mask-3.png,mask-2.png,s,1,0.7213334999978542,h,1,0.4361884999088943,0.04711209982633591,0.04956829990260303,0.10025499993935227,0.10059059993363917,0.7488500999752432
RSVPLG03,sg,20251104-122126,1.0.1,20251020-085245,734,Practice,Both,1,Automatic,main,4,20251104-122201,global,global,300,S,H,E,E,S-E.png,H-E.png,sS,hH,mask-2.png,mask-3.png,s,1,1.0658315001055598,h,1,0.381119699915871,0.04756620014086366,0.0474937001708895,0.09961030003614724,0.09954550000838935,0.3000702999997884
RSVPLG03,sg,20251104-122126,1.0.1,20251020-085245,734,Practice,Both,1,Automatic,main,5,20251104-122206,global,local,750,S,S,A,A,S-A.png,A-S.png,sS,sS,mask-3.png,mask-2.png,s,1,0.7990439001005143,h,0,0.4559903999324888,0.04867920000106096,0.047706399811431766,0.10090019996277988,0.10075829993002117,0.7506307000294328
RSVPLG03,sg,20251104-122126,1.0.1,20251020-085245,734,Practice,Both,1,Automatic,main,6,20251104-122212,local,local,750,H,S,E,A,E-H.png,A-S.png,hH,sS,mask-1.png,mask-3.png,s,0,0.8320734000299126,h,0,0.3298365999944508,0.04834210011176765,0.04880720004439354,0.10000000009313226,0.10100449994206429,0.750672500114888
RSVPLG03,sg,20251104-122126,1.0.1,20251020-085245,734,Practice,Both,1,Automatic,main,7,20251104-122217,local,local,300,S,H,E,A,E-S.png,A-H.png,sS,hH,mask-3.png,mask-1.png,s,1,1.071734800003469,h,1,0.5880778999999166,0.048646399984136224,0.048683200031518936,0.10148789989762008,0.10150420013815165,0.300121899927035
RSVPLG03,sg,20251104-122126,1.0.1,20251020-085245,734,Practice,Both,1,Automatic,main,8,20251104-122222,global,local,300,H,S,A,A,H-A.png,A-S.png,hH,sS,mask-4.png,mask-2.png,h,1,1.8255266000051051,h,0,0.5036917999386787,0.04866320011205971,0.047499800100922585,0.10014470014721155,0.10042609996162355,0.30112110008485615
RSVPLG03,sg,20251104-122126,1.0.1,20251020-085245,734,Practice,Both,1,Automatic,main,9,20251104-122228,local,local,750,H,S,A,A,A-H.png,A-S.png,hH,sS,mask-3.png,mask-4.png,h,1,0.9018568000756204,s,1,0.5516520999372005,0.04752380005083978,0.047673799796029925,0.0996165000833571,0.09986129985190928,0.7510288001503795
RSVPLG03,sg,20251104-122126,1.0.1,20251020-085245,734,Practice,Both,1,Automatic,main,10,20251104-122234,local,local,300,H,S,A,A,A-H.png,A-S.png,hH,sS,mask-3.png,mask-4.png,h,1,1.1258439000230283,s,1,0.5231258000712842,0.04852820001542568,0.04691369994543493,0.10071690008044243,0.10097240004688501,0.30047470005229115
RSVPLG03,sg,20251104-122126,1.0.1,20251020-085245,734,Practice,Both,1,Automatic,main,11,20251104-122239,global,local,300,H,S,E,E,H-E.png,E-S.png,hH,sS,mask-1.png,mask-2.png,h,1,0.9615899999625981,s,1,0.37954550003632903,0.046719999983906746,0.047700800001621246,0.09988779993727803,0.10012960014864802,0.29966879985295236
RSVPLG03,sg,20251104-122126,1.0.1,20251020-085245,734,Practice,Both,1,Automatic,main,12,20251104-122245,global,global,750,H,H,E,A,H-E.png,H-A.png,hH,hH,mask-2.png,mask-4.png,h,1,0.7514174000825733,h,1,0.5528601000551134,0.04768889979459345,0.04738050000742078,0.09990279981866479,0.10022359993308783,0.751723499968648
RSVPLG03,sg,20251104-122126,1.0.1,20251020-085245,734,Practice,Both,1,Automatic,main,13,20251104-122250,local,global,750,H,H,E,E,E-H.png,H-E.png,hH,hH,mask-1.png,mask-1.png,s,0,1.0411237999796867,h,1,0.4384725000709295,0.04633420007303357,0.04657749994657934,0.09891960001550615,0.09838089998811483,0.7501862000208348
RSVPLG03,sg,20251104-122126,1.0.1,20251020-085245,734,Practice,Both,1,Automatic,main,14,20251104-122256,global,local,750,S,S,A,E,S-A.png,E-S.png,sS,sS,mask-1.png,mask-3.png,s,1,0.9222679999656975,s,1,0.4231853000819683,0.04771799989975989,0.048718899954110384,0.10147719993256032,0.10093129985034466,0.7513659000396729
RSVPLG03,sg,20251104-122126,1.0.1,20251020-085245,734,Practice,Both,1,Automatic,main,15,20251104-122301,global,global,750,H,H,E,E,H-E.png,H-E.png,hH,hH,mask-3.png,mask-1.png,h,1,0.8416685000993311,h,1,0.443337099859491,0.04777860012836754,0.046792699955403805,0.10001010005362332,0.09900929988361895,0.7502676001749933
RSVPLG03,sg,20251104-122126,1.0.1,20251020-085245,734,Practice,Both,1,Automatic,main,16,20251104-122307,local,global,300,H,S,E,E,E-H.png,S-E.png,hH,sS,mask-4.png,mask-3.png,h,1,1.1037135000806302,s,1,0.39048420009203255,0.04771990003064275,0.048795599956065416,0.09996560006402433,0.10099419998005033,0.2990358001552522
RSVPLG03,sg,20251104-122400,1.0.1,20251020-085245,734,Experiment,Both,1,Automatic,warmup,1,20251104-122622,global,global,750,H,S,A,E,H-A.png,S-E.png,hH,sS,mask-3.png,mask-3.png,h,1,1.4866893000435084,h,0,0.21073699998669326,0.04351580003276467,0.04655670002102852,0.09567370009608567,0.0997100998647511,0.7483505001291633
RSVPLG03,sg,20251104-122400,1.0.1,20251020-085245,734,Experiment,Both,1,Automatic,warmup,2,20251104-122628,local,local,300,H,S,A,A,A-H.png,A-S.png,hH,sS,mask-3.png,mask-3.png,h,1,0.735486000077799,s,1,0.47182670002803206,0.047715900000184774,0.047937499824911356,0.09992450010031462,0.10011469991877675,0.29965690011158586
RSVPLG03,sg,20251104-122400,1.0.1,20251020-085245,734,Experiment,Both,1,Automatic,warmup,3,20251104-122632,global,local,750,H,S,E,E,H-E.png,E-S.png,hH,sS,mask-2.png,mask-2.png,h,1,0.5506185998674482,s,1,0.3374596000649035,0.04750060010701418,0.04943850007839501,0.1009323000907898,0.10054520005360246,0.750056599965319
RSVPLG03,sg,20251104-122400,1.0.1,20251020-085245,734,Experiment,Both,1,Automatic,warmup,4,20251104-122638,local,global,750,S,S,E,E,E-S.png,S-E.png,sS,sS,mask-4.png,mask-1.png,s,1,0.8858866998925805,s,1,0.31605270016007125,0.047528899973258376,0.04849399998784065,0.10081360000185668,0.10156479990109801,0.7514132000505924
RSVPLG03,sg,20251104-122400,1.0.1,20251020-085245,734,Experiment,Both,1,Automatic,warmup,5,20251104-122643,global,global,300,H,H,A,E,H-A.png,H-E.png,hH,hH,mask-2.png,mask-1.png,h,1,0.806771099800244,h,1,0.3000945998355746,0.04754179995507002,0.04926940007135272,0.09939239989034832,0.10008780006319284,0.29964779992587864
RSVPLG03,sg,20251104-122400,1.0.1,20251020-085245,734,Experiment,Both,1,Automatic,main,6,20251104-122648,global,local,300,S,H,E,E,S-E.png,E-H.png,sS,hH,mask-2.png,mask-3.png,s,1,1.0702716999221593,s,0,0.4175153998658061,0.047757399966940284,0.04776280000805855,0.10016409982927144,0.099885200150311,0.2998481998220086
RSVPLG03,sg,20251104-122400,1.0.1,20251020-085245,734,Experiment,Both,1,Automatic,main,7,20251104-122653,local,local,300,H,H,A,E,A-H.png,E-H.png,hH,hH,mask-4.png,mask-1.png,h,1,0.8383363999892026,s,0,0.42281930008903146,0.04773409990593791,0.04592780000530183,0.09911739989183843,0.10014640004374087,0.29996389988809824
RSVPLG03,sg,20251104-122400,1.0.1,20251020-085245,734,Experiment,Both,1,Automatic,main,8,20251104-122658,global,local,750,S,H,A,A,S-A.png,A-H.png,sS,hH,mask-4.png,mask-1.png,s,1,0.5771576999686658,h,1,0.40581040014512837,0.04765249998308718,0.04866279987618327,0.10185390012338758,0.09988090000115335,0.752232100116089
RSVPLG03,sg,20251104-122400,1.0.1,20251020-085245,734,Experiment,Both,1,Automatic,main,9,20251104-122703,local,global,750,S,S,E,E,E-S.png,S-E.png,sS,sS,mask-4.png,mask-1.png,s,1,0.7745032999664545,h,0,0.8104981000069529,0.04819640005007386,0.0477224001660943,0.0999129000119865,0.09992950013838708,0.7520965000148863
RSVPLG03,sg,20251104-122400,1.0.1,20251020-085245,734,Experiment,Both,1,Automatic,main,10,20251104-122709,local,global,300,H,H,A,E,A-H.png,H-E.png,hH,hH,mask-1.png,mask-1.png,h,1,0.8221098999492824,h,1,0.2905069999396801,0.04747690004296601,0.04749180004000664,0.10048209992237389,0.10147639992646873,0.30071539990603924
RSVPLG03,sg,20251104-122400,1.0.1,20251020-085245,734,Experiment,Both,1,Automatic,main,11,20251104-122714,local,global,300,H,S,A,E,A-H.png,S-E.png,hH,sS,mask-4.png,mask-2.png,h,1,0.9050805000588298,s,1,0.36355790006928146,0.047395900124683976,0.04750020010396838,0.10024660010822117,0.09948169998824596,0.3013597000390291
RSVPLG03,sg,20251104-122400,1.0.1,20251020-085245,734,Experiment,Both,1,Automatic,main,12,20251104-122719,global,local,300,S,H,A,A,S-A.png,A-H.png,sS,hH,mask-3.png,mask-3.png,s,1,0.6604765001684427,h,1,0.3482216000556946,0.04751609987579286,0.047526099951937795,0.10152669996023178,0.09850329998880625,0.301891400013119
RSVPLG03,sg,20251104-122400,1.0.1,20251020-085245,734,Experiment,Both,1,Automatic,main,13,20251104-122724,global,local,750,H,S,E,E,H-E.png,E-S.png,hH,sS,mask-4.png,mask-1.png,h,1,0.5987527000252157,s,1,0.5576046998612583,0.04750770004466176,0.047522100154310465,0.10050319996662438,0.10054680006578565,0.7521033999510109
RSVPLG03,sg,20251104-122400,1.0.1,20251020-085245,734,Experiment,Both,1,Automatic,main,14,20251104-122729,local,global,750,S,S,A,E,A-S.png,S-E.png,sS,sS,mask-2.png,mask-3.png,h,0,1.2915362999774516,s,1,0.12353480001911521,0.048473799834027886,0.04771150019951165,0.10067509999498725,0.09981240006163716,0.7530466997995973
RSVPLG03,sg,20251104-122400,1.0.1,20251020-085245,734,Experiment,Both,1,Automatic,main,15,20251104-122735,global,global,300,H,S,E,A,H-E.png,S-A.png,hH,sS,mask-2.png,mask-1.png,h,1,0.5231975999195129,s,1,0.2977067001629621,0.047579299891367555,0.04666790016926825,0.09955470007844269,0.09891519998200238,0.3009311999194324
RSVPLG03,sg,20251104-122400,1.0.1,20251020-085245,734,Experiment,Both,1,Automatic,main,16,20251104-122739,global,global,750,H,H,E,A,H-E.png,H-A.png,hH,hH,mask-4.png,mask-1.png,h,1,0.43127479986287653,h,1,0.3108136001974344,0.04764660005457699,0.046670300187543035,0.1008408002089709,0.0998655001167208,0.753091000020504
RSVPLG03,sg,20251104-122400,1.0.1,20251020-085245,734,Experiment,Both,1,Automatic,main,17,20251104-122744,global,local,750,S,S,E,A,S-E.png,A-S.png,sS,sS,mask-3.png,mask-3.png,s,1,0.30975120002403855,h,0,0.3599189999513328,0.047499399865046144,0.047548700124025345,0.10051759984344244,0.09879990015178919,0.7521030998323113
RSVPLG03,sg,20251104-122400,1.0.1,20251020-085245,734,Experiment,Both,1,Automatic,main,18,20251104-122749,local,local,300,S,H,A,A,A-S.png,A-H.png,sS,hH,mask-1.png,mask-1.png,h,0,1.710452500032261,h,1,0.30360840004868805,0.04671770008280873,0.04769650008529425,0.09996729996055365,0.10175099992193282,0.2993946000933647
RSVPLG03,sg,20251104-122400,1.0.1,20251020-085245,734,Experiment,Both,1,Automatic,main,19,20251104-122755,global,local,750,H,S,A,A,H-A.png,A-S.png,hH,sS,mask-4.png,mask-4.png,h,1,0.4822174001019448,h,0,0.3773514998611063,0.04844649997539818,0.046569100115448236,0.1004808999132365,0.09979290002956986,0.7525000998284668
RSVPLG03,sg,20251104-122400,1.0.1,20251020-085245,734,Experiment,Both,1,Automatic,main,20,20251104-122800,global,global,300,H,H,A,E,H-A.png,H-E.png,hH,hH,mask-1.png,mask-1.png,h,1,0.662528800079599,s,0,1.0178841999731958,0.04769859998486936,0.04710739990696311,0.10091849998570979,0.0993372998200357,0.300735300173983
RSVPLG03,sg,20251104-122400,1.0.1,20251020-085245,734,Experiment,Both,1,Automatic,main,21,20251104-122805,global,global,300,S,H,E,A,S-E.png,H-A.png,sS,hH,mask-1.png,mask-2.png,s,1,0.42880049999803305,h,1,0.3472701997961849,0.04756900016218424,0.04754599998705089,0.09857810009270906,0.10165329999290407,0.2988960000220686
RSVPLG03,sg,20251104-122400,1.0.1,20251020-085245,734,Experiment,Both,1,Automatic,main,22,20251104-122810,local,global,750,H,S,A,E,A-H.png,S-E.png,hH,sS,mask-2.png,mask-2.png,h,1,1.2363380000460893,h,0,0.24499160004779696,0.04683979996480048,0.048590300139039755,0.10084199998527765,0.10165080009028316,0.7506686998531222
RSVPLG03,sg,20251104-122400,1.0.1,20251020-085245,734,Experiment,Both,1,Automatic,main,23,20251104-122815,local,global,750,H,S,E,A,E-H.png,S-A.png,hH,sS,mask-3.png,mask-4.png,s,0,0.34455449995584786,s,1,0.3105764000210911,0.0478167999535799,0.04781099990941584,0.0999279001262039,0.10023640003055334,0.7522881000768393
RSVPLG03,sg,20251104-122400,1.0.1,20251020-085245,734,Experiment,Both,1,Automatic,main,24,20251104-122820,global,local,750,S,H,E,E,S-E.png,E-H.png,sS,hH,mask-3.png,mask-4.png,s,1,0.4559667999856174,h,1,0.986752999946475,0.048501999815925956,0.04766739998012781,0.10152049991302192,0.09888359997421503,0.7533311999868602
RSVPLG03,sg,20251104-122400,1.0.1,20251020-085245,734,Experiment,Both,1,Automatic,main,25,20251104-122826,global,local,750,S,H,A,E,S-A.png,E-H.png,sS,hH,mask-1.png,mask-4.png,s,1,0.5001972999889404,h,1,0.3141334999818355,0.04771219985559583,0.04883360001258552,0.10074199992232025,0.10101290000602603,0.7511495999060571
RSVPLG03,sg,20251104-122400,1.0.1,20251020-085245,734,Experiment,Both,1,Automatic,main,26,20251104-122835,local,global,750,S,H,E,E,E-S.png,H-E.png,sS,hH,mask-4.png,mask-1.png,s,1,0.5506188999861479,h,1,0.3446452999487519,0.04765630001202226,0.0486540999263525,0.09985810006037354,0.1018594999331981,0.7507472999859601
RSVPLG03,sg,20251104-122400,1.0.1,20251020-085245,734,Experiment,Both,1,Automatic,main,27,20251104-122840,local,local,300,H,S,E,E,E-H.png,E-S.png,hH,sS,mask-4.png,mask-2.png,s,0,0.5872208001092076,s,1,0.378725899849087,0.04807040002197027,0.047951400047168136,0.10020529991015792,0.10007390007376671,0.30012309993617237
RSVPLG03,sg,20251104-122400,1.0.1,20251020-085245,734,Experiment,Both,1,Automatic,main,28,20251104-122845,global,global,750,H,H,A,A,H-A.png,H-A.png,hH,hH,mask-4.png,mask-4.png,h,1,0.7908105999231339,h,1,0.3098964998498559,0.04767920006997883,0.046084700152277946,0.09986350010149181,0.09827399998903275,0.7520290999673307
RSVPLG03,sg,20251104-122400,1.0.1,20251020-085245,734,Experiment,Both,1,Automatic,main,29,20251104-122850,local,global,750,S,H,E,E,E-S.png,H-E.png,sS,hH,mask-3.png,mask-2.png,s,1,0.5338562000542879,h,1,0.39377850014716387,0.04865549993701279,0.046673799864947796,0.1008494000416249,0.10086539993062615,0.7518678000196815
RSVPLG03,sg,20251104-122400,1.0.1,20251020-085245,734,Experiment,Both,1,Automatic,main,30,20251104-122855,global,global,750,H,H,E,A,H-E.png,H-A.png,hH,hH,mask-1.png,mask-2.png,h,1,0.5232349999714643,h,1,0.523326399968937,0.046872299863025546,0.046370500000193715,0.10017440002411604,0.10021459986455739,0.7523531999904662
RSVPLG03,sg,20251104-122400,1.0.1,20251020-085245,734,Experiment,Both,1,Automatic,main,31,20251104-122900,global,local,300,S,H,A,A,S-A.png,A-H.png,sS,hH,mask-4.png,mask-3.png,s,1,0.9888954998459667,h,1,0.42539400001987815,0.047517400002107024,0.047498099971562624,0.09952350007370114,0.10052390000782907,0.3002126000355929
RSVPLG03,sg,20251104-122400,1.0.1,20251020-085245,734,Experiment,Both,1,Automatic,main,32,20251104-122906,global,global,300,S,H,A,A,S-A.png,H-A.png,sS,hH,mask-4.png,mask-3.png,s,1,1.638339700177312,s,0,0.28422700008377433,0.04651169991120696,0.04755520005710423,0.10052139987237751,0.10156280011869967,0.2997669999022037
RSVPLG03,sg,20251104-122400,1.0.1,20251020-085245,734,Experiment,Both,1,Automatic,main,33,20251104-122911,local,global,300,S,H,E,A,E-S.png,H-A.png,sS,hH,mask-2.png,mask-2.png,s,1,0.9040146998595446,h,1,0.3172593000344932,0.04750859993509948,0.04851930006407201,0.10050299996510148,0.10150670004077256,0.3007612999062985
RSVPLG03,sg,20251104-122400,1.0.1,20251020-085245,734,Experiment,Both,1,Automatic,main,34,20251104-122916,local,local,750,H,H,E,E,E-H.png,E-H.png,hH,hH,mask-1.png,mask-2.png,s,0,1.0126835000701249,h,1,1.4389396999031305,0.04871989996172488,0.04868949996307492,0.10090190009213984,0.09988979995250702,0.7515122999902815
RSVPLG03,sg,20251104-122400,1.0.1,20251020-085245,734,Experiment,Both,1,Automatic,main,35,20251104-122923,global,global,750,S,H,E,A,S-E.png,H-A.png,sS,hH,mask-2.png,mask-3.png,s,1,0.7752819999586791,h,1,0.30134980008006096,0.04849060019478202,0.047533500008285046,0.09974290011450648,0.09853140008635819,0.7528995000757277
RSVPLG03,sg,20251104-122400,1.0.1,20251020-085245,734,Experiment,Both,1,Automatic,main,36,20251104-122928,global,global,300,H,H,A,A,H-A.png,H-A.png,hH,hH,mask-4.png,mask-1.png,h,1,0.6450529000721872,h,1,0.3090516999363899,0.04750980017706752,0.046549800084903836,0.10049840016290545,0.0995531000662595,0.30078960000537336
RSVPLG03,sg,20251104-122400,1.0.1,20251020-085245,734,Experiment,Both,1,Automatic,main,37,20251104-122933,local,global,750,H,H,A,A,A-H.png,H-A.png,hH,hH,mask-1.png,mask-4.png,h,1,0.5844312999397516,h,1,0.4097545000258833,0.047465299954637885,0.04849159996956587,0.0996822000015527,0.09948889981023967,0.7521699999924749
RSVPLG03,sg,20251104-122400,1.0.1,20251020-085245,734,Experiment,Both,1,Automatic,main,38,20251104-122938,global,global,300,H,S,E,E,H-E.png,S-E.png,hH,sS,mask-2.png,mask-1.png,h,1,1.5975373000837862,s,1,0.25998439989052713,0.04857520014047623,0.046479899901896715,0.09953960007987916,0.09946519997902215,0.30159960011951625
RSVPLG03,sg,20251104-122400,1.0.1,20251020-085245,734,Experiment,Both,1,Automatic,main,39,20251104-122943,global,global,300,H,S,A,E,H-A.png,S-E.png,hH,sS,mask-3.png,mask-1.png,h,1,0.7306463001295924,s,1,0.2631649000104517,0.04750930005684495,0.047526200069114566,0.10151790012605488,0.09953120001591742,0.3017911999486387
RSVPLG03,sg,20251104-122400,1.0.1,20251020-085245,734,Experiment,Both,1,Automatic,main,40,20251104-122948,local,global,300,H,S,E,A,E-H.png,S-A.png,hH,sS,mask-2.png,mask-2.png,h,1,0.7668086998164654,s,1,0.4898322999943048,0.04750930005684495,0.048496800009161234,0.10049870004877448,0.10063769994303584,0.2997411999385804
RSVPLG03,sg,20251104-122400,1.0.1,20251020-085245,734,Experiment,Both,1,Automatic,main,41,20251104-122953,local,local,750,H,S,A,A,A-H.png,A-S.png,hH,sS,mask-3.png,mask-2.png,h,1,0.6796488000545651,s,1,0.2608531001023948,0.047485100105404854,0.046825099969282746,0.10046129999682307,0.09968099999241531,0.7516689000185579
RSVPLG03,sg,20251104-122400,1.0.1,20251020-085245,734,Experiment,Both,1,Automatic,main,42,20251104-122958,local,global,750,H,H,A,A,A-H.png,H-A.png,hH,hH,mask-3.png,mask-2.png,h,1,1.1087026000022888,s,0,0.2155096000060439,0.04866780014708638,0.04684959980659187,0.09987020003609359,0.10051080002449453,0.7519623001571745
RSVPLG03,sg,20251104-122400,1.0.1,20251020-085245,734,Experiment,Both,1,Automatic,main,43,20251104-123004,local,global,300,S,S,A,E,A-S.png,S-E.png,sS,sS,mask-4.png,mask-3.png,h,0,0.6701846998184919,s,1,0.25220649992115796,0.0475486998911947,0.047506900038570166,0.09855189989320934,0.10051960009150207,0.29987119999714196
RSVPLG03,sg,20251104-122400,1.0.1,20251020-085245,734,Experiment,Both,1,Automatic,main,44,20251104-123008,local,global,300,S,H,A,E,A-S.png,H-E.png,sS,hH,mask-3.png,mask-3.png,h,0,2.3614836998749524,s,0,0.23737460002303123,0.04669860005378723,0.04853900009766221,0.09982850006781518,0.10064740013331175,0.30029619997367263
RSVPLG03,sg,20251104-122400,1.0.1,20251020-085245,734,Experiment,Both,1,Automatic,main,45,20251104-123015,local,local,750,H,H,A,A,A-H.png,A-H.png,hH,hH,mask-3.png,mask-3.png,h,1,0.6022707000374794,s,0,0.24743500002659857,0.048738300101831555,0.04771779989823699,0.10094209993258119,0.0999350999481976,0.7515183000359684
RSVPLG03,sg,20251104-122400,1.0.1,20251020-085245,734,Experiment,Both,1,Automatic,main,46,20251104-123020,global,local,300,S,S,E,A,S-E.png,A-S.png,sS,sS,mask-3.png,mask-3.png,s,1,1.1814203998073936,h,0,0.2957621000241488,0.04750640015117824,0.04757880000397563,0.09954600012861192,0.09959929995238781,0.3001036001369357
RSVPLG03,sg,20251104-122400,1.0.1,20251020-085245,734,Experiment,Both,1,Automatic,main,47,20251104-123025,local,local,750,H,H,A,E,A-H.png,E-H.png,hH,hH,mask-3.png,mask-4.png,h,1,0.7132967999204993,s,0,0.3584408999886364,0.04750290000811219,0.046018100110813975,0.1005142000503838,0.10024979989975691,0.7524288001004606
RSVPLG03,sg,20251104-122400,1.0.1,20251020-085245,734,Experiment,Both,1,Automatic,main,48,20251104-123030,global,global,750,H,S,A,A,H-A.png,S-A.png,hH,sS,mask-1.png,mask-4.png,h,1,0.8723011999391019,s,1,0.2665232999715954,0.046711800154298544,0.04764120001345873,0.09891390008851886,0.09981839987449348,0.7516245001461357
RSVPLG03,sg,20251104-122400,1.0.1,20251020-085245,734,Experiment,Both,1,Automatic,main,49,20251104-123036,local,global,750,S,H,E,A,E-S.png,H-A.png,sS,hH,mask-2.png,mask-2.png,s,1,1.6243994999676943,h,1,0.16934100002981722,0.04733860003761947,0.04850929998792708,0.10032300022430718,0.09951739991083741,0.751927100121975
RSVPLG03,sg,20251104-122400,1.0.1,20251020-085245,734,Experiment,Both,1,Automatic,main,50,20251104-123042,local,local,300,S,H,E,A,E-S.png,A-H.png,sS,hH,mask-1.png,mask-1.png,s,1,0.9197871999349445,h,1,0.2960123000666499,0.047622199868783355,0.04869910003617406,0.09981639985926449,0.09992969990707934,0.3004467999562621
RSVPLG03,sg,20251104-122400,1.0.1,20251020-085245,734,Experiment,Both,1,Automatic,main,51,20251104-123102,global,local,300,H,H,E,A,H-E.png,A-H.png,hH,hH,mask-4.png,mask-3.png,h,1,0.40435600001364946,s,0,0.2030833000317216,0.047671099891886115,0.047674600034952164,0.09976909984834492,0.10074160015210509,0.2993653998710215
RSVPLG03,sg,20251104-122400,1.0.1,20251020-085245,734,Experiment,Both,1,Automatic,main,52,20251104-123106,local,local,300,S,H,A,E,A-S.png,E-H.png,sS,hH,mask-1.png,mask-4.png,s,1,1.2927549998275936,h,1,0.23291339981369674,0.047739299945533276,0.04647179995663464,0.09993369993753731,0.10035399999469519,0.30028340010903776
RSVPLG03,sg,20251104-122400,1.0.1,20251020-085245,734,Experiment,Both,1,Automatic,main,53,20251104-123112,global,local,300,H,S,E,E,H-E.png,E-S.png,hH,sS,mask-3.png,mask-1.png,h,1,0.48480079998262227,s,1,0.35897059994749725,0.047642000019550323,0.04724049987271428,0.09954420011490583,0.1004229998216033,0.2999017001129687
RSVPLG03,sg,20251104-122400,1.0.1,20251020-085245,734,Experiment,Both,1,Automatic,main,54,20251104-123116,local,global,300,H,S,E,A,E-H.png,S-A.png,hH,sS,mask-2.png,mask-3.png,h,1,0.5106826999690384,s,1,0.29890030017122626,0.04756540013477206,0.04757399996742606,0.09907590015791357,0.10134120006114244,0.29995260015130043
RSVPLG03,sg,20251104-122400,1.0.1,20251020-085245,734,Experiment,Both,1,Automatic,main,55,20251104-123121,global,local,300,H,S,A,E,H-A.png,E-S.png,hH,sS,mask-2.png,mask-4.png,h,1,0.8875059999991208,s,1,0.1983417000155896,0.0463814998511225,0.048692299984395504,0.10024109994992614,0.10001339996233582,0.3000948999542743
RSVPLG03,sg,20251104-122400,1.0.1,20251020-085245,734,Experiment,Both,1,Automatic,main,56,20251104-123126,global,global,300,H,H,E,E,H-E.png,H-E.png,hH,hH,mask-2.png,mask-2.png,h,1,0.6429266999475658,h,1,0.272310100030154,0.04860290000215173,0.046628199983388186,0.10078900004737079,0.09980169986374676,0.3013838999904692
RSVPLG03,sg,20251104-122400,1.0.1,20251020-085245,734,Experiment,Both,1,Automatic,main,57,20251104-123130,global,global,300,H,S,E,A,H-E.png,S-A.png,hH,sS,mask-3.png,mask-2.png,h,1,0.4569788998924196,s,1,0.3016776000149548,0.046547200065106153,0.047743599861860275,0.09975110017694533,0.09989979979582131,0.2996204001829028
RSVPLG03,sg,20251104-122400,1.0.1,20251020-085245,734,Experiment,Both,1,Automatic,main,58,20251104-123135,local,local,750,S,H,E,E,E-S.png,E-H.png,sS,hH,mask-3.png,mask-1.png,s,1,0.6088789000641555,s,0,0.2394884000532329,0.048533600056543946,0.04751550010405481,0.1005577000323683,0.10052239987999201,0.7527815999928862
RSVPLG03,sg,20251104-122400,1.0.1,20251020-085245,734,Experiment,Both,1,Automatic,main,59,20251104-123140,global,local,300,S,H,A,E,S-A.png,E-H.png,sS,hH,mask-1.png,mask-2.png,s,1,0.37873710016719997,s,0,0.4444949999451637,0.047521800035610795,0.04753149999305606,0.10059830010868609,0.10161900008097291,0.29988780012354255
RSVPLG03,sg,20251104-122400,1.0.1,20251020-085245,734,Experiment,Both,1,Automatic,main,60,20251104-123145,global,local,750,S,S,A,E,S-A.png,E-S.png,sS,sS,mask-1.png,mask-1.png,s,1,0.8624714999459684,s,1,0.2633742999751121,0.04757439997047186,0.047520700143650174,0.10056839999742806,0.1005337000824511,0.7518966998904943
RSVPLG03,sg,20251104-122400,1.0.1,20251020-085245,734,Experiment,Both,1,Automatic,main,61,20251104-123150,global,local,300,H,H,A,E,H-A.png,E-H.png,hH,hH,mask-3.png,mask-1.png,s,0,1.1437647000420839,h,1,0.1982994000427425,0.047508199932053685,0.04767520003952086,0.09953149990178645,0.10085840011015534,0.29968709987588227
RSVPLG03,sg,20251104-122400,1.0.1,20251020-085245,734,Experiment,Both,1,Automatic,main,62,20251104-123155,global,global,300,H,H,E,E,H-E.png,H-E.png,hH,hH,mask-4.png,mask-4.png,h,1,0.44774520001374185,h,1,0.32737970002926886,0.04762349999509752,0.04750009998679161,0.10066900006495416,0.10149449994787574,0.30092189996503294
RSVPLG03,sg,20251104-122400,1.0.1,20251020-085245,734,Experiment,Both,1,Automatic,main,63,20251104-123159,local,local,750,S,S,A,A,A-S.png,A-S.png,sS,sS,mask-4.png,mask-3.png,s,1,0.8420498000923544,h,0,0.24186019995249808,0.04767270013689995,0.04771369998343289,0.09985879994928837,0.09995549987070262,0.7507158000953496
RSVPLG03,sg,20251104-122400,1.0.1,20251020-085245,734,Experiment,Both,1,Automatic,main,64,20251104-123205,global,global,300,H,S,A,E,H-A.png,S-E.png,hH,sS,mask-3.png,mask-2.png,h,1,1.2153487999457866,s,1,0.1467521998565644,0.048685000045225024,0.04770620004273951,0.10092150000855327,0.09974170010536909,0.3016617998946458
RSVPLG03,sg,20251104-122400,1.0.1,20251020-085245,734,Experiment,Both,1,Automatic,main,65,20251104-123210,local,global,300,H,S,A,A,A-H.png,S-A.png,hH,sS,mask-4.png,mask-2.png,h,1,0.8102683001197875,s,1,0.6143104999791831,0.04751659999601543,0.04669779981486499,0.10051799984648824,0.09978719986975193,0.29978340002708137
RSVPLG03,sg,20251104-122400,1.0.1,20251020-085245,734,Experiment,Both,1,Automatic,main,66,20251104-123215,local,global,750,H,H,E,E,E-H.png,H-E.png,hH,hH,mask-4.png,mask-2.png,h,1,0.5842310998123139,s,0,0.4315055999904871,0.04664789978414774,0.046513599809259176,0.10054549993947148,0.1004562999587506,0.7512676999904215
RSVPLG03,sg,20251104-122400,1.0.1,20251020-085245,734,Experiment,Both,1,Automatic,main,67,20251104-123220,global,local,300,S,H,A,E,S-A.png,E-H.png,sS,hH,mask-3.png,mask-4.png,s,1,0.5184599000494927,h,1,0.7822453998960555,0.046536500100046396,0.04750339989550412,0.0996399000287056,0.09953180002048612,0.29982180008664727
RSVPLG03,sg,20251104-122400,1.0.1,20251020-085245,734,Experiment,Both,1,Automatic,main,68,20251104-123225,local,local,300,H,S,A,A,A-H.png,A-S.png,hH,sS,mask-2.png,mask-4.png,h,1,0.6457015001215041,s,1,0.2771137000527233,0.04751309985294938,0.047511399956420064,0.09848059993237257,0.1005824999883771,0.299790799850598
RSVPLG03,sg,20251104-122400,1.0.1,20251020-085245,734,Experiment,Both,1,Automatic,main,69,20251104-123230,local,global,750,H,S,A,A,A-H.png,S-A.png,hH,sS,mask-4.png,mask-2.png,h,1,1.2563958000391722,s,1,0.3001733999699354,0.04850040003657341,0.04573290003463626,0.10052639991044998,0.0988310999237001,0.7535610999912024
RSVPLG03,sg,20251104-122400,1.0.1,20251020-085245,734,Experiment,Both,1,Automatic,main,70,20251104-123236,global,local,750,H,H,A,A,H-A.png,A-H.png,hH,hH,mask-2.png,mask-4.png,h,1,0.4934378999751061,h,1,0.3128022002056241,0.04767220001667738,0.04699090006761253,0.10180569998919964,0.09918370004743338,0.7524524999316782
RSVPLG03,sg,20251104-122400,1.0.1,20251020-085245,734,Experiment,Both,1,Automatic,main,71,20251104-123241,local,local,300,S,S,A,A,A-S.png,A-S.png,sS,sS,mask-1.png,mask-1.png,h,0,0.6710948999971151,h,0,0.30036450014449656,0.04755389993079007,0.04864059993997216,0.10056459996849298,0.1006595001090318,0.2992308000102639
RSVPLG03,sg,20251104-122400,1.0.1,20251020-085245,734,Experiment,Both,1,Automatic,main,72,20251104-123245,global,local,750,H,H,E,E,H-E.png,E-H.png,hH,hH,mask-4.png,mask-1.png,s,0,0.8648207001388073,s,0,1.6081042001023889,0.04671090003103018,0.047674200031906366,0.10001279995776713,0.10189139982685447,0.749702800065279
RSVPLG03,sg,20251104-122400,1.0.1,20251020-085245,734,Experiment,Both,1,Automatic,main,73,20251104-123252,local,global,300,H,S,E,A,E-H.png,S-A.png,hH,sS,mask-2.png,mask-2.png,h,1,1.1596390998456627,s,1,0.418967799982056,0.048504000063985586,0.04731609998270869,0.10057080001570284,0.10081980004906654,0.3005486000329256
RSVPLG03,sg,20251104-122400,1.0.1,20251020-085245,734,Experiment,Both,1,Automatic,main,74,20251104-123257,global,local,300,H,S,A,A,H-A.png,A-S.png,hH,sS,mask-4.png,mask-2.png,h,1,0.8510148001369089,s,1,0.524177499813959,0.048730599926784635,0.047104099998250604,0.10078689991496503,0.10031139990314841,0.3011769000440836
RSVPLG03,sg,20251104-122400,1.0.1,20251020-085245,734,Experiment,Both,1,Automatic,main,75,20251104-123302,local,local,300,S,S,A,E,A-S.png,E-S.png,sS,sS,mask-1.png,mask-2.png,h,0,0.5305049000307918,s,1,0.3972811000421643,0.0475600000936538,0.04746000003069639,0.09865150018595159,0.10068010003305972,0.3001924999989569
RSVPLG03,sg,20251104-122400,1.0.1,20251020-085245,734,Experiment,Both,1,Automatic,main,76,20251104-123316,local,global,750,S,H,E,A,E-S.png,H-A.png,sS,hH,mask-4.png,mask-1.png,s,1,0.3292763999197632,h,1,0.4081032001413405,0.048941700020805,0.046606999821960926,0.09999130014330149,0.099710299866274,0.7524978001601994
RSVPLG03,sg,20251104-122400,1.0.1,20251020-085245,734,Experiment,Both,1,Automatic,main,77,20251104-123321,global,global,300,H,H,E,A,H-E.png,H-A.png,hH,hH,mask-3.png,mask-1.png,h,1,0.5028598001226783,h,1,0.5207577000837773,0.04649249999783933,0.04750650003552437,0.09873350011184812,0.1006127002183348,0.2990957999136299
RSVPLG03,sg,20251104-122400,1.0.1,20251020-085245,734,Experiment,Both,1,Automatic,main,78,20251104-123326,local,local,300,H,S,A,E,A-H.png,E-S.png,hH,sS,mask-4.png,mask-2.png,s,0,0.7634034999646246,h,0,1.157856100006029,0.0474626999348402,0.04749100003391504,0.10045919986441731,0.10150759993121028,0.30071619991213083
RSVPLG03,sg,20251104-122400,1.0.1,20251020-085245,734,Experiment,Both,1,Automatic,main,79,20251104-123331,global,global,750,H,S,A,A,H-A.png,S-A.png,hH,sS,mask-1.png,mask-4.png,h,1,0.8020219001919031,s,1,0.3347263000905514,0.04770600004121661,0.04628289979882538,0.09975440008565784,0.09993219980970025,0.7517248000949621
RSVPLG03,sg,20251104-122400,1.0.1,20251020-085245,734,Experiment,Both,1,Automatic,main,80,20251104-123336,global,local,300,S,H,E,E,S-E.png,E-H.png,sS,hH,mask-3.png,mask-2.png,s,1,1.0133716999553144,s,0,1.0933344000950456,0.04742800001986325,0.04801909998059273,0.10027020005509257,0.10106680006720126,0.2996479000430554
RSVPLG03,sg,20251104-122400,1.0.1,20251020-085245,734,Experiment,Both,1,Automatic,main,81,20251104-123342,global,global,750,S,S,A,A,S-A.png,S-A.png,sS,sS,mask-3.png,mask-1.png,s,1,0.4087531000841409,s,1,0.32115520001389086,0.04751230007968843,0.04759630002081394,0.09852020000107586,0.10081820003688335,0.7499315000604838
RSVPLG03,sg,20251104-122400,1.0.1,20251020-085245,734,Experiment,Both,1,Automatic,main,82,20251104-123347,global,local,750,S,S,A,A,S-A.png,A-S.png,sS,sS,mask-4.png,mask-3.png,s,1,0.5987366000190377,h,0,0.3533179999794811,0.047497599851340055,0.04749679984524846,0.10042379982769489,0.09859910001978278,0.7516501999925822
RSVPLG03,sg,20251104-122400,1.0.1,20251020-085245,734,Experiment,Both,1,Automatic,main,83,20251104-123352,local,global,750,H,H,E,A,E-H.png,H-A.png,hH,hH,mask-4.png,mask-2.png,s,0,0.4005942000076175,s,0,0.37843520008027554,0.04815839999355376,0.047499399865046144,0.10038689989596605,0.10048409993760288,0.7522867999505252
RSVPLG03,sg,20251104-122400,1.0.1,20251020-085245,734,Experiment,Both,1,Automatic,main,84,20251104-123357,local,local,750,S,S,A,A,A-S.png,A-S.png,sS,sS,mask-4.png,mask-2.png,h,0,1.9204419001471251,h,0,0.19716939982026815,0.048546499805524945,0.04753870004788041,0.09963639988563955,0.10140129993669689,0.7511427998542786
RSVPLG03,sg,20251104-122400,1.0.1,20251020-085245,734,Experiment,Both,1,Automatic,main,85,20251104-123404,global,local,750,S,H,A,E,S-A.png,E-H.png,sS,hH,mask-4.png,mask-1.png,s,1,0.7974783999379724,s,0,0.4184445000719279,0.04738020012155175,0.04749249992892146,0.10034330002963543,0.09944969997741282,0.7509460002183914
RSVPLG03,sg,20251104-122400,1.0.1,20251020-085245,734,Experiment,Both,1,Automatic,main,86,20251104-123409,local,local,750,S,S,E,A,E-S.png,A-S.png,sS,sS,mask-3.png,mask-1.png,s,1,0.573125199880451,h,0,0.4136295998468995,0.047532099997624755,0.04748660000041127,0.09958419995382428,0.09948839992284775,0.7514087001327425
RSVPLG03,sg,20251104-122400,1.0.1,20251020-085245,734,Experiment,Both,1,Automatic,main,87,20251104-123415,local,local,300,H,S,A,E,A-H.png,E-S.png,hH,sS,mask-1.png,mask-4.png,h,1,0.9359840000979602,s,1,0.3386756998952478,0.047185099916532636,0.048305399948731065,0.10022579994983971,0.10131200007162988,0.3001337999012321
RSVPLG03,sg,20251104-122400,1.0.1,20251020-085245,734,Experiment,Both,1,Automatic,main,88,20251104-123420,global,local,300,S,H,E,E,S-E.png,E-H.png,sS,hH,mask-4.png,mask-1.png,s,1,0.7772200999315828,h,1,0.31679100007750094,0.04756460012868047,0.046665600035339594,0.09962800005450845,0.10067030019126832,0.3002995999995619
RSVPLG03,sg,20251104-122400,1.0.1,20251020-085245,734,Experiment,Both,1,Automatic,main,89,20251104-123425,local,global,300,H,H,E,A,E-H.png,H-A.png,hH,hH,mask-3.png,mask-3.png,s,0,0.5367433000355959,h,1,0.3711832999251783,0.046754700131714344,0.04656529985368252,0.10086630005389452,0.09889380005188286,0.30072330008260906
RSVPLG03,sg,20251104-122400,1.0.1,20251020-085245,734,Experiment,Both,1,Automatic,main,90,20251104-123429,local,local,750,H,S,A,E,A-H.png,E-S.png,hH,sS,mask-2.png,mask-1.png,h,1,0.9505318999290466,s,1,0.35718760010786355,0.047578300116583705,0.04743189993314445,0.09964799997396767,0.09941340005025268,0.7507627999875695
RSVPLG03,sg,20251104-122400,1.0.1,20251020-085245,734,Experiment,Both,1,Automatic,main,91,20251104-123435,global,global,300,H,S,A,E,H-A.png,S-E.png,hH,sS,mask-1.png,mask-1.png,h,1,0.8323560000862926,s,1,0.30148130003362894,0.0475167001131922,0.04864070005714893,0.0994053001049906,0.09978930000215769,0.3001441000960767
RSVPLG03,sg,20251104-122400,1.0.1,20251020-085245,734,Experiment,Both,1,Automatic,main,92,20251104-123440,global,global,300,H,S,E,A,H-E.png,S-A.png,hH,sS,mask-2.png,mask-3.png,h,1,0.572209200123325,s,1,0.27554719988256693,0.047503799898549914,0.047539500053972006,0.1005144000519067,0.10057900007814169,0.30079509993083775
RSVPLG03,sg,20251104-122400,1.0.1,20251020-085245,734,Experiment,Both,1,Automatic,main,93,20251104-123444,local,local,300,H,S,A,E,A-H.png,E-S.png,hH,sS,mask-1.png,mask-1.png,h,1,0.5869636000134051,s,1,0.31705650012008846,0.04852549987845123,0.047499399865046144,0.10052249999716878,0.09946809988468885,0.3007376999594271
RSVPLG03,sg,20251104-122400,1.0.1,20251020-085245,734,Experiment,Both,1,Automatic,main,94,20251104-123449,global,global,750,H,H,A,A,H-A.png,H-A.png,hH,hH,mask-2.png,mask-1.png,h,1,0.7486931998282671,h,1,0.3604238999541849,0.0475600000936538,0.04860850004479289,0.09968620003201067,0.10162289999425411,0.7504501999355853
RSVPLG03,sg,20251104-122400,1.0.1,20251020-085245,734,Experiment,Both,1,Automatic,main,95,20251104-123454,local,global,300,S,H,E,E,E-S.png,H-E.png,sS,hH,mask-3.png,mask-3.png,s,1,0.7416143000591546,h,1,0.31522969994693995,0.04851650004275143,0.04750299989245832,0.10059150005690753,0.10155439982190728,0.30084280017763376
RSVPLG03,sg,20251104-122400,1.0.1,20251020-085245,734,Experiment,Both,1,Automatic,main,96,20251104-123459,global,local,750,S,H,E,E,S-E.png,E-H.png,sS,hH,mask-4.png,mask-3.png,s,1,0.6643600000534207,h,1,0.34506409987807274,0.048555699875578284,0.04752359981648624,0.10140549996867776,0.09970359993167222,0.7514289000537246
RSVPLG03,sg,20251104-122400,1.0.1,20251020-085245,734,Experiment,Both,1,Automatic,main,97,20251104-123504,local,local,750,H,S,E,E,E-H.png,E-S.png,hH,sS,mask-2.png,mask-3.png,h,1,0.7699579000473022,s,1,0.26238139998167753,0.0477976999245584,0.046674299985170364,0.1010018999222666,0.09957839990966022,0.7522169000003487
RSVPLG03,sg,20251104-122400,1.0.1,20251020-085245,734,Experiment,Both,1,Automatic,main,98,20251104-123509,local,global,750,H,H,A,A,A-H.png,H-A.png,hH,hH,mask-1.png,mask-1.png,h,1,0.43051350000314415,h,1,0.3559226000215858,0.048735300078988075,0.047548900125548244,0.10098040010780096,0.1007292999420315,0.7521804000716656
RSVPLG03,sg,20251104-122400,1.0.1,20251020-085245,734,Experiment,Both,1,Automatic,main,99,20251104-123514,global,global,300,H,H,A,A,H-A.png,H-A.png,hH,hH,mask-1.png,mask-1.png,h,1,0.44308670004829764,h,1,0.3362098000943661,0.04874390014447272,0.048742600018158555,0.10114160017110407,0.10098719992674887,0.3007549000903964
RSVPLG03,sg,20251104-122400,1.0.1,20251020-085245,734,Experiment,Both,1,Automatic,main,100,20251104-123519,local,global,300,S,H,A,A,A-S.png,H-A.png,sS,hH,mask-2.png,mask-2.png,h,0,0.7962476001121104,h,1,0.30050379992462695,0.04668909986503422,0.04855390009470284,0.0999121000058949,0.10177089995704591,0.2994023999199271
RSVPLG03,sg,20251104-122400,1.0.1,20251020-085245,734,Experiment,Both,1,Automatic,main,101,20251104-123528,global,global,750,H,S,E,E,H-E.png,S-E.png,hH,sS,mask-1.png,mask-4.png,h,1,0.792806199984625,s,1,0.34763149986974895,0.0485485999379307,0.04658510000444949,0.10077550006099045,0.0996439999435097,0.7525633000768721
RSVPLG03,sg,20251104-122400,1.0.1,20251020-085245,734,Experiment,Both,1,Automatic,main,102,20251104-123534,local,global,300,H,S,A,E,A-H.png,S-E.png,hH,sS,mask-3.png,mask-2.png,h,1,0.6839044000953436,s,1,0.33098840015009046,0.04765750002115965,0.04891190002672374,0.09981259983032942,0.1011695999186486,0.29866519989445806
RSVPLG03,sg,20251104-122400,1.0.1,20251020-085245,734,Experiment,Both,1,Automatic,main,103,20251104-123539,global,local,750,S,H,E,A,S-E.png,A-H.png,sS,hH,mask-4.png,mask-2.png,s,1,0.7461518999189138,h,1,0.4387751000467688,0.04761560005135834,0.047647299943491817,0.09980560000985861,0.10186830000020564,0.7501356999855489
RSVPLG03,sg,20251104-122400,1.0.1,20251020-085245,734,Experiment,Both,1,Automatic,main,104,20251104-123544,local,local,300,S,S,E,A,E-S.png,A-S.png,sS,sS,mask-2.png,mask-1.png,s,1,0.47134710010141134,h,0,0.41121229995042086,0.0476693999953568,0.04870279994793236,0.10185130010358989,0.10090350010432303,0.300681299995631
RSVPLG03,sg,20251104-122400,1.0.1,20251020-085245,734,Experiment,Both,1,Automatic,main,105,20251104-123549,local,local,750,H,H,E,E,E-H.png,E-H.png,hH,hH,mask-2.png,mask-3.png,s,0,0.4373811997938901,s,0,0.3698597000911832,0.04750220011919737,0.04850520007312298,0.0984914000146091,0.10054210014641285,0.7497157000470906
RSVPLG03,sg,20251104-122400,1.0.1,20251020-085245,734,Experiment,Both,1,Automatic,main,106,20251104-123554,global,global,750,S,H,E,A,S-E.png,H-A.png,sS,hH,mask-1.png,mask-3.png,s,1,0.8097830000333488,h,1,0.29807140002958477,0.04728459985926747,0.04783919989131391,0.09930279990658164,0.10013139992952347,0.7503937999717891
RSVPLG03,sg,20251104-122400,1.0.1,20251020-085245,734,Experiment,Both,1,Automatic,main,107,20251104-123559,global,local,750,H,H,E,E,H-E.png,E-H.png,hH,hH,mask-4.png,mask-3.png,h,1,0.8134459001012146,s,0,0.3438250001054257,0.04720799997448921,0.04828709992580116,0.09871950000524521,0.09950489993207157,0.7505054001230747
RSVPLG03,sg,20251104-122400,1.0.1,20251020-085245,734,Experiment,Both,1,Automatic,main,108,20251104-123604,local,local,750,H,S,E,E,E-H.png,E-S.png,hH,sS,mask-3.png,mask-4.png,h,1,0.8825310999527574,s,1,0.3159280999097973,0.04704370000399649,0.04800259997136891,0.09904080000706017,0.10129510005936027,0.7495775998104364
RSVPLG03,sg,20251104-122400,1.0.1,20251020-085245,734,Experiment,Both,1,Automatic,main,109,20251104-123610,global,local,300,H,H,E,E,H-E.png,E-H.png,hH,hH,mask-1.png,mask-4.png,h,1,0.8639184001367539,s,0,0.4414811998140067,0.04753850004635751,0.046560300048440695,0.10054310015402734,0.09955419995822012,0.30080780014395714
RSVPLG03,sg,20251104-122400,1.0.1,20251020-085245,734,Experiment,Both,1,Automatic,main,110,20251104-123615,local,local,300,S,H,A,A,A-S.png,A-H.png,sS,hH,mask-3.png,mask-1.png,h,0,0.7223761000204831,h,1,0.2442393999081105,0.04861539998091757,0.04745689989067614,0.1015854999423027,0.10041760001331568,0.3020351000595838
RSVPLG03,sg,20251104-122400,1.0.1,20251020-085245,734,Experiment,Both,1,Automatic,main,111,20251104-123620,local,local,750,S,S,A,E,A-S.png,E-S.png,sS,sS,mask-1.png,mask-2.png,h,0,0.761416100198403,s,1,0.46389999985694885,0.047362299868837,0.04870279994793236,0.10038729989901185,0.09982659993693233,0.7512119000311941
RSVPLG03,sg,20251104-122400,1.0.1,20251020-085245,734,Experiment,Both,1,Automatic,main,112,20251104-123625,local,global,750,S,H,A,A,A-S.png,H-A.png,sS,hH,mask-2.png,mask-1.png,h,0,0.831214000005275,h,1,0.36206279997713864,0.04657389991916716,0.047493299935013056,0.09954810002818704,0.10050599998794496,0.7511599999852479
RSVPLG03,sg,20251104-122400,1.0.1,20251020-085245,734,Experiment,Both,1,Automatic,main,113,20251104-123630,local,local,750,H,S,A,E,A-H.png,E-S.png,hH,sS,mask-4.png,mask-3.png,h,1,0.7584333000704646,s,1,0.3745919999200851,0.04754119995050132,0.04707400011830032,0.09962560003623366,0.10007179994136095,0.7516874999273568
RSVPLG03,sg,20251104-122400,1.0.1,20251020-085245,734,Experiment,Both,1,Automatic,main,114,20251104-123636,global,global,750,S,S,A,A,S-A.png,S-A.png,sS,sS,mask-2.png,mask-2.png,s,1,0.6757984000723809,s,1,0.2738564000464976,0.04857759992592037,0.04751110007055104,0.09957999992184341,0.10052560013718903,0.750923799816519
RSVPLG03,sg,20251104-122400,1.0.1,20251020-085245,734,Experiment,Both,1,Automatic,main,115,20251104-123641,local,global,300,H,S,A,E,A-H.png,S-E.png,hH,sS,mask-2.png,mask-3.png,h,1,0.9264917001128197,s,1,0.47546599991619587,0.04748579999431968,0.04749669996090233,0.10050850012339652,0.10149869997985661,0.30073060002177954
RSVPLG03,sg,20251104-122400,1.0.1,20251020-085245,734,Experiment,Both,1,Automatic,main,116,20251104-123646,global,local,750,S,H,E,A,S-E.png,A-H.png,sS,hH,mask-4.png,mask-4.png,s,1,0.7724027999211103,s,0,2.8439040000084788,0.04849620000459254,0.04759390000253916,0.10157829988747835,0.1006485999096185,0.7517152999062091
RSVPLG03,sg,20251104-122400,1.0.1,20251020-085245,734,Experiment,Both,1,Automatic,main,117,20251104-123654,global,local,300,H,S,E,E,H-E.png,E-S.png,hH,sS,mask-4.png,mask-3.png,h,1,0.7485194001346827,s,1,0.3311956999823451,0.047498300205916166,0.04750810004770756,0.10149550018832088,0.10150590003468096,0.3007626000326127
RSVPLG03,sg,20251104-122400,1.0.1,20251020-085245,734,Experiment,Both,1,Automatic,main,118,20251104-123659,local,local,300,H,H,A,E,A-H.png,E-H.png,hH,hH,mask-3.png,mask-3.png,h,1,0.827205799985677,s,0,0.3591979001648724,0.04769119992852211,0.047684499993920326,0.0999582998920232,0.0999360999558121,0.2999392000492662
RSVPLG03,sg,20251104-122400,1.0.1,20251020-085245,734,Experiment,Both,1,Automatic,main,119,20251104-123704,local,local,750,S,H,E,A,E-S.png,A-H.png,sS,hH,mask-3.png,mask-3.png,s,1,0.6460140000563115,h,1,0.5823629999067634,0.04751190007664263,0.04752030014060438,0.09953260002657771,0.09955700021237135,0.7523981998674572
RSVPLG03,sg,20251104-122400,1.0.1,20251020-085245,734,Experiment,Both,1,Automatic,main,120,20251104-123709,local,local,300,S,S,E,E,E-S.png,E-S.png,sS,sS,mask-4.png,mask-2.png,s,1,0.6889378998894244,s,1,0.3007612999062985,0.04892760002985597,0.04752429993823171,0.10101779992692173,0.09953349991701543,0.3013484999537468
RSVPLG03,sg,20251104-122400,1.0.1,20251020-085245,734,Experiment,Both,1,Automatic,main,121,20251104-123714,global,global,750,H,H,E,A,H-E.png,H-A.png,hH,hH,mask-4.png,mask-4.png,h,1,0.6846169999334961,h,1,0.34867159998975694,0.04751039994880557,0.047531999880447984,0.0995143000036478,0.10054109990596771,0.7517687000799924
RSVPLG03,sg,20251104-122400,1.0.1,20251020-085245,734,Experiment,Both,1,Automatic,main,122,20251104-123719,global,global,750,H,H,E,E,H-E.png,H-E.png,hH,hH,mask-4.png,mask-1.png,h,1,0.9570589999202639,h,1,0.32384760002605617,0.047543499851599336,0.046795699978247285,0.09889889997430146,0.09962280001491308,0.7511644000187516
RSVPLG03,sg,20251104-122400,1.0.1,20251020-085245,734,Experiment,Both,1,Automatic,main,123,20251104-123724,global,global,750,H,S,A,A,H-A.png,S-A.png,hH,sS,mask-3.png,mask-3.png,h,1,0.6497824999969453,s,1,0.3891386999748647,0.04755700007081032,0.04579990007914603,0.1016015000641346,0.09996649995446205,0.7523892000317574
RSVPLG03,sg,20251104-122400,1.0.1,20251020-085245,734,Experiment,Both,1,Automatic,main,124,20251104-123730,global,global,750,H,H,E,A,H-E.png,H-A.png,hH,hH,mask-2.png,mask-1.png,h,1,0.7409232000354677,h,1,0.3177284998819232,0.04724629991687834,0.04746869998052716,0.10017929994501173,0.10046789981424809,0.7510732000228018
RSVPLG03,sg,20251104-122400,1.0.1,20251020-085245,734,Experiment,Both,1,Automatic,main,125,20251104-123735,local,global,300,H,S,E,A,E-H.png,S-A.png,hH,sS,mask-1.png,mask-3.png,h,1,0.8536648000590503,s,1,0.3280275999568403,0.046738400124013424,0.047631500056013465,0.09998450009152293,0.09987280005589128,0.29982780013233423
RSVPLG03,sg,20251104-123831,1.0.1,20251020-085245,734,Experiment,Both,1,Automatic,warmup,1,20251104-123851,local,global,300,H,H,E,E,E-H.png,H-E.png,hH,hH,mask-1.png,mask-2.png,h,1,0.7380124998744577,s,0,0.4562168999109417,0.04223729996010661,0.04855749988928437,0.09399110008962452,0.10060119978152215,0.29409710015170276
RSVPLG03,sg,20251104-123831,1.0.1,20251020-085245,734,Experiment,Both,1,Automatic,warmup,2,20251104-123856,local,local,300,S,H,E,E,E-S.png,E-H.png,sS,hH,mask-4.png,mask-1.png,s,1,0.5348695998545736,s,0,0.4278996998909861,0.047671600012108684,0.0476801001932472,0.09985719993710518,0.09987720008939505,0.29947829991579056
RSVPLG03,sg,20251104-123831,1.0.1,20251020-085245,734,Experiment,Both,1,Automatic,warmup,3,20251104-123901,global,local,300,S,S,A,A,S-A.png,A-S.png,sS,sS,mask-1.png,mask-1.png,s,1,0.4480174002237618,h,0,0.29031109996140003,0.04671110003255308,0.048862600000575185,0.09880789997987449,0.10176440002396703,0.29843709990382195
RSVPLG03,sg,20251104-123831,1.0.1,20251020-085245,734,Experiment,Both,1,Automatic,warmup,4,20251104-123905,global,global,750,H,H,A,E,H-A.png,H-E.png,hH,hH,mask-1.png,mask-1.png,h,1,0.5728826001286507,h,1,0.24628039984963834,0.04574440000578761,0.04854719992727041,0.09899200010113418,0.10053829988464713,0.7478234001901001
RSVPLG03,sg,20251104-123831,1.0.1,20251020-085245,734,Experiment,Both,1,Automatic,warmup,5,20251104-123910,global,global,300,H,S,A,E,H-A.png,S-E.png,hH,sS,mask-1.png,mask-3.png,h,1,0.9700257999356836,s,1,0.44421899993903935,0.04622299992479384,0.0472870001103729,0.09835149999707937,0.10044660000130534,0.2984459998551756
RSVPLG03,sg,20251104-123831,1.0.1,20251020-085245,734,Experiment,Both,1,Automatic,main,6,20251104-123915,global,global,750,S,S,E,A,S-E.png,S-A.png,sS,sS,mask-1.png,mask-2.png,s,1,0.5721372000407428,s,1,0.26784320012666285,0.047545800218358636,0.04667700012214482,0.09955320018343627,0.10069520003162324,0.7489483000244945
RSVPLG03,sg,20251104-123831,1.0.1,20251020-085245,734,Experiment,Both,1,Automatic,main,7,20251104-123920,global,local,300,S,H,E,A,S-E.png,A-H.png,sS,hH,mask-3.png,mask-1.png,s,1,1.6257966998964548,s,0,0.28365079988725483,0.04563209996558726,0.04651530017144978,0.09965509991161525,0.10062430007383227,0.2993272999301553
RSVPLG03,sg,20251104-123831,1.0.1,20251020-085245,734,Experiment,Both,1,Automatic,main,8,20251104-123926,local,local,750,S,H,A,E,A-S.png,E-H.png,sS,hH,mask-3.png,mask-3.png,s,1,0.606346899876371,s,0,0.42633559997193515,0.04849979979917407,0.04660800006240606,0.10136309987865388,0.09950700006447732,0.7508126997854561
RSVPLG03,sg,20251104-123831,1.0.1,20251020-085245,734,Experiment,Both,1,Automatic,main,9,20251104-123931,local,global,300,H,H,E,E,E-H.png,H-E.png,hH,hH,mask-3.png,mask-3.png,h,1,0.84426339995116,s,0,0.2771224998869002,0.04569709999486804,0.04691270017065108,0.09990520006977022,0.09922920004464686,0.2995356998872012
RSVPLG03,sg,20251104-123831,1.0.1,20251020-085245,734,Experiment,Both,1,Automatic,main,10,20251104-123936,global,local,750,S,S,A,A,S-A.png,A-S.png,sS,sS,mask-3.png,mask-3.png,s,1,0.9991049999371171,h,0,0.2821557999122888,0.046697599813342094,0.047834499971941113,0.09988150000572205,0.10103749996051192,0.7494769999757409
RSVPLG03,sg,20251104-123831,1.0.1,20251020-085245,734,Experiment,Both,1,Automatic,main,11,20251104-123942,local,global,300,S,S,E,E,E-S.png,S-E.png,sS,sS,mask-4.png,mask-4.png,s,1,0.4918750999495387,s,1,0.2758979999925941,0.04942769999615848,0.04878080007620156,0.10040550003759563,0.09997400012798607,0.300844999961555
RSVPLG03,sg,20251104-123831,1.0.1,20251020-085245,734,Experiment,Both,1,Automatic,main,12,20251104-123946,local,global,300,S,H,A,A,A-S.png,H-A.png,sS,hH,mask-3.png,mask-3.png,h,0,0.9032069998793304,h,1,0.15546120004728436,0.04768650000914931,0.04847799986600876,0.10010110004805028,0.10072299977764487,0.2987238001078367
RSVPLG03,sg,20251104-123831,1.0.1,20251020-085245,734,Experiment,Both,1,Automatic,main,13,20251104-123951,global,local,750,S,H,E,E,S-E.png,E-H.png,sS,hH,mask-2.png,mask-2.png,s,1,0.7830656999722123,h,1,0.4121940000914037,0.04683479992672801,0.04672009986825287,0.0999834998510778,0.10007849987596273,0.7494711000472307
RSVPLG03,sg,20251104-123831,1.0.1,20251020-085245,734,Experiment,Both,1,Automatic,main,14,20251104-123957,global,local,300,H,S,E,E,H-E.png,E-S.png,hH,sS,mask-4.png,mask-3.png,h,1,0.9114431999623775,s,1,0.6780313001945615,0.04655720014125109,0.0475832000374794,0.09973719995468855,0.0986739001236856,0.3001524000428617
RSVPLG03,sg,20251104-123831,1.0.1,20251020-085245,734,Experiment,Both,1,Automatic,main,15,20251104-124002,local,local,750,S,H,E,A,E-S.png,A-H.png,sS,hH,mask-3.png,mask-3.png,s,1,0.6436714001465589,h,1,0.32657539984211326,0.04759680014103651,0.04625719995237887,0.0999082000926137,0.09891059994697571,0.7513246000744402
RSVPLG03,sg,20251104-123831,1.0.1,20251020-085245,734,Experiment,Both,1,Automatic,main,16,20251104-124007,global,global,300,S,H,E,A,S-E.png,H-A.png,sS,hH,mask-2.png,mask-2.png,s,1,0.7558698998764157,h,1,0.41848899982869625,0.047683299984782934,0.04603149998001754,0.10088309994898736,0.1002749998588115,0.3015940000768751
RSVPLG03,sg,20251104-123831,1.0.1,20251020-085245,734,Experiment,Both,1,Automatic,main,17,20251104-124012,global,local,300,H,H,A,E,H-A.png,E-H.png,hH,hH,mask-1.png,mask-2.png,h,1,1.1548608001321554,h,1,1.0013429000973701,0.04628070001490414,0.048398799961432815,0.09833700000308454,0.0996016999706626,0.29895219998434186
RSVPLG03,sg,20251104-123831,1.0.1,20251020-085245,734,Experiment,Both,1,Automatic,main,18,20251104-124018,global,local,300,S,H,E,A,S-E.png,A-H.png,sS,hH,mask-4.png,mask-3.png,s,1,0.6998374999966472,h,1,0.4514856000896543,0.046231700107455254,0.04772279993630946,0.09960890002548695,0.09979989985004067,0.29928130004554987
RSVPLG03,sg,20251104-123831,1.0.1,20251020-085245,734,Experiment,Both,1,Automatic,main,19,20251104-124023,global,local,750,S,H,A,E,S-A.png,E-H.png,sS,hH,mask-1.png,mask-3.png,s,1,1.2328164000064135,s,0,0.22973189991898835,0.047697799978777766,0.04764159978367388,0.09974620002321899,0.09989899978972971,0.7495971000753343
RSVPLG03,sg,20251104-123831,1.0.1,20251020-085245,734,Experiment,Both,1,Automatic,main,20,20251104-124029,local,local,750,H,H,A,A,A-H.png,A-H.png,hH,hH,mask-4.png,mask-2.png,h,1,0.5410513000097126,h,1,0.34869599994271994,0.04752779984846711,0.047342400066554546,0.10055079986341298,0.09979450004175305,0.7500012998934835
RSVPLG03,sg,20251104-123831,1.0.1,20251020-085245,734,Experiment,Both,1,Automatic,main,21,20251104-124034,local,local,300,H,H,A,E,A-H.png,E-H.png,hH,hH,mask-2.png,mask-1.png,h,1,1.0984437998849899,s,0,0.3011151000391692,0.0472957999445498,0.047446199925616384,0.09934389987029135,0.10045879986137152,0.29964189999736845
RSVPLG03,sg,20251104-123831,1.0.1,20251020-085245,734,Experiment,Both,1,Automatic,main,22,20251104-124039,local,global,300,S,H,E,A,E-S.png,H-A.png,sS,hH,mask-3.png,mask-3.png,s,1,0.8017969999928027,s,0,1.6730295000597835,0.04683739994652569,0.04851690004579723,0.09990959987044334,0.09953349991701543,0.30022690002806485
RSVPLG03,sg,20251104-123831,1.0.1,20251020-085245,734,Experiment,Both,1,Automatic,main,23,20251104-124045,global,global,300,H,H,A,E,H-A.png,H-E.png,hH,hH,mask-3.png,mask-2.png,h,1,0.7565502999350429,h,1,0.31726550008170307,0.04669380001723766,0.04768760013394058,0.09988419990986586,0.099903300171718,0.3005156998988241
RSVPLG03,sg,20251104-123831,1.0.1,20251020-085245,734,Experiment,Both,1,Automatic,main,24,20251104-124050,local,local,300,S,S,A,E,A-S.png,E-S.png,sS,sS,mask-3.png,mask-3.png,h,0,1.4554190998896956,s,1,0.27587300003506243,0.04705020016990602,0.04777140007354319,0.1000804000068456,0.10080810007639229,0.2993129000533372
RSVPLG03,sg,20251104-123831,1.0.1,20251020-085245,734,Experiment,Both,1,Automatic,main,25,20251104-124056,local,global,750,S,S,A,E,A-S.png,S-E.png,sS,sS,mask-2.png,mask-2.png,h,0,0.8140424999874085,s,1,0.38152400008402765,0.04850570019334555,0.0486849001608789,0.09952230006456375,0.10037040011957288,0.7497990999836475
RSVPLG03,sg,20251104-123831,1.0.1,20251020-085245,734,Experiment,Both,1,Automatic,main,26,20251104-124108,global,local,300,H,S,A,E,H-A.png,E-S.png,hH,sS,mask-4.png,mask-1.png,h,1,0.6341598001308739,s,1,0.3541470000054687,0.047612200025469065,0.047503799898549914,0.10019079991616309,0.09975329996086657,0.29996059997938573
RSVPLG03,sg,20251104-123831,1.0.1,20251020-085245,734,Experiment,Both,1,Automatic,main,27,20251104-124113,global,local,750,H,H,A,E,H-A.png,E-H.png,hH,hH,mask-4.png,mask-2.png,h,1,0.5415812998544425,s,0,0.32403110014274716,0.045727499993517995,0.046693600015714765,0.09892560006119311,0.09888949990272522,0.7501068999990821
RSVPLG03,sg,20251104-123831,1.0.1,20251020-085245,734,Experiment,Both,1,Automatic,main,28,20251104-124118,local,global,750,S,H,A,A,A-S.png,H-A.png,sS,hH,mask-4.png,mask-2.png,s,1,0.5744499999564141,h,1,0.4209102999884635,0.048457799945026636,0.04877970018424094,0.09980409988202155,0.10087620001286268,0.7492235999088734
RSVPLG03,sg,20251104-123831,1.0.1,20251020-085245,734,Experiment,Both,1,Automatic,main,29,20251104-124123,local,global,750,H,H,E,A,E-H.png,H-A.png,hH,hH,mask-2.png,mask-2.png,h,1,1.002988499822095,s,0,0.32245180010795593,0.047716000117361546,0.04836799995973706,0.09875300014391541,0.09956620004959404,0.7489587001036853
RSVPLG03,sg,20251104-123831,1.0.1,20251020-085245,734,Experiment,Both,1,Automatic,main,30,20251104-124128,local,global,300,S,S,A,E,A-S.png,S-E.png,sS,sS,mask-3.png,mask-3.png,h,0,1.2953945000190288,s,1,0.26496629999019206,0.047394099878147244,0.0465255999006331,0.09964159992523491,0.09884199989028275,0.3009031000547111
RSVPLG03,sg,20251104-123831,1.0.1,20251020-085245,734,Experiment,Both,1,Automatic,main,31,20251104-124134,local,local,750,S,H,A,A,A-S.png,A-H.png,sS,hH,mask-2.png,mask-1.png,h,0,0.28575169993564487,s,0,0.34603839996270835,0.045664999866858125,0.048675799975171685,0.09896370000205934,0.09971629991196096,0.7487906999886036
RSVPLG03,sg,20251104-123831,1.0.1,20251020-085245,734,Experiment,Both,1,Automatic,main,32,20251104-124139,global,local,300,H,H,A,A,H-A.png,A-H.png,hH,hH,mask-3.png,mask-3.png,h,1,0.462240899913013,h,1,0.42021080013364553,0.04753679991699755,0.04657369991764426,0.09852809994481504,0.1005623999517411,0.2991742000449449
RSVPLG03,sg,20251104-123831,1.0.1,20251020-085245,734,Experiment,Both,1,Automatic,main,33,20251104-124143,global,global,750,S,S,E,E,S-E.png,S-E.png,sS,sS,mask-3.png,mask-2.png,s,1,0.7641567001119256,s,1,0.3795564998872578,0.04756209999322891,0.047484799986705184,0.10156299988739192,0.09983390010893345,0.7500643997918814
RSVPLG03,sg,20251104-123831,1.0.1,20251020-085245,734,Experiment,Both,1,Automatic,main,34,20251104-124149,local,global,750,H,S,A,E,A-H.png,S-E.png,hH,sS,mask-4.png,mask-3.png,h,1,0.8036752000916749,s,1,0.31019009998999536,0.04758660006336868,0.047529299976304173,0.10065650008618832,0.09964610007591546,0.7507084000390023
RSVPLG03,sg,20251104-123831,1.0.1,20251020-085245,734,Experiment,Both,1,Automatic,main,35,20251104-124154,global,global,300,H,H,E,A,H-E.png,H-A.png,hH,hH,mask-1.png,mask-4.png,h,1,0.9117852000053972,h,1,0.28494319994933903,0.04752840008586645,0.04722269997000694,0.10153720015659928,0.10015369998291135,0.30022830003872514
RSVPLG03,sg,20251104-123831,1.0.1,20251020-085245,734,Experiment,Both,1,Automatic,main,36,20251104-124159,local,global,750,S,S,A,E,A-S.png,S-E.png,sS,sS,mask-1.png,mask-1.png,h,0,0.7650513001717627,s,1,0.42747900006361306,0.047554700169712305,0.04753890004940331,0.09950170014053583,0.0993955999147147,0.7501394001301378
RSVPLG03,sg,20251104-123831,1.0.1,20251020-085245,734,Experiment,Both,1,Automatic,main,37,20251104-124204,global,global,750,S,H,A,E,S-A.png,H-E.png,sS,hH,mask-4.png,mask-4.png,s,1,0.7975067999213934,h,1,0.46922349999658763,0.045508200069889426,0.04752239980734885,0.09952630009502172,0.09952769987285137,0.7498082001693547
RSVPLG03,sg,20251104-123831,1.0.1,20251020-085245,734,Experiment,Both,1,Automatic,main,38,20251104-124210,local,local,750,S,S,A,A,A-S.png,A-S.png,sS,sS,mask-1.png,mask-3.png,h,0,0.6273030999582261,h,0,0.41693100007250905,0.04764349991455674,0.04664280009455979,0.09983840002678335,0.09981520008295774,0.7506561998743564
RSVPLG03,sg,20251104-123831,1.0.1,20251020-085245,734,Experiment,Both,1,Automatic,main,39,20251104-124215,global,global,300,H,H,E,A,H-E.png,H-A.png,hH,hH,mask-1.png,mask-4.png,h,1,0.7870465000160038,h,1,0.6169282998889685,0.04742109985090792,0.04769249982200563,0.10026269988156855,0.09878599992953241,0.3009434000123292
RSVPLG03,sg,20251104-123831,1.0.1,20251020-085245,734,Experiment,Both,1,Automatic,main,40,20251104-124220,global,local,750,S,S,A,A,S-A.png,A-S.png,sS,sS,mask-3.png,mask-1.png,s,1,0.8132907999679446,h,0,0.48824540013447404,0.047711299965158105,0.04867859999649227,0.09991730004549026,0.0998684000223875,0.7505919998511672
RSVPLG03,sg,20251104-123831,1.0.1,20251020-085245,734,Experiment,Both,1,Automatic,main,41,20251104-124226,global,global,300,S,S,A,A,S-A.png,S-A.png,sS,sS,mask-2.png,mask-2.png,s,1,0.7205608999356627,s,1,0.2837814998347312,0.04649180010892451,0.047311299946159124,0.098534099990502,0.09831389994360507,0.30018150014802814
RSVPLG03,sg,20251104-123831,1.0.1,20251020-085245,734,Experiment,Both,1,Automatic,main,42,20251104-124230,global,local,300,S,S,A,E,S-A.png,E-S.png,sS,sS,mask-1.png,mask-2.png,s,1,0.8764471998438239,s,1,0.2977340000215918,0.046539299888536334,0.046536599984392524,0.09981799987144768,0.09969329996965826,0.3000894000288099
RSVPLG03,sg,20251104-123831,1.0.1,20251020-085245,734,Experiment,Both,1,Automatic,main,43,20251104-124235,global,local,750,S,H,E,E,S-E.png,E-H.png,sS,hH,mask-1.png,mask-3.png,s,1,0.8309951999690384,s,0,0.3566401000134647,0.04640290001407266,0.047387100057676435,0.0992415000218898,0.10035070008598268,0.7493096999824047
RSVPLG03,sg,20251104-123831,1.0.1,20251020-085245,734,Experiment,Both,1,Automatic,main,44,20251104-124241,local,global,750,H,S,A,A,A-H.png,S-A.png,hH,sS,mask-1.png,mask-4.png,h,1,0.7426475998945534,s,1,0.37980329990386963,0.04751659999601543,0.0475021000020206,0.0991613999940455,0.10149649996310472,0.7483148002065718
RSVPLG03,sg,20251104-123831,1.0.1,20251020-085245,734,Experiment,Both,1,Automatic,main,45,20251104-124246,local,local,300,H,S,E,E,E-H.png,E-S.png,hH,sS,mask-1.png,mask-1.png,s,0,0.5455690999515355,s,1,0.27792249992489815,0.04753430001437664,0.04747260012663901,0.09952750010415912,0.09847180009819567,0.2997789999935776
RSVPLG03,sg,20251104-123831,1.0.1,20251020-085245,734,Experiment,Both,1,Automatic,main,46,20251104-124251,local,global,750,S,S,E,A,E-S.png,S-A.png,sS,sS,mask-3.png,mask-4.png,s,1,0.5593603001907468,s,1,0.2335350001230836,0.04558670008555055,0.04678929992951453,0.098576599964872,0.09985939995385706,0.7497622000519186
RSVPLG03,sg,20251104-123831,1.0.1,20251020-085245,734,Experiment,Both,1,Automatic,main,47,20251104-124256,local,local,300,H,S,E,A,E-H.png,A-S.png,hH,sS,mask-1.png,mask-4.png,s,0,0.5283703000750393,h,0,0.5939841000363231,0.04869870003312826,0.04565529990941286,0.10046140011399984,0.09985859994776547,0.3018257000949234
RSVPLG03,sg,20251104-123831,1.0.1,20251020-085245,734,Experiment,Both,1,Automatic,main,48,20251104-124301,local,global,300,S,H,A,A,A-S.png,H-A.png,sS,hH,mask-3.png,mask-2.png,s,1,0.8495025997981429,h,1,0.22542129992507398,0.04778139991685748,0.04873119993135333,0.09997229999862611,0.09993699984624982,0.29854049999266863
RSVPLG03,sg,20251104-123831,1.0.1,20251020-085245,734,Experiment,Both,1,Automatic,main,49,20251104-124306,global,local,300,H,S,E,A,H-E.png,A-S.png,hH,sS,mask-4.png,mask-3.png,h,1,1.0411056000739336,h,0,0.2787722998764366,0.04914289992302656,0.047813900047913194,0.1016137998085469,0.10049879993312061,0.3011175999417901
RSVPLG03,sg,20251104-123831,1.0.1,20251020-085245,734,Experiment,Both,1,Automatic,main,50,20251104-124311,local,local,300,H,H,E,A,E-H.png,A-H.png,hH,hH,mask-1.png,mask-2.png,h,1,0.5605611999053508,s,0,0.2836606001947075,0.04754609987139702,0.0472681000828743,0.09938189992681146,0.09957369999028742,0.2995269999373704
RSVPLG03,sg,20251104-123831,1.0.1,20251020-085245,734,Experiment,Both,1,Automatic,main,51,20251104-124326,global,global,300,S,S,E,A,S-E.png,S-A.png,sS,sS,mask-1.png,mask-2.png,s,1,0.40932360012084246,s,1,0.279304499970749,0.047506799921393394,0.04754350008442998,0.09950060001574457,0.10010099993087351,0.2997188998851925
RSVPLG03,sg,20251104-123831,1.0.1,20251020-085245,734,Experiment,Both,1,Automatic,main,52,20251104-124330,global,global,750,H,S,E,E,H-E.png,S-E.png,hH,sS,mask-2.png,mask-4.png,h,1,0.6802924000658095,s,1,0.4092041999101639,0.04873140016570687,0.04774449998512864,0.10094550019130111,0.0999584998935461,0.7506405001040548
RSVPLG03,sg,20251104-123831,1.0.1,20251020-085245,734,Experiment,Both,1,Automatic,main,53,20251104-124336,local,local,300,H,S,A,E,A-H.png,E-S.png,hH,sS,mask-2.png,mask-2.png,h,1,0.7286408999934793,s,1,0.2766146999783814,0.045695200096815825,0.047664700075984,0.09886509994976223,0.09886830020695925,0.2993612999562174
RSVPLG03,sg,20251104-123831,1.0.1,20251020-085245,734,Experiment,Both,1,Automatic,main,54,20251104-124340,local,local,750,H,S,A,E,A-H.png,E-S.png,hH,sS,mask-2.png,mask-1.png,h,1,0.7965736999176443,s,1,0.3365084999240935,0.047771000070497394,0.04763219994492829,0.10002729995176196,0.09985959995537996,0.750006299931556
RSVPLG03,sg,20251104-123831,1.0.1,20251020-085245,734,Experiment,Both,1,Automatic,main,55,20251104-124346,global,local,300,H,S,A,E,H-A.png,E-S.png,hH,sS,mask-4.png,mask-3.png,h,1,0.5462716000620276,s,1,0.29558879998512566,0.04851420014165342,0.04744460014626384,0.1013090000487864,0.10036300006322563,0.30123599991202354
RSVPLG03,sg,20251104-123831,1.0.1,20251020-085245,734,Experiment,Both,1,Automatic,main,56,20251104-124350,local,local,750,H,S,E,A,E-H.png,A-S.png,hH,sS,mask-4.png,mask-2.png,s,0,0.4675154001452029,h,0,0.5937644001096487,0.046630100114271045,0.04655179986730218,0.09947800007648766,0.09956200001761317,0.7500301001127809
RSVPLG03,sg,20251104-123831,1.0.1,20251020-085245,734,Experiment,Both,1,Automatic,main,57,20251104-124356,global,local,750,S,H,A,E,S-A.png,E-H.png,sS,hH,mask-1.png,mask-4.png,h,0,0.6542064999230206,h,1,0.4860195000655949,0.0467550999019295,0.047604599967598915,0.09894880000501871,0.09980379999615252,0.7486453999299556
RSVPLG03,sg,20251104-123831,1.0.1,20251020-085245,734,Experiment,Both,1,Automatic,main,58,20251104-124401,global,global,750,H,H,E,E,H-E.png,H-E.png,hH,hH,mask-1.png,mask-1.png,h,1,0.43320970004424453,h,1,0.35965130012482405,0.046678900020197034,0.047682100208476186,0.09986209985800087,0.09989040018990636,0.7497828998602927
RSVPLG03,sg,20251104-123831,1.0.1,20251020-085245,734,Experiment,Both,1,Automatic,main,59,20251104-124406,global,global,750,S,S,E,A,S-E.png,S-A.png,sS,sS,mask-4.png,mask-3.png,s,1,0.7984647999983281,s,1,0.28985519986599684,0.047531799878925085,0.048613799968734384,0.09978169994428754,0.10064399987459183,0.7486153000500053
RSVPLG03,sg,20251104-123831,1.0.1,20251020-085245,734,Experiment,Both,1,Automatic,main,60,20251104-124411,global,global,750,H,H,E,E,H-E.png,H-E.png,hH,hH,mask-1.png,mask-4.png,h,1,0.9260086000431329,h,1,0.2775765999685973,0.047186499927192926,0.04740160005167127,0.09818559978157282,0.10062830010429025,0.7482150997966528
RSVPLG03,sg,20251104-123831,1.0.1,20251020-085245,734,Experiment,Both,1,Automatic,main,61,20251104-124417,local,local,300,H,H,E,E,E-H.png,E-H.png,hH,hH,mask-1.png,mask-3.png,s,0,1.4509886000305414,h,1,0.36291250004433095,0.04727809992618859,0.04666690016165376,0.09781170007772744,0.10045150015503168,0.2990689999423921
RSVPLG03,sg,20251104-123831,1.0.1,20251020-085245,734,Experiment,Both,1,Automatic,main,62,20251104-124422,local,global,750,S,H,A,E,A-S.png,H-E.png,sS,hH,mask-4.png,mask-3.png,h,0,0.8149427999742329,h,1,0.22784649999812245,0.047594500007107854,0.04656240018084645,0.10165089997462928,0.09972210018895566,0.7515101998578757
RSVPLG03,sg,20251104-123831,1.0.1,20251020-085245,734,Experiment,Both,1,Automatic,main,63,20251104-124427,local,local,300,H,S,A,E,A-H.png,E-S.png,hH,sS,mask-2.png,mask-3.png,h,1,0.6424115002155304,s,1,0.24912169994786382,0.04871400003321469,0.04755730018950999,0.10087409988045692,0.10074660019017756,0.3003242998383939
RSVPLG03,sg,20251104-123831,1.0.1,20251020-085245,734,Experiment,Both,1,Automatic,main,64,20251104-124432,global,global,300,H,H,A,A,H-A.png,H-A.png,hH,hH,mask-2.png,mask-3.png,h,1,0.5203340000007302,h,1,0.27712220000103116,0.04657709994353354,0.04659510008059442,0.09845789987593889,0.09957140008918941,0.2990343999117613
RSVPLG03,sg,20251104-123831,1.0.1,20251020-085245,734,Experiment,Both,1,Automatic,main,65,20251104-124437,local,local,750,H,H,A,A,A-H.png,A-H.png,hH,hH,mask-1.png,mask-3.png,h,1,0.49491310003213584,h,1,0.36466230009682477,0.04666149988770485,0.04649760015308857,0.09984139981679618,0.0994945999700576,0.7503491998650134
RSVPLG03,sg,20251104-123831,1.0.1,20251020-085245,734,Experiment,Both,1,Automatic,main,66,20251104-124442,local,local,300,H,H,A,A,A-H.png,A-H.png,hH,hH,mask-3.png,mask-4.png,h,1,0.4177078001666814,h,1,0.26552389981225133,0.04751729988493025,0.047506900038570166,0.09852999984286726,0.10163210006430745,0.29877409990876913
RSVPLG03,sg,20251104-123831,1.0.1,20251020-085245,734,Experiment,Both,1,Automatic,main,67,20251104-124446,local,global,750,S,S,A,E,A-S.png,S-E.png,sS,sS,mask-3.png,mask-3.png,h,0,0.5416781001258641,h,0,0.348218800034374,0.047557600075379014,0.048543599899858236,0.09956949995830655,0.1005613999441266,0.7490445000585169
RSVPLG03,sg,20251104-123831,1.0.1,20251020-085245,734,Experiment,Both,1,Automatic,main,68,20251104-124451,global,local,300,H,S,E,A,H-E.png,A-S.png,hH,sS,mask-1.png,mask-1.png,h,1,0.5751759000122547,h,0,0.27826869999989867,0.04667459987103939,0.04837130010128021,0.09900789987295866,0.10040000011213124,0.2993051998782903
RSVPLG03,sg,20251104-123831,1.0.1,20251020-085245,734,Experiment,Both,1,Automatic,main,69,20251104-124456,local,local,300,S,S,E,E,E-S.png,E-S.png,sS,sS,mask-4.png,mask-1.png,s,1,0.6186526000965387,s,1,0.20271890005096793,0.047530499985441566,0.046786800026893616,0.09946179995313287,0.09987989999353886,0.29977399995550513
RSVPLG03,sg,20251104-123831,1.0.1,20251020-085245,734,Experiment,Both,1,Automatic,main,70,20251104-124501,local,local,300,H,S,E,E,E-H.png,E-S.png,hH,sS,mask-2.png,mask-3.png,s,0,1.0882374998182058,s,1,0.22042939998209476,0.04788629990071058,0.047677500173449516,0.0992668999824673,0.10086060012690723,0.2999084999319166
RSVPLG03,sg,20251104-123831,1.0.1,20251020-085245,734,Experiment,Both,1,Automatic,main,71,20251104-124506,global,local,750,S,S,E,E,S-E.png,E-S.png,sS,sS,mask-4.png,mask-1.png,s,1,0.6320604998618364,s,1,0.33791300002485514,0.04874409991316497,0.04781459993682802,0.10098570003174245,0.10099689988419414,0.7494210000149906
RSVPLG03,sg,20251104-123831,1.0.1,20251020-085245,734,Experiment,Both,1,Automatic,main,72,20251104-124511,local,global,750,S,H,E,E,E-S.png,H-E.png,sS,hH,mask-2.png,mask-1.png,s,1,0.5770034999586642,h,1,0.29301530006341636,0.046715900069102645,0.04662910010665655,0.10083759995177388,0.09967100014910102,0.7501862999051809
RSVPLG03,sg,20251104-123831,1.0.1,20251020-085245,734,Experiment,Both,1,Automatic,main,73,20251104-124516,global,global,300,S,S,E,A,S-E.png,S-A.png,sS,sS,mask-3.png,mask-2.png,s,1,0.7824629000388086,s,1,0.1785237998701632,0.048625600058585405,0.047624099999666214,0.10111739998683333,0.10061120009049773,0.30135959992185235
RSVPLG03,sg,20251104-123831,1.0.1,20251020-085245,734,Experiment,Both,1,Automatic,main,74,20251104-124521,global,global,300,S,S,A,E,S-A.png,S-E.png,sS,sS,mask-2.png,mask-1.png,s,1,0.704678300069645,s,1,0.27840159996412694,0.04956710012629628,0.048557200003415346,0.10099160019308329,0.0997051999438554,0.30032810010015965
RSVPLG03,sg,20251104-123831,1.0.1,20251020-085245,734,Experiment,Both,1,Automatic,main,75,20251104-124526,global,global,750,H,S,E,E,H-E.png,S-E.png,hH,sS,mask-2.png,mask-3.png,h,1,0.7688986000139266,s,1,0.35497660003602505,0.04757399996742606,0.04852419998496771,0.09901949996128678,0.09986499999649823,0.7500986999366432
RSVPLG03,sg,20251104-123831,1.0.1,20251020-085245,734,Experiment,Both,1,Automatic,main,76,20251104-124536,local,local,300,S,S,A,E,A-S.png,E-S.png,sS,sS,mask-4.png,mask-4.png,h,0,0.609875800088048,s,1,0.2643929999321699,0.048645100090652704,0.04878020007163286,0.1017332999035716,0.10185529990121722,0.29983270005322993
RSVPLG03,sg,20251104-123831,1.0.1,20251020-085245,734,Experiment,Both,1,Automatic,main,77,20251104-124541,local,global,300,H,S,A,A,A-H.png,S-A.png,hH,sS,mask-3.png,mask-3.png,h,1,0.4839413999579847,s,1,0.2682311001699418,0.04851650004275143,0.04927199985831976,0.09853229997679591,0.10038129985332489,0.29892670013941824
RSVPLG03,sg,20251104-123831,1.0.1,20251020-085245,734,Experiment,Both,1,Automatic,main,78,20251104-124545,global,local,750,H,S,A,A,H-A.png,A-S.png,hH,sS,mask-2.png,mask-1.png,h,1,0.5075328999664634,h,0,0.40795370005071163,0.04772990010678768,0.0473297000862658,0.10092250001616776,0.0985914000775665,0.7506500000599772
RSVPLG03,sg,20251104-123831,1.0.1,20251020-085245,734,Experiment,Both,1,Automatic,main,79,20251104-124550,global,local,300,S,H,E,E,S-E.png,E-H.png,sS,hH,mask-1.png,mask-1.png,s,1,0.3727312998380512,s,0,0.2767940000630915,0.047474600141867995,0.04764300002716482,0.09874889999628067,0.0997023000381887,0.30018929997459054
RSVPLG03,sg,20251104-123831,1.0.1,20251020-085245,734,Experiment,Both,1,Automatic,main,80,20251104-124555,local,global,750,S,S,E,E,E-S.png,S-E.png,sS,sS,mask-4.png,mask-3.png,s,1,0.5423822000157088,s,1,0.2675477999728173,0.048576599918305874,0.046497799921780825,0.10168339987285435,0.09856069996021688,0.7519767999183387
RSVPLG03,sg,20251104-123831,1.0.1,20251020-085245,734,Experiment,Both,1,Automatic,main,81,20251104-124600,local,global,300,S,S,E,E,E-S.png,S-E.png,sS,sS,mask-3.png,mask-4.png,s,1,0.7782922000624239,s,1,0.296794299967587,0.04770889994688332,0.04753299988806248,0.1015578000806272,0.10143489995971322,0.2999241000507027
RSVPLG03,sg,20251104-123831,1.0.1,20251020-085245,734,Experiment,Both,1,Automatic,main,82,20251104-124605,global,global,750,S,S,A,E,S-A.png,S-E.png,sS,sS,mask-4.png,mask-1.png,s,1,0.39560010004788637,s,1,0.35528989997692406,0.047671600012108684,0.048687699949368834,0.0990705001167953,0.10084669990465045,0.7489869000855833
RSVPLG03,sg,20251104-123831,1.0.1,20251020-085245,734,Experiment,Both,1,Automatic,main,83,20251104-124610,local,local,750,S,S,E,A,E-S.png,A-S.png,sS,sS,mask-3.png,mask-1.png,s,1,0.7961532999761403,h,0,0.3171975000295788,0.04869459988549352,0.04571390012279153,0.10088559985160828,0.09993660007603467,0.7518501998856664
RSVPLG03,sg,20251104-123831,1.0.1,20251020-085245,734,Experiment,Both,1,Automatic,main,84,20251104-124615,local,global,300,H,S,E,A,E-H.png,S-A.png,hH,sS,mask-2.png,mask-4.png,h,1,0.9918990000151098,s,1,0.27501250011846423,0.04654740006662905,0.04766019992530346,0.09976419992744923,0.09910520003177226,0.29935340001247823
RSVPLG03,sg,20251104-123831,1.0.1,20251020-085245,734,Experiment,Both,1,Automatic,main,85,20251104-124620,global,global,300,S,H,E,A,S-E.png,H-A.png,sS,hH,mask-4.png,mask-1.png,s,1,0.8473328000400215,h,1,0.36783429980278015,0.04654769995249808,0.048720600083470345,0.09977079997770488,0.10091660008765757,0.2987353999633342
RSVPLG03,sg,20251104-123831,1.0.1,20251020-085245,734,Experiment,Both,1,Automatic,main,86,20251104-124625,local,local,300,H,H,A,A,A-H.png,A-H.png,hH,hH,mask-2.png,mask-4.png,h,1,0.8156385999172926,h,1,0.3111278999131173,0.047777599887922406,0.04703769995830953,0.09998090006411076,0.10006680013611913,0.3009349999483675
RSVPLG03,sg,20251104-123831,1.0.1,20251020-085245,734,Experiment,Both,1,Automatic,main,87,20251104-124630,local,global,300,H,S,E,E,E-H.png,S-E.png,hH,sS,mask-2.png,mask-1.png,h,1,1.0338136001955718,s,1,0.2187170998658985,0.047509799944236875,0.04750490002334118,0.1005160000640899,0.10149049991741776,0.2987941999454051
RSVPLG03,sg,20251104-123831,1.0.1,20251020-085245,734,Experiment,Both,1,Automatic,main,88,20251104-124635,local,global,300,H,H,E,A,E-H.png,H-A.png,hH,hH,mask-4.png,mask-1.png,s,0,0.6380370000842959,h,1,0.34781569987535477,0.04851510003209114,0.046497000148519874,0.10151529987342656,0.09950220002792776,0.30176349985413253
RSVPLG03,sg,20251104-123831,1.0.1,20251020-085245,734,Experiment,Both,1,Automatic,main,89,20251104-124640,global,global,750,S,S,A,E,S-A.png,S-E.png,sS,sS,mask-2.png,mask-3.png,s,1,0.681317400187254,s,1,0.3495499000418931,0.04750510002486408,0.04638900002464652,0.09946820000186563,0.09919400000944734,0.7498542999383062
RSVPLG03,sg,20251104-123831,1.0.1,20251020-085245,734,Experiment,Both,1,Automatic,main,90,20251104-124645,global,global,300,S,S,A,A,S-A.png,S-A.png,sS,sS,mask-1.png,mask-3.png,s,1,0.6116597999352962,s,1,0.28510580002330244,0.048569400096312165,0.04753539990633726,0.10058759991079569,0.10051399981603026,0.30038850009441376
RSVPLG03,sg,20251104-123831,1.0.1,20251020-085245,734,Experiment,Both,1,Automatic,main,91,20251104-124650,global,local,300,S,S,A,A,S-A.png,A-S.png,sS,sS,mask-1.png,mask-3.png,h,0,1.1875104999635369,s,1,0.1770365999545902,0.04720199992880225,0.0484981001354754,0.09943949989974499,0.10051830019801855,0.2997408998198807
RSVPLG03,sg,20251104-123831,1.0.1,20251020-085245,734,Experiment,Both,1,Automatic,main,92,20251104-124655,global,local,750,S,H,A,A,S-A.png,A-H.png,sS,hH,mask-1.png,mask-4.png,s,1,0.5351957001257688,h,1,0.6174419999588281,0.04752630018629134,0.04745829990133643,0.10052700014784932,0.0995112000964582,0.7502991000656039
RSVPLG03,sg,20251104-123831,1.0.1,20251020-085245,734,Experiment,Both,1,Automatic,main,93,20251104-124700,local,local,300,H,H,A,A,A-H.png,A-H.png,hH,hH,mask-4.png,mask-1.png,h,1,0.8196435999125242,h,1,0.24736379995010793,0.04566519986838102,0.04866670002229512,0.09989920002408326,0.09981729998253286,0.29874500003643334
RSVPLG03,sg,20251104-123831,1.0.1,20251020-085245,734,Experiment,Both,1,Automatic,main,94,20251104-124705,global,global,750,H,H,A,A,H-A.png,H-A.png,hH,hH,mask-3.png,mask-3.png,h,1,0.6539916000328958,h,1,0.31250419979915023,0.046340599888935685,0.047361299861222506,0.09828200004994869,0.10044769989326596,0.7491528000682592
RSVPLG03,sg,20251104-123831,1.0.1,20251020-085245,734,Experiment,Both,1,Automatic,main,95,20251104-124710,local,global,300,S,H,A,A,A-S.png,H-A.png,sS,hH,mask-1.png,mask-3.png,h,0,0.5173802000936121,h,1,0.2902732000220567,0.047517500119283795,0.04849479999393225,0.0994675001129508,0.10040200012736022,0.2986343000084162
RSVPLG03,sg,20251104-123831,1.0.1,20251020-085245,734,Experiment,Both,1,Automatic,main,96,20251104-124715,local,local,750,H,S,E,E,E-H.png,E-S.png,hH,sS,mask-4.png,mask-2.png,s,0,0.46764890011399984,h,0,0.7801825001370162,0.048666599905118346,0.04761670017614961,0.09986439999192953,0.10172430006787181,0.7494854999240488
RSVPLG03,sg,20251104-123831,1.0.1,20251020-085245,734,Experiment,Both,1,Automatic,main,97,20251104-124720,local,local,750,H,S,E,E,E-H.png,E-S.png,hH,sS,mask-2.png,mask-1.png,h,1,0.8955562999472022,s,1,0.2870921001303941,0.04765719990245998,0.04679950000718236,0.10185700003057718,0.10000310000032187,0.7508030999451876
RSVPLG03,sg,20251104-123831,1.0.1,20251020-085245,734,Experiment,Both,1,Automatic,main,98,20251104-124726,global,local,300,S,H,A,E,S-A.png,E-H.png,sS,hH,mask-4.png,mask-1.png,s,1,0.5498017000500113,h,1,0.3264205998275429,0.04659370006993413,0.047500799875706434,0.09961270005442202,0.101504199905321,0.2988272001966834
RSVPLG03,sg,20251104-123831,1.0.1,20251020-085245,734,Experiment,Both,1,Automatic,main,99,20251104-124730,local,global,300,S,H,E,A,E-S.png,H-A.png,sS,hH,mask-2.png,mask-3.png,h,0,0.8941028998233378,s,0,0.30112829990684986,0.047563300002366304,0.04656839999370277,0.10063639981672168,0.09964859997853637,0.30090489983558655
RSVPLG03,sg,20251104-123831,1.0.1,20251020-085245,734,Experiment,Both,1,Automatic,main,100,20251104-124735,global,global,300,H,H,A,A,H-A.png,H-A.png,hH,hH,mask-3.png,mask-1.png,h,1,0.7168578000273556,h,1,0.3170365998521447,0.04860679991543293,0.0466454999987036,0.10071519995108247,0.10071739996783435,0.30043730000033975
RSVPLG03,sg,20251104-123831,1.0.1,20251020-085245,734,Experiment,Both,1,Automatic,main,101,20251104-124750,global,global,750,S,H,E,A,S-E.png,H-A.png,sS,hH,mask-4.png,mask-1.png,s,1,0.4802727000787854,h,1,0.27294069994241,0.046572300139814615,0.047325000166893005,0.09979919996112585,0.0991799000184983,0.7499965999741107
RSVPLG03,sg,20251104-123831,1.0.1,20251020-085245,734,Experiment,Both,1,Automatic,main,102,20251104-124755,local,local,750,S,H,A,E,A-S.png,E-H.png,sS,hH,mask-4.png,mask-4.png,h,0,0.5598154999315739,h,1,0.5662320000119507,0.046075900085270405,0.04850439983420074,0.09920549998059869,0.10153909982182086,0.7483765000943094
RSVPLG03,sg,20251104-123831,1.0.1,20251020-085245,734,Experiment,Both,1,Automatic,main,103,20251104-124801,global,local,750,H,H,E,A,H-E.png,A-H.png,hH,hH,mask-4.png,mask-2.png,h,1,0.5918873001355678,h,1,0.28886359999887645,0.04761620005592704,0.04784730006940663,0.09979060012847185,0.098243199987337,0.7494940999895334
RSVPLG03,sg,20251104-123831,1.0.1,20251020-085245,734,Experiment,Both,1,Automatic,main,104,20251104-124806,local,local,750,S,S,A,A,A-S.png,A-S.png,sS,sS,mask-3.png,mask-3.png,h,0,0.7171508998144418,h,0,0.3008837001398206,0.04767110012471676,0.04865860007703304,0.09952510008588433,0.10185580002143979,0.748262400040403
RSVPLG03,sg,20251104-123831,1.0.1,20251020-085245,734,Experiment,Both,1,Automatic,main,105,20251104-124811,global,local,300,H,S,A,E,H-A.png,E-S.png,hH,sS,mask-2.png,mask-4.png,h,1,0.6957483999431133,s,1,0.289957599947229,0.047380799893289804,0.04738660017028451,0.10035729990340769,0.10025830008089542,0.2996862998697907
RSVPLG03,sg,20251104-123831,1.0.1,20251020-085245,734,Experiment,Both,1,Automatic,main,106,20251104-124816,global,local,750,H,H,A,E,H-A.png,E-H.png,hH,hH,mask-1.png,mask-3.png,h,1,0.8244409000035375,s,0,0.5247715001460165,0.04853140003979206,0.04708179994486272,0.0994965999852866,0.09997300012037158,0.7501648999750614
RSVPLG03,sg,20251104-123831,1.0.1,20251020-085245,734,Experiment,Both,1,Automatic,main,107,20251104-124821,global,local,750,H,S,E,E,H-E.png,E-S.png,hH,sS,mask-4.png,mask-1.png,h,1,1.4218273002188653,s,1,0.29641099995933473,0.047238900093361735,0.04749440005980432,0.1003910000436008,0.10052990005351603,0.7506587000098079
RSVPLG03,sg,20251104-123831,1.0.1,20251020-085245,734,Experiment,Both,1,Automatic,main,108,20251104-124827,local,global,750,S,H,E,A,E-S.png,H-A.png,sS,hH,mask-2.png,mask-2.png,s,1,0.755632100161165,h,1,0.2943251000251621,0.04746399982832372,0.04869109997525811,0.09861899982206523,0.09968270012177527,0.7486258998978883
RSVPLG03,sg,20251104-123831,1.0.1,20251020-085245,734,Experiment,Both,1,Automatic,main,109,20251104-124832,global,global,300,S,H,A,A,S-A.png,H-A.png,sS,hH,mask-2.png,mask-1.png,s,1,1.6321048000827432,s,0,0.38697470002807677,0.047717100009322166,0.047649099957197905,0.099562699906528,0.10161130013875663,0.29947869991883636
RSVPLG03,sg,20251104-123831,1.0.1,20251020-085245,734,Experiment,Both,1,Automatic,main,110,20251104-124838,global,local,750,H,S,E,A,H-E.png,A-S.png,hH,sS,mask-2.png,mask-2.png,h,1,0.7984779998660088,h,0,0.298513000132516,0.04569569998420775,0.047609500121325254,0.09977560001425445,0.09962640004232526,0.7495362998452038
RSVPLG03,sg,20251104-123831,1.0.1,20251020-085245,734,Experiment,Both,1,Automatic,main,111,20251104-124843,local,global,750,H,H,E,A,E-H.png,H-A.png,hH,hH,mask-1.png,mask-1.png,h,1,0.7285677997861058,h,1,0.2985146001446992,0.04966180003248155,0.049115899950265884,0.10072089987806976,0.10015949979424477,0.7505487001035362
RSVPLG03,sg,20251104-123831,1.0.1,20251020-085245,734,Experiment,Both,1,Automatic,main,112,20251104-124849,global,global,300,S,S,A,E,S-A.png,S-E.png,sS,sS,mask-2.png,mask-2.png,s,1,0.6814252000767738,s,1,0.3159473000559956,0.047551299910992384,0.049100799951702356,0.09860210004262626,0.10109440004453063,0.2983333000447601
RSVPLG03,sg,20251104-123831,1.0.1,20251020-085245,734,Experiment,Both,1,Automatic,main,113,20251104-124853,global,local,750,H,H,A,A,H-A.png,A-H.png,hH,hH,mask-1.png,mask-3.png,h,1,0.7925460000988096,h,1,0.3147128000855446,0.046562999952584505,0.04653430008329451,0.09968780004419386,0.10056849988177419,0.7495703999884427
RSVPLG03,sg,20251104-123831,1.0.1,20251020-085245,734,Experiment,Both,1,Automatic,main,114,20251104-124859,global,global,750,H,S,E,E,H-E.png,S-E.png,hH,sS,mask-1.png,mask-3.png,h,1,0.752041099825874,s,1,0.3917372999712825,0.04766659997403622,0.04692020011134446,0.10084420000202954,0.10011670016683638,0.7501286999322474
RSVPLG03,sg,20251104-123831,1.0.1,20251020-085245,734,Experiment,Both,1,Automatic,main,115,20251104-124904,local,local,300,S,H,E,E,E-S.png,E-H.png,sS,hH,mask-1.png,mask-3.png,s,1,0.7723240999039263,h,1,0.32567849988117814,0.04578549996949732,0.04771899990737438,0.1000173999927938,0.09979390003718436,0.2996117998845875
RSVPLG03,sg,20251104-123831,1.0.1,20251020-085245,734,Experiment,Both,1,Automatic,main,116,20251104-124909,local,local,750,S,H,A,A,A-S.png,A-H.png,sS,hH,mask-4.png,mask-3.png,h,0,0.8971116000320762,h,1,0.36394209996797144,0.04669449990615249,0.04767809994518757,0.09990229993127286,0.09973299992270768,0.7493233000859618
RSVPLG03,sg,20251104-123831,1.0.1,20251020-085245,734,Experiment,Both,1,Automatic,main,117,20251104-124914,local,global,300,S,S,E,E,E-S.png,S-E.png,sS,sS,mask-4.png,mask-2.png,s,1,0.6478086998686194,h,0,0.3630425001028925,0.04625390004366636,0.04770470014773309,0.0989928999915719,0.0999265001155436,0.2988766999915242
RSVPLG03,sg,20251104-123831,1.0.1,20251020-085245,734,Experiment,Both,1,Automatic,main,118,20251104-124919,global,global,300,S,H,A,A,S-A.png,H-A.png,sS,hH,mask-2.png,mask-4.png,s,1,0.6605511999223381,h,1,0.269829299999401,0.047481799963861704,0.04737559985369444,0.09935049992054701,0.10036619985476136,0.299458600115031
RSVPLG03,sg,20251104-123831,1.0.1,20251020-085245,734,Experiment,Both,1,Automatic,main,119,20251104-124924,global,global,750,S,S,E,E,S-E.png,S-E.png,sS,sS,mask-2.png,mask-3.png,s,1,0.47985549992881715,s,1,0.2665271000005305,0.049344300059601665,0.049104400211945176,0.10036109993234277,0.10012489999644458,0.75028539984487
RSVPLG03,sg,20251104-123831,1.0.1,20251020-085245,734,Experiment,Both,1,Automatic,main,120,20251104-124929,local,local,750,H,H,A,A,A-H.png,A-H.png,hH,hH,mask-1.png,mask-3.png,h,1,0.5323572000488639,h,1,0.35287309996783733,0.04673880012705922,0.04769269982352853,0.1000137000810355,0.09973149979487062,0.7489462001249194
RSVPLG03,sg,20251104-123831,1.0.1,20251020-085245,734,Experiment,Both,1,Automatic,main,121,20251104-124934,global,local,300,H,H,A,A,H-A.png,A-H.png,hH,hH,mask-3.png,mask-1.png,h,1,0.2767864998895675,h,1,0.3864792000968009,0.04765040008351207,0.047917400021106005,0.10001750010997057,0.10025350004434586,0.300359999993816
RSVPLG03,sg,20251104-123831,1.0.1,20251020-085245,734,Experiment,Both,1,Automatic,main,122,20251104-124938,local,global,300,S,H,A,A,A-S.png,H-A.png,sS,hH,mask-1.png,mask-4.png,h,0,0.49052440002560616,h,1,0.36174819990992546,0.04749989998526871,0.04755039978772402,0.09955519996583462,0.09959819982759655,0.30003360006958246
