exp,exp_initials,runtime,ver,modtime,sub,blocktype,targets,cuetype,mode,trialtype,trial,trialtime,t1_level,t2_level,t2_lag,t1,t2,distractor1,distractor2,stimfile1,stimfile2,t1_corr,t2_corr,maskfile1,maskfile2,t1_resp,t1_acc,t1_rt,t2_resp,t2_acc,t2_rt,t1_dur,t2_dur,t1mask_soa,t2mask_soa,t1t2_soa
RSVPLG03,md,20251104-100754,1.0.1,20251020-085245,733,Introduction,T1,1,Automatic,main,1,20251104-111443,global,global,750,S,H,A,E,S-A.png,H-E.png,sS,hH,mask-1.png,mask-1.png,h,0,3.149285500170663,none,-5,0,0.09238040004856884,0.09754440002143383,0.19339059991762042,0.20060440013185143,0.7437964999116957
RSVPLG03,md,20251104-100754,1.0.1,20251020-085245,733,Introduction,T1,1,Automatic,main,2,20251104-111450,global,local,750,S,H,A,A,S-A.png,A-H.png,sS,hH,mask-1.png,mask-1.png,s,1,1.5211052999366075,none,-5,0,0.09755319985561073,0.09689659997820854,0.1996583000291139,0.19987350003793836,0.7494174998719245
RSVPLG03,md,20251104-100754,1.0.1,20251020-085245,733,Introduction,T1,1,Automatic,main,3,20251104-111456,global,local,750,H,H,A,A,H-A.png,A-H.png,hH,hH,mask-4.png,mask-3.png,h,1,1.3857773998752236,none,-5,0,0.09721989999525249,0.09844120009802282,0.19820700003765523,0.2004879000596702,0.7488508999813348
RSVPLG03,md,20251104-100754,1.0.1,20251020-085245,733,Introduction,T1,1,Automatic,main,4,20251104-111501,local,local,750,S,S,A,A,A-S.png,A-S.png,sS,sS,mask-2.png,mask-1.png,s,1,0.6693076000083238,none,-5,0,0.09856229997240007,0.09689730009995401,0.1995115999598056,0.2000238001346588,0.7495207998435944
RSVPLG03,md,20251104-100754,1.0.1,20251020-085245,733,Introduction,T1,1,Automatic,main,5,20251104-111506,global,global,750,H,H,E,A,H-E.png,H-A.png,hH,hH,mask-3.png,mask-1.png,h,1,0.46717619989067316,none,-5,0,0.09823650005273521,0.09864669991657138,0.20010040001943707,0.20059329993091524,0.7493561001028866
RSVPLG03,md,20251104-100754,1.0.1,20251020-085245,733,Introduction,T1,1,Automatic,main,6,20251104-111511,global,global,750,H,S,E,E,H-E.png,S-E.png,hH,sS,mask-1.png,mask-2.png,h,1,2.6155197999905795,none,-5,0,0.09749480010941625,0.09572310000658035,0.1983563001267612,0.1980626001022756,0.7504090999718755
RSVPLG03,md,20251104-100754,1.0.1,20251020-085245,733,Introduction,T1,1,Automatic,main,7,20251104-111518,local,global,750,H,S,A,A,A-H.png,S-A.png,hH,sS,mask-4.png,mask-1.png,h,1,5.073682900052518,none,-5,0,0.09773749997839332,0.09754420001991093,0.1984687999356538,0.19883030001074076,0.7497934999410063
RSVPLG03,md,20251104-100754,1.0.1,20251020-085245,733,Introduction,T1,1,Automatic,main,8,20251104-111527,local,global,750,H,H,E,E,E-H.png,H-E.png,hH,hH,mask-4.png,mask-4.png,h,1,0.89566530007869,none,-5,0,0.0975803998298943,0.0975534999743104,0.1996547000017017,0.19883499993011355,0.7495611999183893
RSVPLG03,md,20251104-100754,1.0.1,20251020-085245,733,Introduction,T1,1,Automatic,main,9,20251104-111532,local,global,750,H,H,E,E,E-H.png,H-E.png,hH,hH,mask-2.png,mask-4.png,h,1,0.7975736998487264,none,-5,0,0.0975687000900507,0.0974910999648273,0.19970500003546476,0.19919779989868402,0.7497839001007378
RSVPLG03,md,20251104-100754,1.0.1,20251020-085245,733,Introduction,T1,1,Automatic,main,10,20251104-111537,global,local,750,H,H,A,E,H-A.png,E-H.png,hH,hH,mask-1.png,mask-2.png,h,1,0.6143214001785964,none,-5,0,0.09917219984345138,0.0974388001486659,0.20012419996783137,0.19839440006762743,0.7518155998550355
RSVPLG03,md,20251104-100754,1.0.1,20251020-085245,733,Introduction,T1,1,Automatic,main,11,20251104-111542,global,local,750,H,H,A,E,H-A.png,E-H.png,hH,hH,mask-3.png,mask-2.png,h,1,0.6422241998370737,none,-5,0,0.09818680002354085,0.09848480019718409,0.20095680002123117,0.20033570006489754,0.7495956998318434
RSVPLG03,md,20251104-100754,1.0.1,20251020-085245,733,Introduction,T1,1,Automatic,main,12,20251104-111547,local,global,750,S,S,E,A,E-S.png,S-A.png,sS,sS,mask-4.png,mask-4.png,s,1,0.7840887000784278,none,-5,0,0.0974707999266684,0.0974705999251455,0.19948579999618232,0.19940579985268414,0.7498117000795901
RSVPLG03,md,20251104-100754,1.0.1,20251020-085245,733,Introduction,T1,1,Automatic,main,13,20251104-111552,global,global,750,S,H,E,A,S-E.png,H-A.png,sS,hH,mask-2.png,mask-1.png,s,1,1.2266131001524627,none,-5,0,0.0970515999943018,0.09745489992201328,0.19897760008461773,0.20038029993884265,0.7493330000434071
RSVPLG03,md,20251104-100754,1.0.1,20251020-085245,733,Introduction,T1,1,Automatic,main,14,20251104-111557,local,local,750,S,S,E,E,E-S.png,E-S.png,sS,sS,mask-3.png,mask-4.png,s,1,0.7779975000303239,none,-5,0,0.0974483999889344,0.09666649997234344,0.19844860001467168,0.1987236998975277,0.7500108999665827
RSVPLG03,md,20251104-100754,1.0.1,20251020-085245,733,Introduction,T1,1,Automatic,main,15,20251104-111602,local,local,750,H,S,E,A,E-H.png,A-S.png,hH,sS,mask-2.png,mask-1.png,h,1,0.8753297000657767,none,-5,0,0.09927490004338324,0.09725859994068742,0.20112510002218187,0.2000585999339819,0.7517558000981808
RSVPLG03,md,20251104-100754,1.0.1,20251020-085245,733,Introduction,T1,1,Automatic,main,16,20251104-111607,local,local,750,S,H,E,A,E-S.png,A-H.png,sS,hH,mask-3.png,mask-3.png,s,1,0.7714750999584794,none,-5,0,0.0985294000711292,0.09777679992839694,0.20217740000225604,0.20057109999470413,0.7507202001288533
RSVPLG03,md,20251104-111652,1.0.1,20251020-085245,733,Practice,T1,1,Automatic,main,1,20251104-111724,global,global,300,H,S,A,E,H-A.png,S-E.png,hH,sS,mask-3.png,mask-1.png,s,0,1.1656490000896156,none,-5,0,0.04533640015870333,0.047724499832838774,0.09914020006544888,0.10185729991644621,0.2980125001631677
RSVPLG03,md,20251104-111652,1.0.1,20251020-085245,733,Practice,T1,1,Automatic,main,2,20251104-111728,global,local,750,S,H,A,A,S-A.png,A-H.png,sS,hH,mask-2.png,mask-3.png,s,1,0.768158599967137,none,-5,0,0.04671690007671714,0.04883500002324581,0.0989166998770088,0.10105450008995831,0.7485664999112487
RSVPLG03,md,20251104-111652,1.0.1,20251020-085245,733,Practice,T1,1,Automatic,main,3,20251104-111733,local,global,750,H,H,A,E,A-H.png,H-E.png,hH,hH,mask-4.png,mask-2.png,h,1,0.6868404999841005,none,-5,0,0.0485874000005424,0.04699800000526011,0.09998389985412359,0.10016739997081459,0.7507068999111652
RSVPLG03,md,20251104-111652,1.0.1,20251020-085245,733,Practice,T1,1,Automatic,main,4,20251104-111738,global,local,300,S,S,A,E,S-A.png,E-S.png,sS,sS,mask-4.png,mask-1.png,s,1,0.5377705998253077,none,-5,0,0.047692100051790476,0.04891959996894002,0.09980090009048581,0.1007920999545604,0.29834270011633635
RSVPLG03,md,20251104-111652,1.0.1,20251020-085245,733,Practice,T1,1,Automatic,main,5,20251104-111742,local,global,300,H,H,E,A,E-H.png,H-A.png,hH,hH,mask-4.png,mask-1.png,h,1,0.44531300012022257,none,-5,0,0.048520199954509735,0.047490600030869246,0.1004796999040991,0.09931430011056364,0.30083519988693297
RSVPLG03,md,20251104-111652,1.0.1,20251020-085245,733,Practice,T1,1,Automatic,main,6,20251104-111746,local,local,750,S,H,A,A,A-S.png,A-H.png,sS,hH,mask-3.png,mask-3.png,s,1,0.4804491999093443,none,-5,0,0.04596500005573034,0.04694869997911155,0.09995430009439588,0.09998410008847713,0.7502466000150889
RSVPLG03,md,20251104-111652,1.0.1,20251020-085245,733,Practice,T1,1,Automatic,main,7,20251104-111751,local,local,300,S,H,A,A,A-S.png,A-H.png,sS,hH,mask-2.png,mask-4.png,s,1,0.36563130002468824,none,-5,0,0.04749869997613132,0.047511199954897165,0.09851799998432398,0.0985582999419421,0.300160099985078
RSVPLG03,md,20251104-111652,1.0.1,20251020-085245,733,Practice,T1,1,Automatic,main,8,20251104-111755,global,local,750,S,H,E,A,S-E.png,A-H.png,sS,hH,mask-4.png,mask-4.png,s,1,0.45388110005296767,none,-5,0,0.047602999955415726,0.047647800063714385,0.09962809993885458,0.10073200007900596,0.7496040998958051
RSVPLG03,md,20251104-111652,1.0.1,20251020-085245,733,Practice,T1,1,Automatic,main,9,20251104-111759,global,global,750,H,S,A,A,H-A.png,S-A.png,hH,sS,mask-2.png,mask-4.png,h,1,0.50842470000498,none,-5,0,0.047505800146609545,0.04752789996564388,0.09963429998606443,0.10149679984897375,0.7490740001667291
RSVPLG03,md,20251104-111652,1.0.1,20251020-085245,733,Practice,T1,1,Automatic,main,10,20251104-111804,global,local,300,H,H,E,A,H-E.png,A-H.png,hH,hH,mask-4.png,mask-2.png,h,1,0.5719127000775188,none,-5,0,0.047938400181010365,0.04723410005681217,0.10015730001032352,0.09863930009305477,0.29977190005593
RSVPLG03,md,20251104-111652,1.0.1,20251020-085245,733,Practice,T1,1,Automatic,main,11,20251104-111808,local,global,750,H,H,E,A,E-H.png,H-A.png,hH,hH,mask-4.png,mask-2.png,h,1,0.4629143998026848,none,-5,0,0.04598339996300638,0.04755089990794659,0.10039800009690225,0.09960659989155829,0.7500019001308829
RSVPLG03,md,20251104-111652,1.0.1,20251020-085245,733,Practice,T1,1,Automatic,main,12,20251104-111813,global,global,750,S,S,A,E,S-A.png,S-E.png,sS,sS,mask-1.png,mask-1.png,s,1,0.3398686000145972,none,-5,0,0.047509799944236875,0.048597299959510565,0.09853239986114204,0.1010484998114407,0.7496229000389576
RSVPLG03,md,20251104-111652,1.0.1,20251020-085245,733,Practice,T1,1,Automatic,main,13,20251104-111817,global,global,300,S,H,E,E,S-E.png,H-E.png,sS,hH,mask-4.png,mask-4.png,s,1,0.4046567000914365,none,-5,0,0.04712120001204312,0.04734360007569194,0.1010876998770982,0.09842989989556372,0.3016635999083519
RSVPLG03,md,20251104-111652,1.0.1,20251020-085245,733,Practice,T1,1,Automatic,main,14,20251104-111821,local,local,750,H,H,A,A,A-H.png,A-H.png,hH,hH,mask-4.png,mask-2.png,h,1,1.6454546998720616,none,-5,0,0.04708279995247722,0.0474157000426203,0.09935949998907745,0.09866439993493259,0.7511330000124872
RSVPLG03,md,20251104-111652,1.0.1,20251020-085245,733,Practice,T1,1,Automatic,main,15,20251104-111827,local,local,300,S,S,A,A,A-S.png,A-S.png,sS,sS,mask-3.png,mask-3.png,s,1,0.91542649990879,none,-5,0,0.04753710003569722,0.04755939985625446,0.09964110003784299,0.10073179984465241,0.29995150002650917
RSVPLG03,md,20251104-111652,1.0.1,20251020-085245,733,Practice,T1,1,Automatic,main,16,20251104-111831,local,global,300,H,S,E,A,E-H.png,S-A.png,hH,sS,mask-2.png,mask-4.png,h,1,0.5233925001230091,none,-5,0,0.04768239986151457,0.04770480003207922,0.09993389993906021,0.0990798999555409,0.29960309993475676
RSVPLG03,md,20251104-111947,1.0.1,20251020-085245,733,Practice,Both,1,Automatic,main,1,20251104-112004,global,local,750,H,S,E,A,H-E.png,A-S.png,hH,sS,mask-1.png,mask-1.png,h,1,2.3484034999273717,s,1,2.2654518000781536,0.0405689999461174,0.04769539996050298,0.0944783000741154,0.09979479992762208,0.7436150000430644
RSVPLG03,md,20251104-111947,1.0.1,20251020-085245,733,Practice,Both,1,Automatic,main,2,20251104-112013,global,local,300,S,S,A,A,S-A.png,A-S.png,sS,sS,mask-1.png,mask-3.png,s,1,1.279524999903515,h,0,0.5493650001008064,0.046703899977728724,0.04768120008520782,0.09893939993344247,0.09989449987187982,0.2985865999944508
RSVPLG03,md,20251104-111947,1.0.1,20251020-085245,733,Practice,Both,1,Automatic,main,3,20251104-112018,local,global,300,S,H,E,E,E-S.png,H-E.png,sS,hH,mask-1.png,mask-1.png,s,1,1.0085952000226825,h,1,0.39790740003809333,0.04780190018936992,0.04868600005283952,0.10022430005483329,0.09989330009557307,0.2999583000782877
RSVPLG03,md,20251104-111947,1.0.1,20251020-085245,733,Practice,Both,1,Automatic,main,4,20251104-112023,global,global,300,S,H,A,E,S-A.png,H-E.png,sS,hH,mask-3.png,mask-1.png,s,1,0.7002550999168307,h,1,0.38094229996204376,0.04655959992669523,0.04665719997137785,0.09959469991736114,0.10040779993869364,0.29897630005143583
RSVPLG03,md,20251104-111947,1.0.1,20251020-085245,733,Practice,Both,1,Automatic,main,5,20251104-112028,global,global,300,S,H,E,E,S-E.png,H-E.png,sS,hH,mask-4.png,mask-2.png,s,1,0.5551231000572443,h,1,0.3645172000396997,0.047644600039348006,0.0486028001178056,0.09954970004037023,0.10170070012100041,0.2988617999944836
RSVPLG03,md,20251104-111947,1.0.1,20251020-085245,733,Practice,Both,1,Automatic,main,6,20251104-112033,global,global,750,H,H,E,E,H-E.png,H-E.png,hH,hH,mask-2.png,mask-3.png,h,1,0.687406700104475,h,1,0.3325581999961287,0.047327399952337146,0.04752339981496334,0.09834849997423589,0.10055390000343323,0.7479459000751376
RSVPLG03,md,20251104-111947,1.0.1,20251020-085245,733,Practice,Both,1,Automatic,main,7,20251104-112038,local,global,750,S,H,A,A,A-S.png,H-A.png,sS,hH,mask-4.png,mask-1.png,s,1,0.7918267000932246,h,1,1.7538119999226183,0.047683600103482604,0.04683299991302192,0.09992050006985664,0.09980239998549223,0.749858400085941
RSVPLG03,md,20251104-111947,1.0.1,20251020-085245,733,Practice,Both,1,Automatic,main,8,20251104-112045,local,local,750,H,H,A,E,A-H.png,E-H.png,hH,hH,mask-2.png,mask-1.png,h,1,0.5318161000031978,h,1,0.2945481000933796,0.04631619993597269,0.047668299870565534,0.10062290006317198,0.10039049992337823,0.7484784000553191
RSVPLG03,md,20251104-111947,1.0.1,20251020-085245,733,Practice,Both,1,Automatic,main,9,20251104-112050,local,local,300,H,S,A,A,A-H.png,A-S.png,hH,sS,mask-1.png,mask-4.png,h,1,1.1695060001220554,s,1,0.2807403998449445,0.04768100008368492,0.046765600098297,0.09987100004218519,0.0998023001011461,0.29986970010213554
RSVPLG03,md,20251104-111947,1.0.1,20251020-085245,733,Practice,Both,1,Automatic,main,10,20251104-112055,global,local,300,S,H,E,E,S-E.png,E-H.png,sS,hH,mask-4.png,mask-2.png,s,1,1.1136943001765758,s,0,0.9392188999336213,0.04773300001397729,0.047677299939095974,0.09964059991762042,0.09963029995560646,0.30002039996907115
RSVPLG03,md,20251104-111947,1.0.1,20251020-085245,733,Practice,Both,1,Automatic,main,11,20251104-112101,global,global,750,H,H,E,A,H-E.png,H-A.png,hH,hH,mask-1.png,mask-3.png,h,1,0.9277790000196546,s,0,0.23323030001483858,0.0466542998328805,0.046705299988389015,0.09882289986126125,0.09893500013276935,0.7484980998560786
RSVPLG03,md,20251104-111947,1.0.1,20251020-085245,733,Practice,Both,1,Automatic,main,12,20251104-112106,local,global,300,H,S,E,A,E-H.png,S-A.png,hH,sS,mask-4.png,mask-3.png,h,1,2.4547689999453723,s,1,0.2490883998107165,0.04772210004739463,0.046753599774092436,0.09990140004083514,0.09989869990386069,0.30019920016638935
RSVPLG03,md,20251104-111947,1.0.1,20251020-085245,733,Practice,Both,1,Automatic,main,13,20251104-112113,local,global,750,S,H,E,E,E-S.png,H-E.png,sS,hH,mask-1.png,mask-4.png,s,1,0.6969322001095861,h,1,2.346273700008169,0.046982600120827556,0.04711690009571612,0.10016970010474324,0.1001619000453502,0.7496090999338776
RSVPLG03,md,20251104-111947,1.0.1,20251020-085245,733,Practice,Both,1,Automatic,main,14,20251104-112120,global,local,750,H,H,E,E,H-E.png,E-H.png,hH,hH,mask-4.png,mask-4.png,h,1,1.6238886001519859,s,0,1.4917647000402212,0.04757599998265505,0.046557100024074316,0.09963140008039773,0.09956979984417558,0.7494386001490057
RSVPLG03,md,20251104-111947,1.0.1,20251020-085245,733,Practice,Both,1,Automatic,main,15,20251104-112127,local,local,300,H,S,A,A,A-H.png,A-S.png,hH,sS,mask-3.png,mask-4.png,h,1,0.7877380000427365,s,1,0.3230556999333203,0.046517299953848124,0.047505500027909875,0.09954570000991225,0.09950889996252954,0.2998238999862224
RSVPLG03,md,20251104-111947,1.0.1,20251020-085245,733,Practice,Both,1,Automatic,main,16,20251104-112132,local,local,750,S,H,E,E,E-S.png,E-H.png,sS,hH,mask-2.png,mask-1.png,s,1,0.926939900033176,h,1,0.3298553000204265,0.048692299984395504,0.04696680000051856,0.10091119981370866,0.10007819999009371,0.7489392999559641
RSVPLG03,md,20251104-112321,1.0.1,20251020-085245,733,Experiment,Both,1,Automatic,warmup,1,20251104-112339,global,global,300,S,S,A,A,S-A.png,S-A.png,sS,sS,mask-1.png,mask-2.png,s,1,0.9140191001351923,s,1,1.529532700078562,0.04025139985606074,0.047489300137385726,0.09404219989664853,0.0986503001768142,0.294560199836269
RSVPLG03,md,20251104-112321,1.0.1,20251020-085245,733,Experiment,Both,1,Automatic,warmup,2,20251104-112345,local,local,750,H,H,A,A,A-H.png,A-H.png,hH,hH,mask-1.png,mask-3.png,h,1,1.7972103001084179,s,0,0.6836732998490334,0.04656659997999668,0.04761140001937747,0.09968340001069009,0.10149740008637309,0.7481471998617053
RSVPLG03,md,20251104-112321,1.0.1,20251020-085245,733,Experiment,Both,1,Automatic,warmup,3,20251104-112352,local,local,300,H,H,A,A,A-H.png,A-H.png,hH,hH,mask-1.png,mask-4.png,h,1,0.417450699955225,h,1,0.23274710006080568,0.048686600057408214,0.048709800001233816,0.09990230016410351,0.10088429995812476,0.3005264000967145
RSVPLG03,md,20251104-112321,1.0.1,20251020-085245,733,Experiment,Both,1,Automatic,warmup,4,20251104-112356,local,global,300,H,S,A,A,A-H.png,S-A.png,hH,sS,mask-1.png,mask-4.png,h,1,0.4179879000876099,s,1,0.17131700017489493,0.046603000024333596,0.04861380020156503,0.09889789996668696,0.1008262000977993,0.2985178998205811
RSVPLG03,md,20251104-112321,1.0.1,20251020-085245,733,Experiment,Both,1,Automatic,warmup,5,20251104-112400,local,global,750,H,S,E,E,E-H.png,S-E.png,hH,sS,mask-4.png,mask-1.png,h,1,0.6422935000155121,h,0,0.1504838999826461,0.0486924999859184,0.0459523000754416,0.10101219988428056,0.09982190001755953,0.7507888998370618
RSVPLG03,md,20251104-112321,1.0.1,20251020-085245,733,Experiment,Both,1,Automatic,main,6,20251104-112405,global,global,750,H,S,E,E,H-E.png,S-E.png,hH,sS,mask-4.png,mask-4.png,h,1,0.6240013998467475,s,1,0.20804579998366535,0.04765999992378056,0.04566880012862384,0.09984769998118281,0.09910860005766153,0.7514702999033034
RSVPLG03,md,20251104-112321,1.0.1,20251020-085245,733,Experiment,Both,1,Automatic,main,7,20251104-112411,global,global,300,H,S,E,E,H-E.png,S-E.png,hH,sS,mask-2.png,mask-2.png,h,1,0.4431479999329895,s,1,0.1884123000781983,0.04746360005810857,0.046403300017118454,0.09993920009583235,0.09909659996628761,0.3011873001232743
RSVPLG03,md,20251104-112321,1.0.1,20251020-085245,733,Experiment,Both,1,Automatic,main,8,20251104-112415,local,global,300,S,S,A,A,A-S.png,S-A.png,sS,sS,mask-4.png,mask-4.png,s,1,0.5982987999450415,s,1,0.10534349991939962,0.04651829996146262,0.048515599919483066,0.09952890011481941,0.10052870004437864,0.29909730004146695
RSVPLG03,md,20251104-112321,1.0.1,20251020-085245,733,Experiment,Both,1,Automatic,main,9,20251104-112419,local,local,750,S,H,A,A,A-S.png,A-H.png,sS,hH,mask-3.png,mask-3.png,s,1,0.4092271998524666,h,1,0.3009051000699401,0.047313300194218755,0.046565899858251214,0.09896940016187727,0.09960950003005564,0.7508617001585662
RSVPLG03,md,20251104-112321,1.0.1,20251020-085245,733,Experiment,Both,1,Automatic,main,10,20251104-112424,local,global,750,H,H,A,A,A-H.png,H-A.png,hH,hH,mask-3.png,mask-1.png,h,1,0.9697671001777053,h,1,0.1644019999075681,0.047530499985441566,0.0485211000777781,0.10062119993381202,0.09961970010772347,0.7494615998584777
RSVPLG03,md,20251104-112321,1.0.1,20251020-085245,733,Experiment,Both,1,Automatic,main,11,20251104-112429,local,local,750,H,S,A,A,A-H.png,A-S.png,hH,sS,mask-3.png,mask-2.png,h,1,0.45707490015774965,s,1,0.16405379981733859,0.04751920001581311,0.04767080000601709,0.10051400004886091,0.09987709997221828,0.7502389999572188
RSVPLG03,md,20251104-112321,1.0.1,20251020-085245,733,Experiment,Both,1,Automatic,main,12,20251104-112434,global,global,750,S,H,E,A,S-E.png,H-A.png,sS,hH,mask-2.png,mask-2.png,s,1,0.38559260009787977,h,1,0.2270164000801742,0.04871400003321469,0.048693199874833226,0.10034539992921054,0.09996609995141625,0.7495764000341296
RSVPLG03,md,20251104-112321,1.0.1,20251020-085245,733,Experiment,Both,1,Automatic,main,13,20251104-112439,local,local,300,S,H,A,A,A-S.png,A-H.png,sS,hH,mask-4.png,mask-3.png,s,1,0.5301643998827785,h,1,0.15639479993842542,0.04672799981199205,0.04769790009595454,0.09894189983606339,0.09897170006297529,0.29957039980217814
RSVPLG03,md,20251104-112321,1.0.1,20251020-085245,733,Experiment,Both,1,Automatic,main,14,20251104-112444,local,global,750,H,H,A,E,A-H.png,H-E.png,hH,hH,mask-1.png,mask-1.png,h,1,0.561004500137642,h,1,0.37749999994412065,0.04759970004670322,0.048890599980950356,0.09968429990112782,0.09992569987662137,0.7484254001174122
RSVPLG03,md,20251104-112321,1.0.1,20251020-085245,733,Experiment,Both,1,Automatic,main,15,20251104-112449,local,global,750,H,S,E,A,E-H.png,S-A.png,hH,sS,mask-1.png,mask-2.png,h,1,0.5763591998256743,s,1,0.39587790006771684,0.04754719999618828,0.04752770019695163,0.1005670998711139,0.09937190008349717,0.7504564998671412
RSVPLG03,md,20251104-112321,1.0.1,20251020-085245,733,Experiment,Both,1,Automatic,main,16,20251104-112454,global,local,750,S,H,E,A,S-E.png,A-H.png,sS,hH,mask-1.png,mask-2.png,h,0,0.35268300003372133,h,1,1.2374974000267684,0.04753519990481436,0.047529999865219,0.09862189996056259,0.09865429997444153,0.7496156999841332
RSVPLG03,md,20251104-112321,1.0.1,20251020-085245,733,Experiment,Both,1,Automatic,main,17,20251104-112500,local,global,300,H,S,A,E,A-H.png,S-E.png,hH,sS,mask-3.png,mask-3.png,h,1,1.3433634999673814,s,1,0.233987599844113,0.04746629996225238,0.048321199836209416,0.09956669993698597,0.10069819982163608,0.2988378000445664
RSVPLG03,md,20251104-112321,1.0.1,20251020-085245,733,Experiment,Both,1,Automatic,main,18,20251104-112505,global,local,300,H,H,E,E,H-E.png,E-H.png,hH,hH,mask-4.png,mask-3.png,h,1,0.4704758001025766,s,0,0.16647689999081194,0.04852720000781119,0.04650419997051358,0.10053239995613694,0.10052470001392066,0.30090279993601143
RSVPLG03,md,20251104-112321,1.0.1,20251020-085245,733,Experiment,Both,1,Automatic,main,19,20251104-112509,local,global,750,S,H,E,A,E-S.png,H-A.png,sS,hH,mask-1.png,mask-1.png,s,1,0.7178138999734074,h,1,0.1523863000329584,0.04856549995020032,0.04752329993061721,0.10157289984636009,0.10153739992529154,0.7496511999052018
RSVPLG03,md,20251104-112321,1.0.1,20251020-085245,733,Experiment,Both,1,Automatic,main,20,20251104-112515,local,global,750,S,S,A,A,A-S.png,S-A.png,sS,sS,mask-2.png,mask-4.png,s,1,0.42800289997830987,s,1,0.17061070003546774,0.04656349983997643,0.047542500076815486,0.10057689994573593,0.09868469997309148,0.7505292999558151
RSVPLG03,md,20251104-112321,1.0.1,20251020-085245,733,Experiment,Both,1,Automatic,main,21,20251104-112519,local,global,300,S,H,A,E,A-S.png,H-E.png,sS,hH,mask-2.png,mask-3.png,s,1,0.6599060001317412,h,1,0.1792661000508815,0.04771359986625612,0.047419500071555376,0.10007049981504679,0.09962820005603135,0.3001981999259442
RSVPLG03,md,20251104-112321,1.0.1,20251020-085245,733,Experiment,Both,1,Automatic,main,22,20251104-112524,local,local,750,H,H,E,E,E-H.png,E-H.png,hH,hH,mask-2.png,mask-1.png,h,1,0.40912159997969866,h,1,0.15047949994914234,0.04771369998343289,0.04667990002781153,0.10090290009975433,0.09984800009988248,0.750747499987483
RSVPLG03,md,20251104-112321,1.0.1,20251020-085245,733,Experiment,Both,1,Automatic,main,23,20251104-112529,global,local,300,S,H,E,E,S-E.png,E-H.png,sS,hH,mask-4.png,mask-3.png,s,1,1.124595700064674,s,0,0.09648269996978343,0.047690500039607286,0.04766970011405647,0.1018731000367552,0.09985200013034046,0.3003587999846786
RSVPLG03,md,20251104-112321,1.0.1,20251020-085245,733,Experiment,Both,1,Automatic,main,24,20251104-112533,global,global,750,H,H,A,A,H-A.png,H-A.png,hH,hH,mask-2.png,mask-1.png,h,1,0.38799860002472997,h,1,0.16786370007321239,0.047541400184854865,0.04780240007676184,0.10053580021485686,0.09986499999649823,0.7503363001160324
RSVPLG03,md,20251104-112321,1.0.1,20251020-085245,733,Experiment,Both,1,Automatic,main,25,20251104-112538,local,local,300,S,S,A,E,A-S.png,E-S.png,sS,sS,mask-2.png,mask-1.png,s,1,0.5840372000820935,s,1,0.10171529999934137,0.04825280001387,0.04640399990603328,0.10007659997791052,0.09849069989286363,0.30118780001066625
RSVPLG03,md,20251104-112321,1.0.1,20251020-085245,733,Experiment,Both,1,Automatic,main,26,20251104-112549,global,global,750,H,S,E,E,H-E.png,S-E.png,hH,sS,mask-3.png,mask-1.png,h,1,0.7036059000529349,s,1,0.12148049985989928,0.04752679984085262,0.04749549995176494,0.10060129989869893,0.10040750005282462,0.7498160998802632
RSVPLG03,md,20251104-112321,1.0.1,20251020-085245,733,Experiment,Both,1,Automatic,main,27,20251104-112554,global,global,300,S,H,A,A,S-A.png,H-A.png,sS,hH,mask-3.png,mask-1.png,s,1,0.4503941999282688,h,1,0.10755779989995062,0.0455486997961998,0.045567499939352274,0.09899450000375509,0.09865200007334352,0.2997905998490751
RSVPLG03,md,20251104-112321,1.0.1,20251020-085245,733,Experiment,Both,1,Automatic,main,28,20251104-112558,global,global,750,H,S,E,E,H-E.png,S-E.png,hH,sS,mask-3.png,mask-1.png,h,1,0.39039880014024675,s,1,0.15700770006515086,0.04768520011566579,0.047654999885708094,0.10104819992557168,0.0998297999612987,0.7499838001094759
RSVPLG03,md,20251104-112321,1.0.1,20251020-085245,733,Experiment,Both,1,Automatic,main,29,20251104-112603,local,local,750,H,H,E,A,E-H.png,A-H.png,hH,hH,mask-3.png,mask-1.png,s,0,0.5427255998365581,h,1,0.21455380017869174,0.04756559990346432,0.04755340004339814,0.10064319986850023,0.10065619996748865,0.7497753000352532
RSVPLG03,md,20251104-112321,1.0.1,20251020-085245,733,Experiment,Both,1,Automatic,main,30,20251104-112608,local,global,750,S,H,E,E,E-S.png,H-E.png,sS,hH,mask-2.png,mask-2.png,s,1,0.7506660998333246,h,1,0.1681804999243468,0.04655810003168881,0.04751809989102185,0.09958000015467405,0.09961199993267655,0.7496387001592666
RSVPLG03,md,20251104-112321,1.0.1,20251020-085245,733,Experiment,Both,1,Automatic,main,31,20251104-112613,local,local,300,H,H,E,E,E-H.png,E-H.png,hH,hH,mask-3.png,mask-1.png,h,1,1.3334161001257598,s,0,0.08745899982750416,0.04735030001029372,0.04851190000772476,0.09930539992637932,0.10135030001401901,0.2986091000493616
RSVPLG03,md,20251104-112321,1.0.1,20251020-085245,733,Experiment,Both,1,Automatic,main,32,20251104-112618,local,local,750,S,S,A,E,A-S.png,E-S.png,sS,sS,mask-4.png,mask-3.png,s,1,0.49114860012196004,s,1,0.13307059998624027,0.04753180011175573,0.047475700033828616,0.10151639999821782,0.0985111000481993,0.7516839001327753
RSVPLG03,md,20251104-112321,1.0.1,20251020-085245,733,Experiment,Both,1,Automatic,main,33,20251104-112623,global,local,750,S,H,E,A,S-E.png,A-H.png,sS,hH,mask-3.png,mask-3.png,s,1,0.4273490998893976,h,1,0.17957199993543327,0.048792799934744835,0.04692479991354048,0.10121089988388121,0.10021770000457764,0.7504674999509007
RSVPLG03,md,20251104-112321,1.0.1,20251020-085245,733,Experiment,Both,1,Automatic,main,34,20251104-112628,local,global,300,H,S,A,A,A-H.png,S-A.png,hH,sS,mask-2.png,mask-2.png,h,1,1.0862883999943733,h,0,0.601113700075075,0.047407399863004684,0.04759779991582036,0.10027229995466769,0.10178250004537404,0.29928799998015165
RSVPLG03,md,20251104-112321,1.0.1,20251020-085245,733,Experiment,Both,1,Automatic,main,35,20251104-112633,local,global,300,H,S,A,A,A-H.png,S-A.png,hH,sS,mask-3.png,mask-2.png,h,1,0.9432595001999289,h,0,0.6447694001253694,0.04791950015351176,0.045690099941566586,0.09998610010370612,0.09977409988641739,0.30161240021698177
RSVPLG03,md,20251104-112321,1.0.1,20251020-085245,733,Experiment,Both,1,Automatic,main,36,20251104-112639,local,local,300,H,S,E,A,E-H.png,A-S.png,hH,sS,mask-4.png,mask-3.png,h,1,0.3853847000282258,s,1,0.13495149998925626,0.046925999922677875,0.04671670007519424,0.10023989994078875,0.099996899953112,0.3009045999497175
RSVPLG03,md,20251104-112321,1.0.1,20251020-085245,733,Experiment,Both,1,Automatic,main,37,20251104-112643,local,local,750,S,H,E,A,E-S.png,A-H.png,sS,hH,mask-1.png,mask-3.png,s,1,0.3845954998396337,h,1,0.1834927999880165,0.04851539991796017,0.04748750012367964,0.10036369995214045,0.09940559999085963,0.7508076999802142
RSVPLG03,md,20251104-112321,1.0.1,20251020-085245,733,Experiment,Both,1,Automatic,main,38,20251104-112648,local,local,300,H,S,E,A,E-H.png,A-S.png,hH,sS,mask-3.png,mask-2.png,h,1,0.4441334998700768,s,1,0.0875736998859793,0.04760379996150732,0.04855870013125241,0.1006516998168081,0.09955919999629259,0.29992629983462393
RSVPLG03,md,20251104-112321,1.0.1,20251020-085245,733,Experiment,Both,1,Automatic,main,39,20251104-112652,global,global,750,S,S,E,E,S-E.png,S-E.png,sS,sS,mask-2.png,mask-2.png,s,1,0.5560779001098126,s,1,0.1010215999558568,0.04749749996699393,0.04704890004359186,0.10055329999886453,0.10009300010278821,0.7505501999985427
RSVPLG03,md,20251104-112321,1.0.1,20251020-085245,733,Experiment,Both,1,Automatic,main,40,20251104-112657,local,local,750,H,H,E,A,E-H.png,A-H.png,hH,hH,mask-4.png,mask-1.png,h,1,0.704078699927777,h,1,0.15577279985882342,0.047678800066933036,0.04748660000041127,0.10186850000172853,0.09933839994482696,0.7502598999999464
RSVPLG03,md,20251104-112321,1.0.1,20251020-085245,733,Experiment,Both,1,Automatic,main,41,20251104-112702,local,local,750,S,S,A,A,A-S.png,A-S.png,sS,sS,mask-2.png,mask-1.png,s,1,0.3720953001175076,s,1,0.14514399995096028,0.04852980002760887,0.04751090006902814,0.10060270014218986,0.10154830012470484,0.7488975999876857
RSVPLG03,md,20251104-112321,1.0.1,20251020-085245,733,Experiment,Both,1,Automatic,main,42,20251104-112707,local,global,300,H,H,E,A,E-H.png,H-A.png,hH,hH,mask-4.png,mask-2.png,h,1,0.8511591998394579,h,1,0.2727942999918014,0.04654360003769398,0.046927700052037835,0.10053759999573231,0.09805390005931258,0.3008864999283105
RSVPLG03,md,20251104-112321,1.0.1,20251020-085245,733,Experiment,Both,1,Automatic,main,43,20251104-112712,local,global,750,S,S,A,A,A-S.png,S-A.png,sS,sS,mask-4.png,mask-2.png,s,1,0.44752319995313883,h,0,0.2687847998458892,0.047597400145605206,0.047542199958115816,0.09962770016863942,0.10057329991832376,0.7489579000975937
RSVPLG03,md,20251104-112321,1.0.1,20251020-085245,733,Experiment,Both,1,Automatic,main,44,20251104-112717,global,local,750,H,H,E,E,H-E.png,E-H.png,hH,hH,mask-3.png,mask-1.png,h,1,0.4412771000061184,h,1,0.5552769000642002,0.04851350001990795,0.047586899949237704,0.10135769983753562,0.10160910012200475,0.7505063998978585
RSVPLG03,md,20251104-112321,1.0.1,20251020-085245,733,Experiment,Both,1,Automatic,main,45,20251104-112722,global,local,750,S,H,A,A,S-A.png,A-H.png,sS,hH,mask-1.png,mask-4.png,s,1,0.5024667999241501,s,0,0.10633910004980862,0.04751149984076619,0.04750770004466176,0.09955929988063872,0.10049189999699593,0.7490246999077499
RSVPLG03,md,20251104-112321,1.0.1,20251020-085245,733,Experiment,Both,1,Automatic,main,46,20251104-112726,global,local,750,S,S,E,E,S-E.png,E-S.png,sS,sS,mask-4.png,mask-1.png,s,1,0.48042870010249317,h,0,0.8577177000697702,0.04864250007085502,0.047582900151610374,0.09959870018064976,0.0996427999343723,0.7508473000489175
RSVPLG03,md,20251104-112321,1.0.1,20251020-085245,733,Experiment,Both,1,Automatic,main,47,20251104-112732,global,local,750,H,S,A,E,H-A.png,E-S.png,hH,sS,mask-3.png,mask-3.png,h,1,0.4983689999207854,s,1,0.26916479994542897,0.04930919990874827,0.048552999971434474,0.10029219998978078,0.10168819990940392,0.7499315000604838
RSVPLG03,md,20251104-112321,1.0.1,20251020-085245,733,Experiment,Both,1,Automatic,main,48,20251104-112737,global,local,300,S,S,A,E,S-A.png,E-S.png,sS,sS,mask-3.png,mask-3.png,s,1,0.6636983000207692,h,0,1.8393589998595417,0.047615000046789646,0.04881020006723702,0.0996586000546813,0.10088999988511205,0.2985467000398785
RSVPLG03,md,20251104-112321,1.0.1,20251020-085245,733,Experiment,Both,1,Automatic,main,49,20251104-112743,global,global,300,S,H,E,E,S-E.png,H-E.png,sS,hH,mask-3.png,mask-3.png,s,1,0.376545799896121,h,1,0.1723909000866115,0.04750240012072027,0.04756740015000105,0.10152690019458532,0.09885430010035634,0.30177869996987283
RSVPLG03,md,20251104-112321,1.0.1,20251020-085245,733,Experiment,Both,1,Automatic,main,50,20251104-112748,global,local,750,H,H,A,E,H-A.png,E-H.png,hH,hH,mask-3.png,mask-1.png,h,1,0.4809938999824226,h,1,0.9711916998494416,0.04637870006263256,0.04753040010109544,0.10042380006052554,0.10153040010482073,0.7483761000912637
RSVPLG03,md,20251104-112321,1.0.1,20251020-085245,733,Experiment,Both,1,Automatic,main,51,20251104-112803,local,global,750,S,S,A,E,A-S.png,S-E.png,sS,sS,mask-1.png,mask-1.png,s,1,0.5643118000589311,h,0,0.9509600000455976,0.047521800035610795,0.04752729996107519,0.10078349988907576,0.10153219988569617,0.74988460005261
RSVPLG03,md,20251104-112321,1.0.1,20251020-085245,733,Experiment,Both,1,Automatic,main,52,20251104-112809,global,local,300,H,H,A,E,H-A.png,E-H.png,hH,hH,mask-2.png,mask-4.png,h,1,0.4118022001348436,s,0,0.15603050007484853,0.04855399997904897,0.04848809982649982,0.09908469999209046,0.09989999979734421,0.2997440001927316
RSVPLG03,md,20251104-112321,1.0.1,20251020-085245,733,Experiment,Both,1,Automatic,main,53,20251104-112813,global,global,300,S,S,E,E,S-E.png,S-E.png,sS,sS,mask-1.png,mask-4.png,s,1,0.3952723001129925,s,1,1.040903499815613,0.04748960002325475,0.04860270000062883,0.09934539999812841,0.09985819994471967,0.2994373000692576
RSVPLG03,md,20251104-112321,1.0.1,20251020-085245,733,Experiment,Both,1,Automatic,main,54,20251104-112818,global,global,300,H,S,A,A,H-A.png,S-A.png,hH,sS,mask-3.png,mask-4.png,h,1,0.47520659980364144,s,1,0.15834309998899698,0.04659049981273711,0.048446099972352386,0.09960229997523129,0.10141190001741052,0.2989870999008417
RSVPLG03,md,20251104-112321,1.0.1,20251020-085245,733,Experiment,Both,1,Automatic,main,55,20251104-112822,global,local,300,S,H,E,A,S-E.png,A-H.png,sS,hH,mask-2.png,mask-4.png,s,1,1.6700271000154316,s,0,1.3393213001545519,0.045527099864557385,0.047522899927571416,0.09953020000830293,0.09954770002514124,0.2998593000229448
RSVPLG03,md,20251104-112321,1.0.1,20251020-085245,733,Experiment,Both,1,Automatic,main,56,20251104-112829,global,global,750,S,S,A,A,S-A.png,S-A.png,sS,sS,mask-2.png,mask-2.png,s,1,0.4542129999026656,s,1,0.07556769996881485,0.047529099974781275,0.04855769989080727,0.09854729985818267,0.09955690009519458,0.7487164998892695
RSVPLG03,md,20251104-112321,1.0.1,20251020-085245,733,Experiment,Both,1,Automatic,main,57,20251104-112834,global,global,750,S,S,A,A,S-A.png,S-A.png,sS,sS,mask-1.png,mask-4.png,s,1,0.4072118999902159,s,1,0.16144969989545643,0.04649109998717904,0.04850579984486103,0.09950210014358163,0.09952079993672669,0.7484139001462609
RSVPLG03,md,20251104-112321,1.0.1,20251020-085245,733,Experiment,Both,1,Automatic,main,58,20251104-112839,global,local,750,H,S,E,E,H-E.png,E-S.png,hH,sS,mask-1.png,mask-4.png,h,1,0.7530624000355601,s,1,0.2607388999313116,0.04639309993945062,0.04749490018002689,0.10019859997555614,0.0985060001257807,0.7509060997981578
RSVPLG03,md,20251104-112321,1.0.1,20251020-085245,733,Experiment,Both,1,Automatic,main,59,20251104-112844,global,global,300,H,S,E,A,H-E.png,S-A.png,hH,sS,mask-1.png,mask-4.png,h,1,0.6140870000235736,s,1,0.12027899990789592,0.0477076000533998,0.047286200104281306,0.09989210008643568,0.09947769995778799,0.3005121999885887
RSVPLG03,md,20251104-112321,1.0.1,20251020-085245,733,Experiment,Both,1,Automatic,main,60,20251104-112849,local,global,750,S,S,E,E,E-S.png,S-E.png,sS,sS,mask-2.png,mask-2.png,s,1,0.509171900106594,h,0,0.612045300193131,0.045709799975156784,0.04843700001947582,0.09958410006947815,0.10095270001329482,0.7481949001085013
RSVPLG03,md,20251104-112321,1.0.1,20251020-085245,733,Experiment,Both,1,Automatic,main,61,20251104-112854,global,local,300,H,S,E,A,H-E.png,A-S.png,hH,sS,mask-3.png,mask-2.png,h,1,0.4804666999261826,h,0,0.3355561001226306,0.04747909982688725,0.04750300012528896,0.10046539991162717,0.10052109998650849,0.30025299987755716
RSVPLG03,md,20251104-112321,1.0.1,20251020-085245,733,Experiment,Both,1,Automatic,main,62,20251104-112858,global,local,300,S,H,E,E,S-E.png,E-H.png,sS,hH,mask-3.png,mask-2.png,s,1,0.4088547001592815,s,0,1.932606799993664,0.04564280016347766,0.04766950011253357,0.09856070019304752,0.09991280012764037,0.29815510008484125
RSVPLG03,md,20251104-112321,1.0.1,20251020-085245,733,Experiment,Both,1,Automatic,main,63,20251104-112905,local,local,750,H,H,A,A,A-H.png,A-H.png,hH,hH,mask-1.png,mask-3.png,h,1,1.0309750998858362,s,0,0.273488299921155,0.04676030017435551,0.045730800135061145,0.09899820014834404,0.09999609994702041,0.7509669000282884
RSVPLG03,md,20251104-112321,1.0.1,20251020-085245,733,Experiment,Both,1,Automatic,main,64,20251104-112910,local,local,300,H,S,E,E,E-H.png,E-S.png,hH,sS,mask-2.png,mask-2.png,h,1,0.9918938998598605,s,1,0.1841752000618726,0.04738360014744103,0.04749579983763397,0.10043080011382699,0.09858269989490509,0.30061270017176867
RSVPLG03,md,20251104-112321,1.0.1,20251020-085245,733,Experiment,Both,1,Automatic,main,65,20251104-112915,local,global,750,S,S,A,E,A-S.png,S-E.png,sS,sS,mask-1.png,mask-2.png,s,1,0.3974987999536097,s,1,0.1201347999740392,0.04875639989040792,0.04653209983371198,0.10008669993840158,0.09853689977899194,0.751674700062722
RSVPLG03,md,20251104-112321,1.0.1,20251020-085245,733,Experiment,Both,1,Automatic,main,66,20251104-112920,global,global,750,H,S,E,A,H-E.png,S-A.png,hH,sS,mask-2.png,mask-3.png,h,1,0.43469229992479086,s,1,0.17135390010662377,0.04821999999694526,0.0476846001110971,0.10082349996082485,0.09988590003922582,0.7503920998424292
RSVPLG03,md,20251104-112321,1.0.1,20251020-085245,733,Experiment,Both,1,Automatic,main,67,20251104-112925,global,global,300,H,S,A,E,H-A.png,S-E.png,hH,sS,mask-1.png,mask-4.png,h,1,0.27741710003465414,s,1,0.13153780018910766,0.047801699955016375,0.047511300072073936,0.09986059996299446,0.09953260002657771,0.3002195998560637
RSVPLG03,md,20251104-112321,1.0.1,20251020-085245,733,Experiment,Both,1,Automatic,main,68,20251104-112929,global,local,300,S,S,A,E,S-A.png,E-S.png,sS,sS,mask-3.png,mask-3.png,s,1,0.42744749994017184,s,1,0.1669026999734342,0.047520500142127275,0.04551879991777241,0.09953140001744032,0.09943510009907186,0.299798300024122
RSVPLG03,md,20251104-112321,1.0.1,20251020-085245,733,Experiment,Both,1,Automatic,main,69,20251104-112933,local,local,300,S,S,A,E,A-S.png,E-S.png,sS,sS,mask-1.png,mask-3.png,s,1,1.2851366000249982,h,0,0.5329574001953006,0.04754780000075698,0.047529400093480945,0.10055999993346632,0.10064420010894537,0.29989899997599423
RSVPLG03,md,20251104-112321,1.0.1,20251020-085245,733,Experiment,Both,1,Automatic,main,70,20251104-112939,global,local,300,S,H,A,A,S-A.png,A-H.png,sS,hH,mask-3.png,mask-4.png,s,1,0.4566116000059992,s,0,0.1656838001217693,0.04758269991725683,0.04786480008624494,0.10060389991849661,0.10039150016382337,0.299227099865675
RSVPLG03,md,20251104-112321,1.0.1,20251020-085245,733,Experiment,Both,1,Automatic,main,71,20251104-112943,global,local,300,H,H,E,E,H-E.png,E-H.png,hH,hH,mask-4.png,mask-2.png,h,1,0.3725198998581618,s,0,0.15258410014212132,0.04875240009278059,0.0487268001306802,0.09995599999092519,0.09992130007594824,0.2996946000494063
RSVPLG03,md,20251104-112321,1.0.1,20251020-085245,733,Experiment,Both,1,Automatic,main,72,20251104-112947,local,global,300,S,S,E,E,E-S.png,S-E.png,sS,sS,mask-4.png,mask-3.png,s,1,0.817108399933204,s,1,0.10598039999604225,0.04871749994345009,0.04769839998334646,0.10197469987906516,0.09991120011545718,0.3015795999672264
RSVPLG03,md,20251104-112321,1.0.1,20251020-085245,733,Experiment,Both,1,Automatic,main,73,20251104-112952,local,local,300,H,S,E,A,E-H.png,A-S.png,hH,sS,mask-3.png,mask-2.png,s,0,1.0194975000340492,h,0,0.11307640001177788,0.047570399940013885,0.047608899883925915,0.0996193999890238,0.09800719982013106,0.3000358999706805
RSVPLG03,md,20251104-112321,1.0.1,20251020-085245,733,Experiment,Both,1,Automatic,main,74,20251104-112957,global,global,300,H,H,E,E,H-E.png,H-E.png,hH,hH,mask-2.png,mask-1.png,h,1,0.4032443999312818,h,1,0.15290759992785752,0.04743370017968118,0.047492999816313386,0.10041950014419854,0.09935439983382821,0.3006864001508802
RSVPLG03,md,20251104-112321,1.0.1,20251020-085245,733,Experiment,Both,1,Automatic,main,75,20251104-113001,local,local,300,S,H,E,A,E-S.png,A-H.png,sS,hH,mask-4.png,mask-4.png,s,1,0.7668204999063164,h,1,0.10922269988805056,0.046971500152722,0.047518600011244416,0.10100260004401207,0.10057560005225241,0.2992922000121325
RSVPLG03,md,20251104-112321,1.0.1,20251020-085245,733,Experiment,Both,1,Automatic,main,76,20251104-113015,global,global,300,S,S,A,E,S-A.png,S-E.png,sS,sS,mask-4.png,mask-2.png,s,1,0.46860880008898675,s,1,0.5408590000588447,0.04752269992604852,0.04752269992604852,0.09856619988568127,0.09853950003162026,0.2998422000091523
RSVPLG03,md,20251104-112321,1.0.1,20251020-085245,733,Experiment,Both,1,Automatic,main,77,20251104-113019,local,local,300,H,H,A,E,A-H.png,E-H.png,hH,hH,mask-4.png,mask-2.png,h,1,0.5770906999241561,h,1,0.409179899841547,0.047155699925497174,0.04692270001396537,0.10010489984415472,0.09955379995517433,0.29997809999622405
RSVPLG03,md,20251104-112321,1.0.1,20251020-085245,733,Experiment,Both,1,Automatic,main,78,20251104-113024,global,local,750,H,S,A,A,H-A.png,A-S.png,hH,sS,mask-1.png,mask-2.png,h,1,0.4256585999391973,s,1,0.2531649998854846,0.048299199901521206,0.047612099908292294,0.10134939989075065,0.09965380001813173,0.7513949000276625
RSVPLG03,md,20251104-112321,1.0.1,20251020-085245,733,Experiment,Both,1,Automatic,main,79,20251104-113029,global,global,300,H,S,A,E,H-A.png,S-E.png,hH,sS,mask-3.png,mask-1.png,h,1,0.3782403999939561,s,1,0.17513380013406277,0.04758929996751249,0.04751339997164905,0.10160059994086623,0.10052510001696646,0.29985189996659756
RSVPLG03,md,20251104-112321,1.0.1,20251020-085245,733,Experiment,Both,1,Automatic,main,80,20251104-113033,global,global,750,S,H,A,E,S-A.png,H-E.png,sS,hH,mask-4.png,mask-2.png,s,1,0.579143000068143,h,1,0.23213259992189705,0.04755800007842481,0.046883700182661414,0.09961259993724525,0.09989379998296499,0.7487178998999298
RSVPLG03,md,20251104-112321,1.0.1,20251020-085245,733,Experiment,Both,1,Automatic,main,81,20251104-113038,global,global,300,H,H,A,E,H-A.png,H-E.png,hH,hH,mask-1.png,mask-1.png,h,1,0.3726405999623239,h,1,0.15432970016263425,0.045552399940788746,0.04652380011975765,0.098562799859792,0.0995309001300484,0.29982039984315634
RSVPLG03,md,20251104-112321,1.0.1,20251020-085245,733,Experiment,Both,1,Automatic,main,82,20251104-113042,global,global,750,H,H,E,A,H-E.png,H-A.png,hH,hH,mask-1.png,mask-4.png,h,1,0.4444249998778105,h,1,0.14018129999749362,0.046305299969390035,0.04774950002320111,0.09858660004101694,0.09996460005640984,0.7488245000131428
RSVPLG03,md,20251104-112321,1.0.1,20251020-085245,733,Experiment,Both,1,Automatic,main,83,20251104-113047,global,global,750,S,H,E,A,S-E.png,H-A.png,sS,hH,mask-4.png,mask-2.png,s,1,0.27899270015768707,h,1,0.2146420998033136,0.047124399803578854,0.046624100068584085,0.09976369980722666,0.09992940002121031,0.7514738999307156
RSVPLG03,md,20251104-112321,1.0.1,20251020-085245,733,Experiment,Both,1,Automatic,main,84,20251104-113052,global,global,750,S,H,A,A,S-A.png,H-A.png,sS,hH,mask-4.png,mask-4.png,s,1,0.33048900007270277,h,1,0.1375998998992145,0.04768109996803105,0.04868080001324415,0.1017730999737978,0.09990329993888736,0.7499025999568403
RSVPLG03,md,20251104-112321,1.0.1,20251020-085245,733,Experiment,Both,1,Automatic,main,85,20251104-113057,global,local,300,H,S,E,E,H-E.png,E-S.png,hH,sS,mask-3.png,mask-4.png,h,1,0.2654875998850912,s,1,0.16295040003024042,0.04771939991042018,0.047841399908065796,0.10092339990660548,0.1000355000142008,0.29989859997294843
RSVPLG03,md,20251104-112321,1.0.1,20251020-085245,733,Experiment,Both,1,Automatic,main,86,20251104-113101,local,local,300,S,H,E,E,E-S.png,E-H.png,sS,hH,mask-4.png,mask-1.png,s,1,0.7141697998158634,h,1,0.24764840002171695,0.04651809995993972,0.04751330008730292,0.09855080000124872,0.10155549994669855,0.29822549992240965
RSVPLG03,md,20251104-112321,1.0.1,20251020-085245,733,Experiment,Both,1,Automatic,main,87,20251104-113106,global,local,750,H,H,A,A,H-A.png,A-H.png,hH,hH,mask-3.png,mask-1.png,h,1,0.3119979999028146,h,1,0.1522440998815,0.04677910008467734,0.04556989995762706,0.09985239990055561,0.09959249990060925,0.7498514000326395
RSVPLG03,md,20251104-112321,1.0.1,20251020-085245,733,Experiment,Both,1,Automatic,main,88,20251104-113110,global,local,750,S,S,E,E,S-E.png,E-S.png,sS,sS,mask-3.png,mask-4.png,s,1,0.3132555999327451,s,1,0.12163050007075071,0.04665180016309023,0.047712899977341294,0.09989559999667108,0.1008115999866277,0.7490733000449836
RSVPLG03,md,20251104-112321,1.0.1,20251020-085245,733,Experiment,Both,1,Automatic,main,89,20251104-113115,global,local,750,H,S,E,A,H-E.png,A-S.png,hH,sS,mask-4.png,mask-1.png,h,1,0.42827640008181334,h,0,0.1537777001503855,0.04770460003055632,0.045836899895220995,0.09997169999405742,0.0983704999089241,0.7507263000588864
RSVPLG03,md,20251104-112321,1.0.1,20251020-085245,733,Experiment,Both,1,Automatic,main,90,20251104-113120,local,global,300,H,H,E,A,E-H.png,H-A.png,hH,hH,mask-1.png,mask-1.png,h,1,0.48473710007965565,h,1,0.2499621999450028,0.04625990008935332,0.0476931999437511,0.09801220009103417,0.10193899995647371,0.29794250009581447
RSVPLG03,md,20251104-112321,1.0.1,20251020-085245,733,Experiment,Both,1,Automatic,main,91,20251104-113124,local,global,750,S,H,A,A,A-S.png,H-A.png,sS,hH,mask-1.png,mask-3.png,s,1,0.3343448000960052,h,1,0.21994450013153255,0.047047500032931566,0.046577699948102236,0.09919529990293086,0.09860709984786808,0.7503599000629038
RSVPLG03,md,20251104-112321,1.0.1,20251020-085245,733,Experiment,Both,1,Automatic,main,92,20251104-113129,local,global,750,S,H,E,E,E-S.png,H-E.png,sS,hH,mask-1.png,mask-4.png,s,1,0.631105300039053,h,1,0.14974909997545183,0.048531899927183986,0.0475874999538064,0.10165069997310638,0.10058520012535155,0.7500481999013573
RSVPLG03,md,20251104-112321,1.0.1,20251020-085245,733,Experiment,Both,1,Automatic,main,93,20251104-113134,global,local,750,S,H,E,A,S-E.png,A-H.png,sS,hH,mask-2.png,mask-4.png,s,1,0.32565690018236637,h,1,0.12059720000252128,0.04755320004187524,0.04661449999548495,0.10062250006012619,0.09893880016170442,0.7516826000064611
RSVPLG03,md,20251104-112321,1.0.1,20251020-085245,733,Experiment,Both,1,Automatic,main,94,20251104-113138,local,local,750,H,S,E,E,E-H.png,E-S.png,hH,sS,mask-3.png,mask-1.png,h,1,0.30618659988977015,s,1,0.1656734999269247,0.04768730001524091,0.04741090000607073,0.09957839990966022,0.10016250004991889,0.7499386998824775
RSVPLG03,md,20251104-112321,1.0.1,20251020-085245,733,Experiment,Both,1,Automatic,main,95,20251104-113143,local,global,750,S,S,E,A,E-S.png,S-A.png,sS,sS,mask-1.png,mask-2.png,s,1,0.35086390003561974,h,0,0.2452650999184698,0.04652269999496639,0.04751950013451278,0.09954610001295805,0.09851450007408857,0.7502083999570459
RSVPLG03,md,20251104-112321,1.0.1,20251020-085245,733,Experiment,Both,1,Automatic,main,96,20251104-113148,local,global,300,H,H,A,A,A-H.png,H-A.png,hH,hH,mask-2.png,mask-2.png,h,1,1.1315255998633802,s,0,0.36360120004974306,0.04676789999939501,0.04772830009460449,0.10005990019999444,0.1009114000480622,0.2987742000259459
RSVPLG03,md,20251104-112321,1.0.1,20251020-085245,733,Experiment,Both,1,Automatic,main,97,20251104-113153,local,local,750,S,S,A,A,A-S.png,A-S.png,sS,sS,mask-3.png,mask-4.png,s,1,0.26282199984416366,s,1,0.12143990001641214,0.048533800058066845,0.0485489999409765,0.09978389996103942,0.10055470000952482,0.7499905999284238
RSVPLG03,md,20251104-112321,1.0.1,20251020-085245,733,Experiment,Both,1,Automatic,main,98,20251104-113158,global,local,300,S,S,A,E,S-A.png,E-S.png,sS,sS,mask-4.png,mask-3.png,s,1,0.6825977000407875,s,1,0.10066820005886257,0.045713100116699934,0.04773270012810826,0.09836969990283251,0.09999560005962849,0.2984714999329299
RSVPLG03,md,20251104-112321,1.0.1,20251020-085245,733,Experiment,Both,1,Automatic,main,99,20251104-113202,local,global,750,S,H,E,A,E-S.png,H-A.png,sS,hH,mask-3.png,mask-2.png,s,1,0.42684880015440285,s,0,0.6492159001063555,0.04706230014562607,0.04724150011315942,0.10007150005549192,0.10026950016617775,0.7496972000226378
RSVPLG03,md,20251104-112321,1.0.1,20251020-085245,733,Experiment,Both,1,Automatic,main,100,20251104-113207,global,global,300,S,S,E,A,S-E.png,S-A.png,sS,sS,mask-4.png,mask-2.png,s,1,1.1010726001113653,s,1,0.1884423999581486,0.04683640017174184,0.047504200134426355,0.09992410009726882,0.09955939999781549,0.30025490000844
RSVPLG03,md,20251104-112321,1.0.1,20251020-085245,733,Experiment,Both,1,Automatic,main,101,20251104-113226,local,global,300,S,H,E,A,E-S.png,H-A.png,sS,hH,mask-1.png,mask-4.png,s,1,0.27487379987724125,h,1,0.07515190006233752,0.04654770018532872,0.046517700189724565,0.09953830018639565,0.09962600003927946,0.3000074999872595
RSVPLG03,md,20251104-112321,1.0.1,20251020-085245,733,Experiment,Both,1,Automatic,main,102,20251104-113230,global,local,750,S,H,E,E,S-E.png,E-H.png,sS,hH,mask-3.png,mask-2.png,s,1,0.25134769990108907,h,1,0.11945719993673265,0.047419599955901504,0.04750630003400147,0.10131129994988441,0.10049340012483299,0.7500954999122769
RSVPLG03,md,20251104-112321,1.0.1,20251020-085245,733,Experiment,Both,1,Automatic,main,103,20251104-113234,local,local,750,H,S,E,A,E-H.png,A-S.png,hH,sS,mask-4.png,mask-3.png,s,0,0.683119700057432,s,1,0.0765644998755306,0.0457309999037534,0.04862020001746714,0.09975149994716048,0.10206249984912574,0.7476391999516636
RSVPLG03,md,20251104-112321,1.0.1,20251020-085245,733,Experiment,Both,1,Automatic,main,104,20251104-113239,local,local,300,H,H,A,A,A-H.png,A-H.png,hH,hH,mask-4.png,mask-4.png,h,1,0.8173259999603033,s,0,0.16826670011505485,0.04744120012037456,0.04750780016183853,0.09880829998292029,0.0989028001204133,0.2999106999486685
RSVPLG03,md,20251104-112321,1.0.1,20251020-085245,733,Experiment,Both,1,Automatic,main,105,20251104-113244,local,global,300,S,S,E,E,E-S.png,S-E.png,sS,sS,mask-3.png,mask-2.png,s,1,0.32394349994137883,h,0,0.1406904999166727,0.04760709987021983,0.04784370004199445,0.10077849985100329,0.09991359990090132,0.3001488000154495
RSVPLG03,md,20251104-112321,1.0.1,20251020-085245,733,Experiment,Both,1,Automatic,main,106,20251104-113248,local,global,750,H,S,A,A,A-H.png,S-A.png,hH,sS,mask-4.png,mask-4.png,h,1,0.30285140010528266,s,1,0.25838340003974736,0.04571050009690225,0.047572199953719974,0.09969560010358691,0.09959520003758371,0.7498306001070887
RSVPLG03,md,20251104-112321,1.0.1,20251020-085245,733,Experiment,Both,1,Automatic,main,107,20251104-113253,global,global,300,H,H,A,E,H-A.png,H-E.png,hH,hH,mask-2.png,mask-3.png,h,1,0.31902500009164214,h,1,0.11785000003874302,0.04758269991725683,0.04758029989898205,0.10061179986223578,0.09961430006660521,0.30004379991441965
RSVPLG03,md,20251104-112321,1.0.1,20251020-085245,733,Experiment,Both,1,Automatic,main,108,20251104-113257,local,global,300,H,H,A,E,A-H.png,H-E.png,hH,hH,mask-1.png,mask-1.png,h,1,0.3756880001164973,h,1,0.15514669986441731,0.04669369990006089,0.04772210004739463,0.0988975998479873,0.09993310016579926,0.299542399821803
RSVPLG03,md,20251104-112321,1.0.1,20251020-085245,733,Experiment,Both,1,Automatic,main,109,20251104-113301,local,global,300,S,H,E,E,E-S.png,H-E.png,sS,hH,mask-1.png,mask-1.png,s,1,0.30665930011309683,h,1,0.16529450006783009,0.047730399994179606,0.04772669984959066,0.09997910005040467,0.10078089986927807,0.3005703000817448
RSVPLG03,md,20251104-112321,1.0.1,20251020-085245,733,Experiment,Both,1,Automatic,main,110,20251104-113305,local,local,300,H,S,A,E,A-H.png,E-S.png,hH,sS,mask-3.png,mask-1.png,h,1,0.25215270020999014,s,1,0.06567539996467531,0.04815350007265806,0.04752649995498359,0.10028150002472103,0.09855169989168644,0.300563600147143
RSVPLG03,md,20251104-112321,1.0.1,20251020-085245,733,Experiment,Both,1,Automatic,main,111,20251104-113310,local,local,300,S,H,A,E,A-S.png,E-H.png,sS,hH,mask-4.png,mask-2.png,s,1,0.36889529996551573,h,1,0.5291338998358697,0.04739359999075532,0.047662399942055345,0.09842709987424314,0.09968050010502338,0.2987404998857528
RSVPLG03,md,20251104-112321,1.0.1,20251020-085245,733,Experiment,Both,1,Automatic,main,112,20251104-113314,local,global,300,H,H,E,A,E-H.png,H-A.png,hH,hH,mask-2.png,mask-3.png,h,1,0.3611030001193285,s,0,0.08444170001894236,0.04852079995907843,0.04851790005341172,0.1005479998420924,0.10053980001248419,0.29983359994366765
RSVPLG03,md,20251104-112321,1.0.1,20251020-085245,733,Experiment,Both,1,Automatic,main,113,20251104-113318,global,local,750,H,S,A,E,H-A.png,E-S.png,hH,sS,mask-4.png,mask-2.png,h,1,0.5184635000769049,s,1,0.14654540014453232,0.04860450001433492,0.04751179995946586,0.0997252999804914,0.09961010003462434,0.7498715999536216
RSVPLG03,md,20251104-112321,1.0.1,20251020-085245,733,Experiment,Both,1,Automatic,main,114,20251104-113323,local,global,300,S,S,A,A,A-S.png,S-A.png,sS,sS,mask-4.png,mask-4.png,h,0,0.3339303999673575,h,0,0.9842026999685913,0.04749399982392788,0.04554249998182058,0.09951799991540611,0.09853630000725389,0.30118820001371205
RSVPLG03,md,20251104-112321,1.0.1,20251020-085245,733,Experiment,Both,1,Automatic,main,115,20251104-113328,local,local,750,S,S,E,E,E-S.png,E-S.png,sS,sS,mask-4.png,mask-4.png,s,1,0.3235167001839727,s,1,0.12258740002289414,0.04749829997308552,0.04751960001885891,0.10148640000261366,0.09952659998089075,0.7514901000540704
RSVPLG03,md,20251104-112321,1.0.1,20251020-085245,733,Experiment,Both,1,Automatic,main,116,20251104-113332,global,global,300,H,S,A,E,H-A.png,S-E.png,hH,sS,mask-1.png,mask-1.png,h,1,0.3328155998606235,s,1,0.005770500050857663,0.04873010003939271,0.04672169988043606,0.10090780002065003,0.09967549983412027,0.301632400136441
RSVPLG03,md,20251104-112321,1.0.1,20251020-085245,733,Experiment,Both,1,Automatic,main,117,20251104-113337,global,global,750,S,S,A,A,S-A.png,S-A.png,sS,sS,mask-3.png,mask-2.png,s,1,0.3036042999010533,s,1,0.1057235999032855,0.04667579988017678,0.04766419995576143,0.10086449980735779,0.09986110008321702,0.7505305998492986
RSVPLG03,md,20251104-112321,1.0.1,20251020-085245,733,Experiment,Both,1,Automatic,main,118,20251104-113341,global,global,750,H,S,E,A,H-E.png,S-A.png,hH,sS,mask-1.png,mask-2.png,h,1,0.25844640005379915,s,1,0.1185502998996526,0.04696609987877309,0.04817900015041232,0.10015939990989864,0.10018960013985634,0.7498339999001473
RSVPLG03,md,20251104-112321,1.0.1,20251020-085245,733,Experiment,Both,1,Automatic,main,119,20251104-113346,local,local,750,H,H,E,A,E-H.png,A-H.png,hH,hH,mask-4.png,mask-1.png,h,1,0.3876040999311954,h,1,0.10582690010778606,0.04859529994428158,0.04652510001324117,0.09968029987066984,0.09783930005505681,0.7511748999822885
RSVPLG03,md,20251104-112321,1.0.1,20251020-085245,733,Experiment,Both,1,Automatic,main,120,20251104-113350,local,local,750,S,H,A,E,A-S.png,E-H.png,sS,hH,mask-3.png,mask-2.png,s,1,0.3491217000409961,h,1,0.1558354999870062,0.04756240011192858,0.04653099994175136,0.100616600131616,0.0995579999871552,0.7510725001338869
RSVPLG03,md,20251104-112321,1.0.1,20251020-085245,733,Experiment,Both,1,Automatic,main,121,20251104-113355,local,local,300,S,S,A,E,A-S.png,E-S.png,sS,sS,mask-2.png,mask-1.png,s,1,0.34532810002565384,s,1,0.13291990011930466,0.04751790012232959,0.0471669000107795,0.10154590010643005,0.10123889986425638,0.2997511001303792
RSVPLG03,md,20251104-112321,1.0.1,20251020-085245,733,Experiment,Both,1,Automatic,main,122,20251104-113359,global,local,300,H,S,A,E,H-A.png,E-S.png,hH,sS,mask-4.png,mask-1.png,s,0,1.3199023001361638,s,1,0.5635929999407381,0.04767040000297129,0.04754449985921383,0.09981070016510785,0.10060320002958179,0.29948900011368096
RSVPLG03,md,20251104-112321,1.0.1,20251020-085245,733,Experiment,Both,1,Automatic,main,123,20251104-113405,global,local,300,S,S,A,E,S-A.png,E-S.png,sS,sS,mask-4.png,mask-4.png,s,1,0.41956300009042025,s,1,0.10140790021978319,0.04768920014612377,0.04681310011073947,0.09976620017550886,0.10000169998966157,0.2993602000642568
RSVPLG03,md,20251104-112321,1.0.1,20251020-085245,733,Experiment,Both,1,Automatic,main,124,20251104-113409,global,local,300,H,S,A,A,H-A.png,A-S.png,hH,sS,mask-2.png,mask-1.png,h,1,0.26452399999834597,h,0,0.2210352998226881,0.0479415999725461,0.04812199994921684,0.09998399997130036,0.09985639993101358,0.2997924000956118
RSVPLG03,md,20251104-112321,1.0.1,20251020-085245,733,Experiment,Both,1,Automatic,main,125,20251104-113414,global,global,300,S,H,E,A,S-E.png,H-A.png,sS,hH,mask-1.png,mask-3.png,s,1,0.30346249998547137,h,1,0.3105764000210911,0.047727299854159355,0.04848240013234317,0.09997079987078905,0.09974210010841489,0.3007030999287963
RSVPLG03,md,20251104-113513,1.0.1,20251020-085245,733,Experiment,Both,1,Automatic,warmup,1,20251104-113605,local,global,750,H,H,A,A,A-H.png,H-A.png,hH,hH,mask-3.png,mask-4.png,h,1,0.5224005999043584,h,1,0.09710370004177094,0.04288560012355447,0.04494559997692704,0.09455640008673072,0.09827090008184314,0.7451826999895275
RSVPLG03,md,20251104-113513,1.0.1,20251020-085245,733,Experiment,Both,1,Automatic,warmup,2,20251104-113610,global,global,750,S,S,A,E,S-A.png,S-E.png,sS,sS,mask-1.png,mask-3.png,s,1,0.28905140003189445,s,1,0.07360049989074469,0.048589899903163314,0.0469374000094831,0.1013604998588562,0.0999509000685066,0.7499230999965221
RSVPLG03,md,20251104-113513,1.0.1,20251020-085245,733,Experiment,Both,1,Automatic,warmup,3,20251104-113614,global,local,750,H,S,E,A,H-E.png,A-S.png,hH,sS,mask-3.png,mask-3.png,h,1,0.33365139993838966,s,1,0.22626459994353354,0.04572679987177253,0.04771069996058941,0.09794160001911223,0.10090550011955202,0.7479570999275893
RSVPLG03,md,20251104-113513,1.0.1,20251020-085245,733,Experiment,Both,1,Automatic,warmup,4,20251104-113619,global,global,300,S,S,A,A,S-A.png,S-A.png,sS,sS,mask-3.png,mask-4.png,s,1,0.48642430012114346,s,1,0.07654420007020235,0.04870330006815493,0.04597419989295304,0.09991160011850297,0.099238800117746,0.3005224000662565
RSVPLG03,md,20251104-113513,1.0.1,20251020-085245,733,Experiment,Both,1,Automatic,warmup,5,20251104-113623,global,local,300,H,S,A,A,H-A.png,A-S.png,hH,sS,mask-1.png,mask-2.png,h,1,0.37173129990696907,h,0,0.13508399995043874,0.04799400013871491,0.04755929997190833,0.09926110017113388,0.10066919983364642,0.29952660016715527
RSVPLG03,md,20251104-113513,1.0.1,20251020-085245,733,Experiment,Both,1,Automatic,main,6,20251104-113627,global,local,300,S,H,E,E,S-E.png,E-H.png,sS,hH,mask-4.png,mask-1.png,s,1,0.24679869995452464,s,0,0.6531175000127405,0.046742199920117855,0.04660899983718991,0.09888549987226725,0.09871269995346665,0.3001361000351608
RSVPLG03,md,20251104-113513,1.0.1,20251020-085245,733,Experiment,Both,1,Automatic,main,7,20251104-113632,local,local,300,S,S,A,A,A-S.png,A-S.png,sS,sS,mask-3.png,mask-1.png,s,1,0.38068550010211766,s,1,0.07705809990875423,0.04770580003969371,0.0457077999599278,0.10091480007395148,0.09889909997582436,0.3013431001454592
RSVPLG03,md,20251104-113513,1.0.1,20251020-085245,733,Experiment,Both,1,Automatic,main,8,20251104-113636,local,global,300,H,H,A,E,A-H.png,H-E.png,hH,hH,mask-1.png,mask-4.png,h,1,0.4272584000136703,s,0,0.056519299978390336,0.04674099991098046,0.04830749984830618,0.0980124999769032,0.09951039985753596,0.29801869997754693
RSVPLG03,md,20251104-113513,1.0.1,20251020-085245,733,Experiment,Both,1,Automatic,main,9,20251104-113641,local,global,750,S,H,A,E,A-S.png,H-E.png,sS,hH,mask-1.png,mask-3.png,s,1,0.29657580005005,s,0,0.7448587000835687,0.04744049999862909,0.04856120003387332,0.10028780018910766,0.09966020006686449,0.7503726000431925
RSVPLG03,md,20251104-113513,1.0.1,20251020-085245,733,Experiment,Both,1,Automatic,main,10,20251104-113646,local,global,750,H,S,E,E,E-H.png,S-E.png,hH,sS,mask-4.png,mask-1.png,h,1,0.33978250017389655,s,1,0.12222340004518628,0.04679950000718236,0.04784590005874634,0.09987769997678697,0.10012220009230077,0.7488361999858171
RSVPLG03,md,20251104-113513,1.0.1,20251020-085245,733,Experiment,Both,1,Automatic,main,11,20251104-113651,global,global,300,S,H,A,A,S-A.png,H-A.png,sS,hH,mask-1.png,mask-4.png,s,1,0.34507669997401536,h,1,0.6232041001785547,0.046584200114011765,0.04571199999190867,0.09961330005899072,0.09997890004888177,0.3000743000302464
RSVPLG03,md,20251104-113513,1.0.1,20251020-085245,733,Experiment,Both,1,Automatic,main,12,20251104-113655,global,global,750,H,S,A,E,H-A.png,S-E.png,hH,sS,mask-2.png,mask-1.png,h,1,0.4350009998306632,s,1,0.0502772000618279,0.04767829994671047,0.048015099950134754,0.09966379986144602,0.10009679989889264,0.7497640999499708
RSVPLG03,md,20251104-113513,1.0.1,20251020-085245,733,Experiment,Both,1,Automatic,main,13,20251104-113700,local,global,750,H,S,E,A,E-H.png,S-A.png,hH,sS,mask-3.png,mask-4.png,h,1,0.34718809998594224,s,1,0.1383694999385625,0.04862309992313385,0.04774489998817444,0.10080919996835291,0.10083239991217852,0.7499891999177635
RSVPLG03,md,20251104-113513,1.0.1,20251020-085245,733,Experiment,Both,1,Automatic,main,14,20251104-113705,global,global,750,H,H,A,A,H-A.png,H-A.png,hH,hH,mask-3.png,mask-1.png,h,1,0.12286750017665327,h,1,0.12022309983149171,0.04875340010039508,0.048731999937444925,0.10004170006141067,0.1000251998193562,0.7493244002107531
RSVPLG03,md,20251104-113513,1.0.1,20251020-085245,733,Experiment,Both,1,Automatic,main,15,20251104-113709,local,global,750,S,S,A,E,A-S.png,S-E.png,sS,sS,mask-3.png,mask-1.png,s,1,0.36524289986118674,s,1,0.49303869996219873,0.04651649994775653,0.04754359996877611,0.09856679989024997,0.09917509998194873,0.7489825999364257
RSVPLG03,md,20251104-113513,1.0.1,20251020-085245,733,Experiment,Both,1,Automatic,main,16,20251104-113714,local,global,750,H,S,A,E,A-H.png,S-E.png,hH,sS,mask-1.png,mask-4.png,h,1,0.39159699995070696,s,1,0.1450452001299709,0.047689600149169564,0.0476838001050055,0.10008100001141429,0.09987360006198287,0.7483415000606328
RSVPLG03,md,20251104-113513,1.0.1,20251020-085245,733,Experiment,Both,1,Automatic,main,17,20251104-113719,global,global,750,S,H,E,A,S-E.png,H-A.png,sS,hH,mask-4.png,mask-1.png,s,1,0.26651829993352294,h,1,0.07495889998972416,0.04768539988435805,0.046622500056400895,0.0998074000235647,0.09981920011341572,0.7499871999025345
RSVPLG03,md,20251104-113513,1.0.1,20251020-085245,733,Experiment,Both,1,Automatic,main,18,20251104-113723,local,global,300,S,H,A,E,A-S.png,H-E.png,sS,hH,mask-1.png,mask-4.png,s,1,0.3438103999942541,h,1,0.16591639979742467,0.04760989989154041,0.048846099991351366,0.09884130000136793,0.100075300084427,0.29877799982205033
RSVPLG03,md,20251104-113513,1.0.1,20251020-085245,733,Experiment,Both,1,Automatic,main,19,20251104-113727,global,global,300,H,S,A,E,H-A.png,S-E.png,hH,sS,mask-4.png,mask-2.png,h,1,0.3024771998170763,s,1,0.7630116001237184,0.047672699904069304,0.04573090001940727,0.09888029983267188,0.09991039987653494,0.30012409994378686
RSVPLG03,md,20251104-113513,1.0.1,20251020-085245,733,Experiment,Both,1,Automatic,main,20,20251104-113732,global,global,750,S,H,A,A,S-A.png,H-A.png,sS,hH,mask-2.png,mask-3.png,s,1,0.23903639987111092,h,1,0.09261050005443394,0.04653049982152879,0.0482180998660624,0.09957269998267293,0.099083999870345,0.7489648000337183
RSVPLG03,md,20251104-113513,1.0.1,20251020-085245,733,Experiment,Both,1,Automatic,main,21,20251104-113737,global,global,300,S,H,E,A,S-E.png,H-A.png,sS,hH,mask-2.png,mask-1.png,s,1,0.29582689981907606,h,1,0.10067870002239943,0.04759200010448694,0.04659679997712374,0.09961790009401739,0.09860510006546974,0.3001991999335587
RSVPLG03,md,20251104-113513,1.0.1,20251020-085245,733,Experiment,Both,1,Automatic,main,22,20251104-113741,local,global,300,S,H,A,E,A-S.png,H-E.png,sS,hH,mask-1.png,mask-2.png,h,0,0.34171000006608665,h,1,0.7952516002114862,0.047588299959897995,0.04753169999457896,0.09960639989003539,0.10054580005817115,0.298964099958539
RSVPLG03,md,20251104-113513,1.0.1,20251020-085245,733,Experiment,Both,1,Automatic,main,23,20251104-113746,global,local,750,H,S,E,E,H-E.png,E-S.png,hH,sS,mask-4.png,mask-2.png,h,1,0.2362187998369336,s,1,0.18589439988136292,0.0466841000597924,0.04799049999564886,0.09987840009853244,0.10108350007794797,0.7481390000320971
RSVPLG03,md,20251104-113513,1.0.1,20251020-085245,733,Experiment,Both,1,Automatic,main,24,20251104-113751,global,global,300,S,H,A,E,S-A.png,H-E.png,sS,hH,mask-2.png,mask-3.png,s,1,0.3729682001285255,h,1,0.04234859999269247,0.048630699981004,0.04768359987065196,0.10066370014101267,0.09880269994027913,0.3010083001572639
RSVPLG03,md,20251104-113513,1.0.1,20251020-085245,733,Experiment,Both,1,Automatic,main,25,20251104-113755,local,global,750,H,S,A,E,A-H.png,S-E.png,hH,sS,mask-4.png,mask-1.png,h,1,0.28629499999806285,s,1,0.7734429000411183,0.04693219996988773,0.046583599876612425,0.10103469993919134,0.09921499993652105,0.7498896999750286
RSVPLG03,md,20251104-113513,1.0.1,20251020-085245,733,Experiment,Both,1,Automatic,main,26,20251104-113826,local,global,750,S,S,E,E,E-S.png,S-E.png,sS,sS,mask-2.png,mask-4.png,s,1,0.2152180999983102,s,1,0.2970418001059443,0.04670310020446777,0.046753899892792106,0.0999549999833107,0.09996629995293915,0.7500506001524627
RSVPLG03,md,20251104-113513,1.0.1,20251020-085245,733,Experiment,Both,1,Automatic,main,27,20251104-113831,global,global,750,S,H,E,E,S-E.png,H-E.png,sS,hH,mask-4.png,mask-3.png,s,1,0.2690835997927934,h,1,0.12263550003990531,0.047730799997225404,0.047714800108224154,0.09999049990437925,0.09996569994837046,0.7499833998735994
RSVPLG03,md,20251104-113513,1.0.1,20251020-085245,733,Experiment,Both,1,Automatic,main,28,20251104-113836,global,local,300,H,S,A,E,H-A.png,E-S.png,hH,sS,mask-3.png,mask-4.png,h,1,0.26018540002405643,s,1,0.01186159998178482,0.047676100162789226,0.04569069994613528,0.09989210008643568,0.09887650003656745,0.3014849000610411
RSVPLG03,md,20251104-113513,1.0.1,20251020-085245,733,Experiment,Both,1,Automatic,main,29,20251104-113840,global,global,300,H,H,E,E,H-E.png,H-E.png,hH,hH,mask-3.png,mask-3.png,h,1,0.37073989980854094,h,1,0.16599430004134774,0.047429800033569336,0.046672399854287505,0.09893580013886094,0.09957159985788167,0.2992057001683861
RSVPLG03,md,20251104-113513,1.0.1,20251020-085245,733,Experiment,Both,1,Automatic,main,30,20251104-113844,local,local,750,S,H,E,E,E-S.png,E-H.png,sS,hH,mask-3.png,mask-3.png,s,1,0.35476949997246265,h,1,0.20112879993394017,0.047701200004667044,0.04749409994110465,0.09919549990445375,0.09915479994378984,0.7496821000240743
RSVPLG03,md,20251104-113513,1.0.1,20251020-085245,733,Experiment,Both,1,Automatic,main,31,20251104-113849,local,global,750,S,S,E,E,E-S.png,S-E.png,sS,sS,mask-4.png,mask-2.png,s,1,0.5368677999358624,s,1,0.6143879001028836,0.04695380013436079,0.0467505999840796,0.09851699997670949,0.09986210009083152,0.7493088999763131
RSVPLG03,md,20251104-113513,1.0.1,20251020-085245,733,Experiment,Both,1,Automatic,main,32,20251104-113854,local,local,300,H,H,A,A,A-H.png,A-H.png,hH,hH,mask-3.png,mask-1.png,h,1,0.3023996998090297,h,1,0.12386819999665022,0.047518800012767315,0.04754759999923408,0.09952550008893013,0.09957269998267293,0.2997940999921411
RSVPLG03,md,20251104-113513,1.0.1,20251020-085245,733,Experiment,Both,1,Automatic,main,33,20251104-113858,local,global,300,S,S,A,E,A-S.png,S-E.png,sS,sS,mask-3.png,mask-1.png,s,1,0.4636375999543816,s,1,1.419739400036633,0.04771949979476631,0.04788740002550185,0.09996039979159832,0.10011400002986193,0.29963099979795516
RSVPLG03,md,20251104-113513,1.0.1,20251020-085245,733,Experiment,Both,1,Automatic,main,34,20251104-113904,global,global,300,H,S,A,E,H-A.png,S-E.png,hH,sS,mask-3.png,mask-3.png,h,1,0.2685112999752164,s,1,0.11549969995394349,0.04572930000722408,0.047829899936914444,0.0981954000890255,0.1000326001085341,0.29839150002226233
RSVPLG03,md,20251104-113513,1.0.1,20251020-085245,733,Experiment,Both,1,Automatic,main,35,20251104-113908,local,local,750,S,H,E,E,E-S.png,E-H.png,sS,hH,mask-1.png,mask-2.png,s,1,0.2614659999962896,h,1,0.13607300003059208,0.04910709988325834,0.047523700166493654,0.10010889987461269,0.09981700009666383,0.750693499809131
RSVPLG03,md,20251104-113513,1.0.1,20251020-085245,733,Experiment,Both,1,Automatic,main,36,20251104-113913,global,local,750,H,H,A,A,H-A.png,A-H.png,hH,hH,mask-3.png,mask-4.png,h,1,0.7648334999103099,h,1,0.2016699998639524,0.046716699842363596,0.04654549993574619,0.09997339989058673,0.0994297000579536,0.7499076998792589
RSVPLG03,md,20251104-113513,1.0.1,20251020-085245,733,Experiment,Both,1,Automatic,main,37,20251104-113918,local,global,750,H,S,A,A,A-H.png,S-A.png,hH,sS,mask-3.png,mask-2.png,h,1,0.3963069000747055,s,1,0.5218604998663068,0.04772850009612739,0.04769710008986294,0.09902950003743172,0.09962129988707602,0.7486493000760674
RSVPLG03,md,20251104-113513,1.0.1,20251020-085245,733,Experiment,Both,1,Automatic,main,38,20251104-113923,local,local,750,H,H,E,A,E-H.png,A-H.png,hH,hH,mask-2.png,mask-4.png,h,1,0.7393214998301119,h,1,0.11420509987510741,0.047124600037932396,0.04774579987861216,0.10038259997963905,0.0998446000739932,0.7487254000734538
RSVPLG03,md,20251104-113513,1.0.1,20251020-085245,733,Experiment,Both,1,Automatic,main,39,20251104-113928,global,local,300,H,S,A,A,H-A.png,A-S.png,hH,sS,mask-1.png,mask-4.png,h,1,0.22556150006130338,h,0,0.8149804000277072,0.04650419997051358,0.047514399979263544,0.09854539996013045,0.09955559996888041,0.29874520003795624
RSVPLG03,md,20251104-113513,1.0.1,20251020-085245,733,Experiment,Both,1,Automatic,main,40,20251104-113933,global,local,300,H,H,E,E,H-E.png,E-H.png,hH,hH,mask-3.png,mask-4.png,h,1,0.2950734000187367,s,0,0.1874904001597315,0.047666499856859446,0.04566500009968877,0.09984529996290803,0.09986670012585819,0.3014796997886151
RSVPLG03,md,20251104-113513,1.0.1,20251020-085245,733,Experiment,Both,1,Automatic,main,41,20251104-113937,local,global,750,H,H,E,A,E-H.png,H-A.png,hH,hH,mask-4.png,mask-4.png,h,1,0.3573879001196474,h,1,0.12425400014035404,0.04743189993314445,0.04758869996294379,0.10143140004947782,0.09962880006060004,0.7494216000195593
RSVPLG03,md,20251104-113513,1.0.1,20251020-085245,733,Experiment,Both,1,Automatic,main,42,20251104-113942,global,local,300,S,S,E,E,S-E.png,E-S.png,sS,sS,mask-1.png,mask-3.png,s,1,0.20394579996354878,s,1,0.08819479984231293,0.047719999914988875,0.04765690001659095,0.09989909990690649,0.09985679993405938,0.29963600006885827
RSVPLG03,md,20251104-113513,1.0.1,20251020-085245,733,Experiment,Both,1,Automatic,main,43,20251104-113946,global,local,300,H,H,A,E,H-A.png,E-H.png,hH,hH,mask-1.png,mask-2.png,h,1,0.35102470009587705,s,0,0.11540320003405213,0.046695100143551826,0.04853510018438101,0.09849530016072094,0.10157530009746552,0.2987583000212908
RSVPLG03,md,20251104-113513,1.0.1,20251020-085245,733,Experiment,Both,1,Automatic,main,44,20251104-113950,global,global,300,H,S,A,A,H-A.png,S-A.png,hH,sS,mask-2.png,mask-3.png,h,1,0.44403609982691705,s,1,0.13328999979421496,0.04577289987355471,0.048702900065109134,0.10006159986369312,0.09925030008889735,0.2986939998809248
RSVPLG03,md,20251104-113513,1.0.1,20251020-085245,733,Experiment,Both,1,Automatic,main,45,20251104-113954,global,local,750,H,H,E,E,H-E.png,E-H.png,hH,hH,mask-4.png,mask-4.png,h,1,1.0128089999780059,s,0,0.5730961998924613,0.04771739989519119,0.04790350003167987,0.09969739988446236,0.1004528000485152,0.7485920998733491
RSVPLG03,md,20251104-113513,1.0.1,20251020-085245,733,Experiment,Both,1,Automatic,main,46,20251104-114000,global,local,750,S,S,E,A,S-E.png,A-S.png,sS,sS,mask-3.png,mask-4.png,s,1,0.3993961999658495,h,0,0.10719969985075295,0.04873509984463453,0.047702700132504106,0.09999140002764761,0.10080060013569891,0.7502056998200715
RSVPLG03,md,20251104-113513,1.0.1,20251020-085245,733,Experiment,Both,1,Automatic,main,47,20251104-114005,global,global,300,H,S,A,A,H-A.png,S-A.png,hH,sS,mask-4.png,mask-3.png,h,1,0.2741800001822412,s,1,0.1530935000628233,0.045678599970415235,0.04855809989385307,0.0990512000862509,0.10159289999864995,0.2978566000238061
RSVPLG03,md,20251104-113513,1.0.1,20251020-085245,733,Experiment,Both,1,Automatic,main,48,20251104-114009,global,local,750,H,S,E,A,H-E.png,A-S.png,hH,sS,mask-3.png,mask-1.png,h,1,0.2707237000577152,s,1,0.23658840009011328,0.04840860003605485,0.0475167001131922,0.09949419996701181,0.10056690010242164,0.7491236999630928
RSVPLG03,md,20251104-113513,1.0.1,20251020-085245,733,Experiment,Both,1,Automatic,main,49,20251104-114014,local,local,750,H,S,A,E,A-H.png,E-S.png,hH,sS,mask-4.png,mask-4.png,h,1,0.2796799000352621,s,1,0.11210709996521473,0.04743749997578561,0.048631299985572696,0.10064650001004338,0.09988330001942813,0.7488172999583185
RSVPLG03,md,20251104-113513,1.0.1,20251020-085245,733,Experiment,Both,1,Automatic,main,50,20251104-114018,global,local,300,H,S,E,E,H-E.png,E-S.png,hH,sS,mask-1.png,mask-4.png,h,1,0.3693196000531316,s,1,0.038738299859687686,0.047627999912947416,0.04654600005596876,0.10069230012595654,0.09968580002896488,0.3001335000153631
RSVPLG03,md,20251104-113513,1.0.1,20251020-085245,733,Experiment,Both,1,Automatic,main,51,20251104-114052,local,local,750,H,H,A,E,A-H.png,E-H.png,hH,hH,mask-3.png,mask-2.png,h,1,0.5095164000522345,h,1,0.05678949994035065,0.047436799854040146,0.047195899998769164,0.10049359989352524,0.1002032000105828,0.7502199998125434
RSVPLG03,md,20251104-113513,1.0.1,20251020-085245,733,Experiment,Both,1,Automatic,main,52,20251104-114056,local,local,300,H,H,E,E,E-H.png,E-H.png,hH,hH,mask-4.png,mask-1.png,h,1,0.3687102000694722,h,1,0.05409569991752505,0.04670469998382032,0.04670900013297796,0.09907610015943646,0.09990590019151568,0.29972769995220006
RSVPLG03,md,20251104-113513,1.0.1,20251020-085245,733,Experiment,Both,1,Automatic,main,53,20251104-114100,global,local,750,H,S,A,E,H-A.png,E-S.png,hH,sS,mask-4.png,mask-2.png,h,1,0.34697280009277165,s,1,0.4432630999945104,0.0475486998911947,0.04598719999194145,0.10069859982468188,0.0998301999643445,0.7498915998730808
RSVPLG03,md,20251104-113513,1.0.1,20251020-085245,733,Experiment,Both,1,Automatic,main,54,20251104-114105,local,global,300,S,H,E,A,E-S.png,H-A.png,sS,hH,mask-1.png,mask-4.png,s,1,0.4403373000677675,h,1,0.012729000067338347,0.047981000039726496,0.04645129991695285,0.10069820005446672,0.09928179997950792,0.3010249000508338
RSVPLG03,md,20251104-113513,1.0.1,20251020-085245,733,Experiment,Both,1,Automatic,main,55,20251104-114109,local,global,750,H,H,E,A,E-H.png,H-A.png,hH,hH,mask-2.png,mask-1.png,h,1,0.44414860010147095,h,1,0.0880082999356091,0.0485880000051111,0.047695300076156855,0.09981640009209514,0.09920930000953376,0.7497109000105411
RSVPLG03,md,20251104-113513,1.0.1,20251020-085245,733,Experiment,Both,1,Automatic,main,56,20251104-114114,local,global,300,H,S,E,A,E-H.png,S-A.png,hH,sS,mask-1.png,mask-3.png,h,1,0.43559050001204014,s,1,0.011880500009283423,0.04771049995906651,0.04800860001705587,0.10097720008343458,0.10125990002416074,0.2994838000740856
RSVPLG03,md,20251104-113513,1.0.1,20251020-085245,733,Experiment,Both,1,Automatic,main,57,20251104-114118,global,local,750,H,H,A,E,H-A.png,E-H.png,hH,hH,mask-1.png,mask-4.png,h,1,0.3468192000873387,h,1,0.08967200014740229,0.04767890018410981,0.04768409999087453,0.09887040010653436,0.10086450004018843,0.7483942001126707
RSVPLG03,md,20251104-113513,1.0.1,20251020-085245,733,Experiment,Both,1,Automatic,main,58,20251104-114122,global,global,750,H,S,E,E,H-E.png,S-E.png,hH,sS,mask-1.png,mask-4.png,h,1,0.24135559983551502,s,1,0.008699800120666623,0.047699599992483854,0.04810569994151592,0.09917120006866753,0.09962940006516874,0.7487927000038326
RSVPLG03,md,20251104-113513,1.0.1,20251020-085245,733,Experiment,Both,1,Automatic,main,59,20251104-114127,local,local,300,S,S,E,E,E-S.png,E-S.png,sS,sS,mask-4.png,mask-3.png,s,1,0.4975384999997914,s,1,0.08262529992498457,0.0457118998747319,0.04673709999769926,0.0979263000190258,0.09893490001559258,0.2989888999145478
RSVPLG03,md,20251104-113513,1.0.1,20251020-085245,733,Experiment,Both,1,Automatic,main,60,20251104-114131,local,global,300,S,S,E,E,E-S.png,S-E.png,sS,sS,mask-1.png,mask-1.png,s,1,0.7354512999299914,h,0,0.20204679993912578,0.04766299994662404,0.04680950008332729,0.09986640000715852,0.09902420011349022,0.30081659997813404
RSVPLG03,md,20251104-113513,1.0.1,20251020-085245,733,Experiment,Both,1,Automatic,main,61,20251104-114136,local,local,750,S,H,A,E,A-S.png,E-H.png,sS,hH,mask-1.png,mask-2.png,s,1,0.3882416000124067,h,1,0.12148099998012185,0.047706399811431766,0.04768519988283515,0.10183819988742471,0.09992230008356273,0.749806199921295
RSVPLG03,md,20251104-113513,1.0.1,20251020-085245,733,Experiment,Both,1,Automatic,main,62,20251104-114140,global,global,750,S,H,A,A,S-A.png,H-A.png,sS,hH,mask-1.png,mask-3.png,s,1,0.3054402999114245,h,1,0.039610000094398856,0.04770340002141893,0.046669199829921126,0.10020099999383092,0.09902839991264045,0.7497681002132595
RSVPLG03,md,20251104-113513,1.0.1,20251020-085245,733,Experiment,Both,1,Automatic,main,63,20251104-114145,global,global,300,H,H,A,A,H-A.png,H-A.png,hH,hH,mask-3.png,mask-2.png,h,1,0.34894099994562566,h,1,0.08313030004501343,0.04774380009621382,0.04870409984141588,0.1009794999845326,0.09992649988271296,0.299796000123024
RSVPLG03,md,20251104-113513,1.0.1,20251020-085245,733,Experiment,Both,1,Automatic,main,64,20251104-114149,global,local,750,S,S,E,E,S-E.png,E-S.png,sS,sS,mask-1.png,mask-3.png,s,1,0.39138070004992187,s,1,0.0897647999227047,0.04768970003351569,0.045703599927946925,0.09989150008186698,0.09980130009353161,0.7500529000535607
RSVPLG03,md,20251104-113513,1.0.1,20251020-085245,733,Experiment,Both,1,Automatic,main,65,20251104-114154,global,global,750,H,S,E,E,H-E.png,S-E.png,hH,sS,mask-1.png,mask-3.png,h,1,0.4021893001627177,s,1,0.15601789997890592,0.04755189991556108,0.04589130007661879,0.10076539986766875,0.09994460013695061,0.7505816998891532
RSVPLG03,md,20251104-113513,1.0.1,20251020-085245,733,Experiment,Both,1,Automatic,main,66,20251104-114158,global,global,750,S,S,E,E,S-E.png,S-E.png,sS,sS,mask-1.png,mask-2.png,s,1,0.32672759983688593,s,1,0.10167500004172325,0.04669560003094375,0.04772359994240105,0.09892080002464354,0.09991939994506538,0.7495544000994414
RSVPLG03,md,20251104-113513,1.0.1,20251020-085245,733,Experiment,Both,1,Automatic,main,67,20251104-114203,local,local,300,S,H,A,A,A-S.png,A-H.png,sS,hH,mask-2.png,mask-2.png,s,1,0.635024799965322,h,1,0.30468319985084236,0.04656570008955896,0.04804140003398061,0.09960770001634955,0.1011838000267744,0.2992112000938505
RSVPLG03,md,20251104-113513,1.0.1,20251020-085245,733,Experiment,Both,1,Automatic,main,68,20251104-114208,global,global,750,H,S,E,A,H-E.png,S-A.png,hH,sS,mask-2.png,mask-4.png,h,1,0.24708759994246066,s,1,0.1011453999672085,0.04750620014965534,0.048503399826586246,0.1005005999468267,0.10053689987398684,0.7490724001545459
RSVPLG03,md,20251104-113513,1.0.1,20251020-085245,733,Experiment,Both,1,Automatic,main,69,20251104-114212,local,global,300,H,H,A,E,A-H.png,H-E.png,hH,hH,mask-1.png,mask-3.png,h,1,0.6028018000070006,s,0,0.14465090003795922,0.04760990012437105,0.04742279998026788,0.09964600019156933,0.100629499880597,0.29994640010409057
RSVPLG03,md,20251104-113513,1.0.1,20251020-085245,733,Experiment,Both,1,Automatic,main,70,20251104-114217,global,global,750,S,H,A,A,S-A.png,H-A.png,sS,hH,mask-3.png,mask-1.png,s,1,0.317615499952808,h,1,0.11718679987825453,0.048762200167402625,0.04855019995011389,0.10083920019678771,0.099811099935323,0.7496893000788987
RSVPLG03,md,20251104-113513,1.0.1,20251020-085245,733,Experiment,Both,1,Automatic,main,71,20251104-114221,global,local,750,S,S,E,A,S-E.png,A-S.png,sS,sS,mask-1.png,mask-2.png,s,1,0.5020778998732567,s,1,0.08614249993115664,0.046587000135332346,0.04769470007158816,0.09971340000629425,0.0997838000766933,0.7477581000421196
RSVPLG03,md,20251104-113513,1.0.1,20251020-085245,733,Experiment,Both,1,Automatic,main,72,20251104-114226,global,local,750,S,H,E,A,S-E.png,A-H.png,sS,hH,mask-3.png,mask-3.png,s,1,0.3549071999732405,h,1,0.07801689999178052,0.047528899973258376,0.048652400029823184,0.10145729989744723,0.10066730016842484,0.7487271998543292
RSVPLG03,md,20251104-113513,1.0.1,20251020-085245,733,Experiment,Both,1,Automatic,main,73,20251104-114231,local,local,750,S,H,A,E,A-S.png,E-H.png,sS,hH,mask-3.png,mask-3.png,s,1,0.42223879997618496,s,0,0.08626659982837737,0.04755769995972514,0.0457693999633193,0.10063689993694425,0.09991319989785552,0.7500877999700606
RSVPLG03,md,20251104-113513,1.0.1,20251020-085245,733,Experiment,Both,1,Automatic,main,74,20251104-114235,global,global,750,H,S,A,A,H-A.png,S-A.png,hH,sS,mask-3.png,mask-3.png,h,1,0.5874826000072062,s,1,0.5478267997968942,0.047550000017508864,0.047558800084516406,0.09958939999341965,0.09958290006034076,0.7499535998795182
RSVPLG03,md,20251104-113513,1.0.1,20251020-085245,733,Experiment,Both,1,Automatic,main,75,20251104-114241,global,local,300,H,H,A,E,H-A.png,E-H.png,hH,hH,mask-4.png,mask-3.png,h,1,0.31953239999711514,s,0,0.23367370013147593,0.0475173001177609,0.04783970001153648,0.10056570009328425,0.10093019995838404,0.2990846000611782
RSVPLG03,md,20251104-113513,1.0.1,20251020-085245,733,Experiment,Both,1,Automatic,main,76,20251104-114247,local,local,750,H,S,E,E,E-H.png,E-S.png,hH,sS,mask-1.png,mask-4.png,h,1,0.20836229994893074,s,1,0.002725200029090047,0.04752159980125725,0.04753009998239577,0.10153559991158545,0.10055450000800192,0.7497520998585969
RSVPLG03,md,20251104-113513,1.0.1,20251020-085245,733,Experiment,Both,1,Automatic,main,77,20251104-114252,global,local,300,H,S,A,A,H-A.png,A-S.png,hH,sS,mask-3.png,mask-4.png,h,1,0.3627103001344949,h,0,0.6987166001927108,0.04762430000118911,0.04753480013459921,0.09969109995290637,0.09862020006403327,0.30002189986407757
RSVPLG03,md,20251104-113513,1.0.1,20251020-085245,733,Experiment,Both,1,Automatic,main,78,20251104-114257,local,global,750,S,H,A,E,A-S.png,H-E.png,sS,hH,mask-1.png,mask-4.png,s,1,0.2959895001258701,h,1,0.1518387000542134,0.047366000013425946,0.04735179990530014,0.10037330002523959,0.10036189993843436,0.750005500158295
RSVPLG03,md,20251104-113513,1.0.1,20251020-085245,733,Experiment,Both,1,Automatic,main,79,20251104-114301,local,local,300,S,S,E,A,E-S.png,A-S.png,sS,sS,mask-4.png,mask-2.png,s,1,0.3845269000157714,s,1,0.09203050006181002,0.047513100085780025,0.046550000086426735,0.09856790001504123,0.09955419995822012,0.2998369000852108
RSVPLG03,md,20251104-113513,1.0.1,20251020-085245,733,Experiment,Both,1,Automatic,main,80,20251104-114306,global,local,300,H,H,A,E,H-A.png,E-H.png,hH,hH,mask-2.png,mask-1.png,h,1,0.2166198999620974,s,0,0.13798240013420582,0.04751299996860325,0.04751330008730292,0.09952219994738698,0.09956730017438531,0.30015339981764555
RSVPLG03,md,20251104-113513,1.0.1,20251020-085245,733,Experiment,Both,1,Automatic,main,81,20251104-114310,global,local,300,H,H,E,E,H-E.png,E-H.png,hH,hH,mask-3.png,mask-4.png,s,0,1.7569407001137733,h,1,0.13141540018841624,0.046905299881473184,0.048513999907299876,0.09811050002463162,0.10151720000430942,0.2984623999800533
RSVPLG03,md,20251104-113513,1.0.1,20251020-085245,733,Experiment,Both,1,Automatic,main,82,20251104-114316,local,local,750,S,H,E,A,E-S.png,A-H.png,sS,hH,mask-4.png,mask-1.png,s,1,0.430418899981305,h,1,0.11504280008375645,0.04767480003647506,0.04758940008468926,0.09894820000045002,0.10062739998102188,0.7479381000157446
RSVPLG03,md,20251104-113513,1.0.1,20251020-085245,733,Experiment,Both,1,Automatic,main,83,20251104-114320,local,local,300,S,H,A,E,A-S.png,E-H.png,sS,hH,mask-4.png,mask-4.png,s,1,0.5392846998292953,h,1,0.3234288999810815,0.045721600065007806,0.048788700019940734,0.09969060006551445,0.09975329996086657,0.2982684001326561
RSVPLG03,md,20251104-113513,1.0.1,20251020-085245,733,Experiment,Both,1,Automatic,main,84,20251104-114325,local,local,300,S,H,E,E,E-S.png,E-H.png,sS,hH,mask-3.png,mask-2.png,s,1,0.3807165001053363,h,1,0.08031259989365935,0.04776220000348985,0.04567640018649399,0.10013849986717105,0.09988210001029074,0.29975359980016947
RSVPLG03,md,20251104-113513,1.0.1,20251020-085245,733,Experiment,Both,1,Automatic,main,85,20251104-114329,global,global,750,S,H,E,A,S-E.png,H-A.png,sS,hH,mask-4.png,mask-4.png,s,1,0.24287209985777736,h,1,0.07361810002475977,0.04871080000884831,0.047686100006103516,0.09989130008034408,0.1011224000249058,0.7491159001365304
RSVPLG03,md,20251104-113513,1.0.1,20251020-085245,733,Experiment,Both,1,Automatic,main,86,20251104-114334,local,local,750,H,S,E,A,E-H.png,A-S.png,hH,sS,mask-4.png,mask-4.png,h,1,0.22388969990424812,s,1,0.12051139981485903,0.04779240000061691,0.047713799867779016,0.0992219999898225,0.09979190002195537,0.7494565001688898
RSVPLG03,md,20251104-113513,1.0.1,20251020-085245,733,Experiment,Both,1,Automatic,main,87,20251104-114338,local,global,300,H,S,A,A,A-H.png,S-A.png,hH,sS,mask-4.png,mask-3.png,h,1,0.35096250008791685,h,0,0.11004259996116161,0.04694319982081652,0.04698330000974238,0.09996499982662499,0.10005309991538525,0.29998019989579916
RSVPLG03,md,20251104-113513,1.0.1,20251020-085245,733,Experiment,Both,1,Automatic,main,88,20251104-114342,global,local,300,S,H,E,A,S-E.png,A-H.png,sS,hH,mask-1.png,mask-3.png,s,1,0.23111579986289144,s,0,0.07639589998871088,0.04757470008917153,0.04756650002673268,0.09957149997353554,0.10063689993694425,0.29993070010095835
RSVPLG03,md,20251104-113513,1.0.1,20251020-085245,733,Experiment,Both,1,Automatic,main,89,20251104-114346,global,local,750,H,H,A,E,H-A.png,E-H.png,hH,hH,mask-4.png,mask-1.png,h,1,0.3557440999429673,h,1,0.10052640014328063,0.04747210000641644,0.047572600189596415,0.10148869990371168,0.10075400001369417,0.7492495998740196
RSVPLG03,md,20251104-113513,1.0.1,20251020-085245,733,Experiment,Both,1,Automatic,main,90,20251104-114351,global,local,300,H,H,A,E,H-A.png,E-H.png,hH,hH,mask-4.png,mask-4.png,h,1,0.3654623001348227,s,0,0.10544239985756576,0.0471821001265198,0.04751749988645315,0.0984255000948906,0.09975179983302951,0.29804550018161535
RSVPLG03,md,20251104-113513,1.0.1,20251020-085245,733,Experiment,Both,1,Automatic,main,91,20251104-114355,local,global,300,H,H,E,E,E-H.png,H-E.png,hH,hH,mask-2.png,mask-4.png,h,1,0.3000938000623137,h,1,0.0818431000225246,0.047718700021505356,0.04872049996629357,0.09893279988318682,0.10093459999188781,0.29862939985468984
RSVPLG03,md,20251104-113513,1.0.1,20251020-085245,733,Experiment,Both,1,Automatic,main,92,20251104-114359,global,local,750,S,S,A,E,S-A.png,E-S.png,sS,sS,mask-3.png,mask-4.png,s,1,0.22517209989018738,s,1,0.07371079991571605,0.04764869995415211,0.04765109997242689,0.09985870006494224,0.09984320006333292,0.7494799999985844
RSVPLG03,md,20251104-113513,1.0.1,20251020-085245,733,Experiment,Both,1,Automatic,main,93,20251104-114404,global,local,750,S,H,A,A,S-A.png,A-H.png,sS,hH,mask-2.png,mask-4.png,s,1,0.1625173999927938,h,1,0.5372051999438554,0.04672280000522733,0.04850540007464588,0.09995139995589852,0.10151479998603463,0.7483079999219626
RSVPLG03,md,20251104-113513,1.0.1,20251020-085245,733,Experiment,Both,1,Automatic,main,94,20251104-114409,local,local,300,H,H,E,E,E-H.png,E-H.png,hH,hH,mask-1.png,mask-1.png,h,1,0.22968460014089942,h,1,0.08733329991810024,0.047684599878266454,0.04667309997603297,0.10187629982829094,0.0997438000049442,0.30052739987149835
RSVPLG03,md,20251104-113513,1.0.1,20251020-085245,733,Experiment,Both,1,Automatic,main,95,20251104-114413,local,global,300,S,H,A,E,A-S.png,H-E.png,sS,hH,mask-1.png,mask-3.png,s,1,0.6019576000981033,h,1,0.0707908000331372,0.049240600084885955,0.04750810004770756,0.10017730016261339,0.09960100008174777,0.3004207999911159
RSVPLG03,md,20251104-113513,1.0.1,20251020-085245,733,Experiment,Both,1,Automatic,main,96,20251104-114417,local,global,300,S,S,E,E,E-S.png,S-E.png,sS,sS,mask-2.png,mask-2.png,s,1,0.3972157998941839,h,0,0.5895473000127822,0.047542800195515156,0.047553000040352345,0.10008610016666353,0.0996486998628825,0.29942840011790395
RSVPLG03,md,20251104-113513,1.0.1,20251020-085245,733,Experiment,Both,1,Automatic,main,97,20251104-114421,local,global,300,S,S,E,E,E-S.png,S-E.png,sS,sS,mask-4.png,mask-1.png,s,1,0.6630706998985261,h,0,0.011542399879544973,0.047715599881485105,0.0487981999758631,0.0989934999961406,0.10120460018515587,0.29810169991105795
RSVPLG03,md,20251104-113513,1.0.1,20251020-085245,733,Experiment,Both,1,Automatic,main,98,20251104-114426,local,local,750,H,H,E,A,E-H.png,A-H.png,hH,hH,mask-4.png,mask-2.png,h,1,0.2551431998144835,h,1,0.12265440006740391,0.04748559999279678,0.04856080003082752,0.10067569999955595,0.09959939983673394,0.7494690001476556
RSVPLG03,md,20251104-113513,1.0.1,20251020-085245,733,Experiment,Both,1,Automatic,main,99,20251104-114430,local,global,300,S,S,E,A,E-S.png,S-A.png,sS,sS,mask-3.png,mask-1.png,s,1,0.2742859001737088,h,0,0.5000561999622732,0.04846070008352399,0.04749560006894171,0.0994728000368923,0.09950909996405244,0.29962379997596145
RSVPLG03,md,20251104-113513,1.0.1,20251020-085245,733,Experiment,Both,1,Automatic,main,100,20251104-114435,local,local,300,H,S,E,E,E-H.png,E-S.png,hH,sS,mask-3.png,mask-3.png,h,1,0.3606910000089556,s,1,0.13901449996046722,0.04680999997071922,0.04863690002821386,0.10135139990597963,0.09966400009579957,0.3003795000258833
RSVPLG03,md,20251104-113513,1.0.1,20251020-085245,733,Experiment,Both,1,Automatic,main,101,20251104-114459,local,local,300,H,H,E,E,E-H.png,E-H.png,hH,hH,mask-3.png,mask-3.png,h,1,1.2630737000145018,s,0,0.027792999986559153,0.049164900090545416,0.04683690005913377,0.10020169988274574,0.09983649989590049,0.3002373999916017
RSVPLG03,md,20251104-113513,1.0.1,20251020-085245,733,Experiment,Both,1,Automatic,main,102,20251104-114503,local,local,300,H,H,E,E,E-H.png,E-H.png,hH,hH,mask-3.png,mask-3.png,h,1,0.3470652000978589,h,1,0.09234059997834265,0.04752249992452562,0.04851850005798042,0.09961479995399714,0.09954710002057254,0.29996329988352954
RSVPLG03,md,20251104-113513,1.0.1,20251020-085245,733,Experiment,Both,1,Automatic,main,103,20251104-114508,local,local,750,S,H,A,A,A-S.png,A-H.png,sS,hH,mask-2.png,mask-3.png,s,1,0.49740280001424253,h,1,0.02638290007598698,0.04674179991707206,0.04764329991303384,0.09878690005280077,0.10071410005912185,0.748595800017938
RSVPLG03,md,20251104-113513,1.0.1,20251020-085245,733,Experiment,Both,1,Automatic,main,104,20251104-114512,global,global,300,H,H,A,E,H-A.png,H-E.png,hH,hH,mask-1.png,mask-4.png,h,1,0.5231453001033515,h,1,0.08509869989939034,0.04768710001371801,0.046619399916380644,0.09990070015192032,0.09980729990638793,0.30041150003671646
RSVPLG03,md,20251104-113513,1.0.1,20251020-085245,733,Experiment,Both,1,Automatic,main,105,20251104-114517,local,global,300,S,S,E,E,E-S.png,S-E.png,sS,sS,mask-3.png,mask-1.png,s,1,0.2638234000187367,s,1,0.06686830008402467,0.04864949989132583,0.047574000200256705,0.10070459987036884,0.10057480004616082,0.299784799804911
RSVPLG03,md,20251104-113513,1.0.1,20251020-085245,733,Experiment,Both,1,Automatic,main,106,20251104-114521,local,local,300,S,H,E,A,E-S.png,A-H.png,sS,hH,mask-4.png,mask-2.png,s,1,0.301657099975273,h,1,0.1064706000033766,0.047683600103482604,0.045636200113222,0.09988600015640259,0.09871040005236864,0.30154210003092885
RSVPLG03,md,20251104-113513,1.0.1,20251020-085245,733,Experiment,Both,1,Automatic,main,107,20251104-114525,local,local,750,H,H,E,A,E-H.png,A-H.png,hH,hH,mask-2.png,mask-3.png,h,1,0.33766079996712506,h,1,0.08599900011904538,0.04857320012524724,0.047601700061932206,0.09956520004197955,0.09862620010972023,0.7505242000333965
RSVPLG03,md,20251104-113513,1.0.1,20251020-085245,733,Experiment,Both,1,Automatic,main,108,20251104-114529,local,local,300,S,S,A,A,A-S.png,A-S.png,sS,sS,mask-3.png,mask-1.png,s,1,0.26898500020615757,s,1,0.07016319991089404,0.04559029988013208,0.04658810002729297,0.09966439986601472,0.09860699996352196,0.29897679993882775
RSVPLG03,md,20251104-113513,1.0.1,20251020-085245,733,Experiment,Both,1,Automatic,main,109,20251104-114533,global,global,300,H,S,A,E,H-A.png,S-E.png,hH,sS,mask-2.png,mask-4.png,h,1,0.21170879993587732,s,1,0.16575099993497133,0.047546699875965714,0.046539200004190207,0.10058589978143573,0.10017289989627898,0.2998639999423176
RSVPLG03,md,20251104-113513,1.0.1,20251020-085245,733,Experiment,Both,1,Automatic,main,110,20251104-114537,local,local,750,H,S,E,A,E-H.png,A-S.png,hH,sS,mask-1.png,mask-2.png,h,1,0.16967139998450875,s,1,0.10825300007127225,0.0475208000279963,0.04734169994480908,0.10070899990387261,0.10054049990139902,0.7502494000364095
RSVPLG03,md,20251104-113513,1.0.1,20251020-085245,733,Experiment,Both,1,Automatic,main,111,20251104-114542,global,global,300,H,H,A,E,H-A.png,H-E.png,hH,hH,mask-2.png,mask-1.png,h,1,0.23069270001724362,h,1,0.08735360018908978,0.04697300004772842,0.04688080004416406,0.10026400000788271,0.1009561000391841,0.2993425000458956
RSVPLG03,md,20251104-113513,1.0.1,20251020-085245,733,Experiment,Both,1,Automatic,main,112,20251104-114546,local,local,750,H,S,E,E,E-H.png,E-S.png,hH,sS,mask-2.png,mask-1.png,h,1,0.3001214999239892,s,1,0.16120660002343357,0.04674579994753003,0.047141899820417166,0.09796330006793141,0.09923339984379709,0.7482376000843942
RSVPLG03,md,20251104-113513,1.0.1,20251020-085245,733,Experiment,Both,1,Automatic,main,113,20251104-114551,global,local,300,S,S,E,A,S-E.png,A-S.png,sS,sS,mask-3.png,mask-4.png,s,1,0.2024450998287648,s,1,0.09078960004262626,0.0475016999989748,0.04759089997969568,0.10048159980215132,0.09928960003890097,0.2987638998311013
RSVPLG03,md,20251104-113513,1.0.1,20251020-085245,733,Experiment,Both,1,Automatic,main,114,20251104-114555,global,global,300,S,H,E,A,S-E.png,H-A.png,sS,hH,mask-2.png,mask-2.png,s,1,0.3594624998513609,s,0,0.10315910005010664,0.04766810010187328,0.04864450008608401,0.09943079994991422,0.10071699996478856,0.29960240004584193
RSVPLG03,md,20251104-113513,1.0.1,20251020-085245,733,Experiment,Both,1,Automatic,main,115,20251104-114559,local,local,300,S,S,E,A,E-S.png,A-S.png,sS,sS,mask-3.png,mask-1.png,s,1,0.23560629994608462,s,1,0.06989019992761314,0.04673120006918907,0.046704200096428394,0.10094389994628727,0.09991899994201958,0.3007157000247389
RSVPLG03,md,20251104-113513,1.0.1,20251020-085245,733,Experiment,Both,1,Automatic,main,116,20251104-114603,global,global,300,H,H,A,E,H-A.png,H-E.png,hH,hH,mask-3.png,mask-3.png,h,1,0.8032524001318961,s,0,0.21875669993460178,0.047687199898064137,0.04588019987568259,0.10091779986396432,0.10001889988780022,0.30055949999950826
RSVPLG03,md,20251104-113513,1.0.1,20251020-085245,733,Experiment,Both,1,Automatic,main,117,20251104-114608,global,global,750,H,H,E,A,H-E.png,H-A.png,hH,hH,mask-4.png,mask-3.png,h,1,0.3821000000461936,h,1,0.1239763000048697,0.04738330002874136,0.04736469988711178,0.09937749989330769,0.1005048998631537,0.7492613999638706
RSVPLG03,md,20251104-113513,1.0.1,20251020-085245,733,Experiment,Both,1,Automatic,main,118,20251104-114612,local,global,750,S,H,A,A,A-S.png,H-A.png,sS,hH,mask-1.png,mask-4.png,h,0,0.453147399937734,h,1,0.16305819991976023,0.0477309999987483,0.04785849992185831,0.0999115000013262,0.10092150000855327,0.7482454001437873
RSVPLG03,md,20251104-113513,1.0.1,20251020-085245,733,Experiment,Both,1,Automatic,main,119,20251104-114617,global,local,750,H,H,A,E,H-A.png,E-H.png,hH,hH,mask-1.png,mask-4.png,h,1,0.32238339981995523,h,1,0.10548010002821684,0.04779700003564358,0.04606269998475909,0.10006539989262819,0.09946259995922446,0.7502741999924183
RSVPLG03,md,20251104-113513,1.0.1,20251020-085245,733,Experiment,Both,1,Automatic,main,120,20251104-114622,local,global,750,H,S,A,E,A-H.png,S-E.png,hH,sS,mask-4.png,mask-4.png,h,1,0.3084684999193996,h,0,0.08497299998998642,0.04747069999575615,0.04742810013704002,0.10050309984944761,0.10045810020528734,0.7500850998330861
RSVPLG03,md,20251104-113513,1.0.1,20251020-085245,733,Experiment,Both,1,Automatic,main,121,20251104-114626,local,global,750,S,S,E,A,E-S.png,S-A.png,sS,sS,mask-2.png,mask-1.png,s,1,0.28266730019822717,h,0,0.11260470002889633,0.048741200007498264,0.04763659997843206,0.10005200002342463,0.10002380004152656,0.749498900026083
RSVPLG03,md,20251104-113513,1.0.1,20251020-085245,733,Experiment,Both,1,Automatic,main,122,20251104-114631,global,local,750,S,S,E,A,S-E.png,A-S.png,sS,sS,mask-3.png,mask-3.png,s,1,0.4872049998957664,h,0,0.12552520004101098,0.04763300018385053,0.0485833000857383,0.09971040021628141,0.10196590004488826,0.7478366000577807
RSVPLG03,md,20251104-113513,1.0.1,20251020-085245,733,Experiment,Both,1,Automatic,main,123,20251104-114636,global,global,300,H,S,E,A,H-E.png,S-A.png,hH,sS,mask-4.png,mask-3.png,h,1,0.17481730016879737,s,1,0.09513000003062189,0.047508700052276254,0.048539499985054135,0.10150310001336038,0.10160530009306967,0.2997812998946756
RSVPLG03,md,20251104-113513,1.0.1,20251020-085245,733,Experiment,Both,1,Automatic,main,124,20251104-114640,global,global,750,S,S,E,E,S-E.png,S-E.png,sS,sS,mask-1.png,mask-4.png,s,1,0.26750740013085306,s,1,0.08827450009994209,0.0474348000716418,0.047514399979263544,0.09833969990722835,0.10056270007044077,0.7480599000118673
RSVPLG03,md,20251104-113513,1.0.1,20251020-085245,733,Experiment,Both,1,Automatic,main,125,20251104-114644,global,local,300,S,S,E,E,S-E.png,E-S.png,sS,sS,mask-3.png,mask-4.png,s,1,0.38086609984748065,s,1,0.0522583001293242,0.04779069987125695,0.04751810012385249,0.10047389985993505,0.09894080017693341,0.3008770998567343
