exp,exp_initials,runtime,ver,modtime,sub,blocktype,targets,cuetype,mode,trialtype,trial,trialtime,t1_level,t2_level,t2_lag,t1,t2,distractor1,distractor2,stimfile1,stimfile2,t1_corr,t2_corr,maskfile1,maskfile2,t1_resp,t1_acc,t1_rt,t2_resp,t2_acc,t2_rt,t1_dur,t2_dur,t1mask_soa,t2mask_soa,t1t2_soa
RSVPLG03,cs,20260306-101753,1.0.2,20251105-084826,793,Introduction,T1,1,Automatic,main,1,20260306-101811,global,global,750,S,H,A,E,S-A.png,H-E.png,sS,hH,mask-4.png,mask-4.png,h,0,7.139837699942291,none,-5,0,0.09624290000647306,0.09655360004398972,0.197162099997513,0.2006606999784708,0.7471576000098139
RSVPLG03,cs,20260306-101753,1.0.2,20251105-084826,793,Introduction,T1,1,Automatic,main,2,20260306-101822,local,local,750,S,H,A,A,A-S.png,A-H.png,sS,hH,mask-2.png,mask-4.png,s,1,0.6642732999753207,none,-5,0,0.09709759999532253,0.09741599997505546,0.19911529996898025,0.2008670000359416,0.748013100004755
RSVPLG03,cs,20260306-101753,1.0.2,20251105-084826,793,Introduction,T1,1,Automatic,main,3,20260306-101827,global,local,750,S,H,A,A,S-A.png,A-H.png,sS,hH,mask-1.png,mask-1.png,h,0,1.7483493000036106,none,-5,0,0.09670830005779862,0.0991057000355795,0.20029560010880232,0.20056540006771684,0.7482930000405759
RSVPLG03,cs,20260306-101753,1.0.2,20251105-084826,793,Introduction,T1,1,Automatic,main,4,20260306-101833,local,local,750,H,S,E,E,E-H.png,E-S.png,hH,sS,mask-1.png,mask-2.png,h,1,1.962816199986264,none,-5,0,0.09589410002809018,0.09841940004844218,0.19910620001610368,0.20041560009121895,0.7476091999560595
RSVPLG03,cs,20260306-101753,1.0.2,20251105-084826,793,Introduction,T1,1,Automatic,main,5,20260306-101839,global,global,750,H,S,A,A,H-A.png,S-A.png,hH,sS,mask-1.png,mask-3.png,s,0,2.5435233999742195,none,-5,0,0.0974705999251455,0.09739909996278584,0.20044349995441735,0.1979132000124082,0.7499691999983042
RSVPLG03,cs,20260306-101753,1.0.2,20251105-084826,793,Introduction,T1,1,Automatic,main,6,20260306-101846,global,global,750,S,H,E,E,S-E.png,H-E.png,sS,hH,mask-4.png,mask-4.png,h,0,1.938061600085348,none,-5,0,0.09743009996600449,0.09774210001341999,0.19869119999930263,0.19925559998955578,0.7477885000407696
RSVPLG03,cs,20260306-101753,1.0.2,20251105-084826,793,Introduction,T1,1,Automatic,main,7,20260306-101852,local,global,750,H,S,E,E,E-H.png,S-E.png,hH,sS,mask-3.png,mask-2.png,s,0,1.3436951000476256,none,-5,0,0.09574620006605983,0.09738920000381768,0.19957529997918755,0.19837540003936738,0.7497297000372782
RSVPLG03,cs,20260306-101753,1.0.2,20251105-084826,793,Introduction,T1,1,Automatic,main,8,20260306-101858,global,local,750,H,H,E,E,H-E.png,E-H.png,hH,hH,mask-4.png,mask-3.png,h,1,0.8783707999391481,none,-5,0,0.09710800007451326,0.09844259999226779,0.19953280000481755,0.20087599998805672,0.7486907000420615
RSVPLG03,cs,20260306-101753,1.0.2,20251105-084826,793,Introduction,T1,1,Automatic,main,9,20260306-101903,global,local,750,H,S,A,E,H-A.png,E-S.png,hH,sS,mask-1.png,mask-2.png,s,0,0.5651571999769658,none,-5,0,0.09841129998676479,0.09767050005029887,0.20043520000763237,0.19958240003325045,0.7484350999584422
RSVPLG03,cs,20260306-101753,1.0.2,20251105-084826,793,Introduction,T1,1,Automatic,main,10,20260306-101907,local,local,750,S,H,E,A,E-S.png,A-H.png,sS,hH,mask-4.png,mask-1.png,s,1,0.2374781999969855,none,-5,0,0.09858360001817346,0.09855180000886321,0.20003409998025745,0.20059240004047751,0.7493395999772474
RSVPLG03,cs,20260306-101753,1.0.2,20251105-084826,793,Introduction,T1,1,Automatic,main,11,20260306-101912,local,local,750,S,S,E,A,E-S.png,A-S.png,sS,sS,mask-3.png,mask-2.png,s,1,0.3001440999796614,none,-5,0,0.09661089989822358,0.09741479996591806,0.19865059992298484,0.20071560004726052,0.7483738999580964
RSVPLG03,cs,20260306-101753,1.0.2,20251105-084826,793,Introduction,T1,1,Automatic,main,12,20260306-101916,local,global,750,H,S,E,A,E-H.png,S-A.png,hH,sS,mask-2.png,mask-3.png,h,1,0.3096295000286773,none,-5,0,0.09737049997784197,0.09634149994235486,0.20042579993605614,0.19761659996584058,0.7496796000050381
RSVPLG03,cs,20260306-101753,1.0.2,20251105-084826,793,Introduction,T1,1,Automatic,main,13,20260306-101921,global,global,750,H,S,E,E,H-E.png,S-E.png,hH,sS,mask-3.png,mask-1.png,s,0,2.779226499958895,none,-5,0,0.09767520008608699,0.09737430000677705,0.20055870001669973,0.2002834000159055,0.7484877000097185
RSVPLG03,cs,20260306-101753,1.0.2,20251105-084826,793,Introduction,T1,1,Automatic,main,14,20260306-101928,local,global,750,S,S,E,E,E-S.png,S-E.png,sS,sS,mask-3.png,mask-4.png,s,1,0.3659597000805661,none,-5,0,0.09751980006694794,0.09646919998340309,0.19891000003553927,0.2001705999718979,0.7490261000348255
RSVPLG03,cs,20260306-101753,1.0.2,20251105-084826,793,Introduction,T1,1,Automatic,main,15,20260306-101932,global,local,750,S,H,A,E,S-A.png,E-H.png,sS,hH,mask-1.png,mask-4.png,h,0,0.4833185999887064,none,-5,0,0.09847379999700934,0.09752459998708218,0.1995827000355348,0.20058840001001954,0.7485542000504211
RSVPLG03,cs,20260306-101753,1.0.2,20251105-084826,793,Introduction,T1,1,Automatic,main,16,20260306-101937,local,global,750,H,S,A,E,A-H.png,S-E.png,hH,sS,mask-3.png,mask-4.png,h,1,0.5705508999526501,none,-5,0,0.09837579994928092,0.09678430005442351,0.1992206999566406,0.19971780001651496,0.7485584999667481
RSVPLG03,cs,20260306-101959,1.0.2,20251105-084826,793,Practice,T1,1,Automatic,main,1,20260306-102021,global,global,750,S,H,E,E,S-E.png,H-E.png,sS,hH,mask-1.png,mask-2.png,s,1,1.7346313999732956,none,-5,0,0.040161199984140694,0.046705199987627566,0.09276289993431419,0.09907230001408607,0.7421226999722421
RSVPLG03,cs,20260306-101959,1.0.2,20251105-084826,793,Practice,T1,1,Automatic,main,2,20260306-102027,local,local,750,H,S,A,E,A-H.png,E-S.png,hH,sS,mask-1.png,mask-3.png,h,1,0.3488080999813974,none,-5,0,0.047681799973361194,0.04669170000124723,0.09986519999802113,0.09883789997547865,0.749263699981384
RSVPLG03,cs,20260306-101959,1.0.2,20251105-084826,793,Practice,T1,1,Automatic,main,3,20260306-102031,global,local,300,S,H,E,E,S-E.png,E-H.png,sS,hH,mask-1.png,mask-3.png,h,0,0.8237958999816328,none,-5,0,0.04671230004169047,0.04686270002275705,0.09990849997848272,0.09903949999716133,0.299599300022237
RSVPLG03,cs,20260306-101959,1.0.2,20251105-084826,793,Practice,T1,1,Automatic,main,4,20260306-102036,global,local,750,H,S,E,A,H-E.png,A-S.png,hH,sS,mask-1.png,mask-2.png,s,0,0.43841620010789484,none,-5,0,0.048348700045607984,0.048496700008399785,0.10050519998185337,0.10155270004179329,0.7479225000133738
RSVPLG03,cs,20260306-101959,1.0.2,20251105-084826,793,Practice,T1,1,Automatic,main,5,20260306-102040,global,global,300,H,S,A,A,H-A.png,S-A.png,hH,sS,mask-2.png,mask-4.png,s,0,1.0224792000371963,none,-5,0,0.04802210000343621,0.04882000002544373,0.1007140000583604,0.10000820003915578,0.29952520004007965
RSVPLG03,cs,20260306-101959,1.0.2,20251105-084826,793,Practice,T1,1,Automatic,main,6,20260306-102045,global,local,750,S,S,E,E,S-E.png,E-S.png,sS,sS,mask-1.png,mask-3.png,s,1,0.40649650001432747,none,-5,0,0.046705499989911914,0.04570010001771152,0.09921669994946569,0.09988049999810755,0.7496635999996215
RSVPLG03,cs,20260306-101959,1.0.2,20251105-084826,793,Practice,T1,1,Automatic,main,7,20260306-102050,global,local,300,H,S,E,A,H-E.png,A-S.png,hH,sS,mask-1.png,mask-2.png,s,0,3.501236299984157,none,-5,0,0.04720240004826337,0.04743780009448528,0.10018049995414913,0.09976980008650571,0.29963619995396584
RSVPLG03,cs,20260306-101959,1.0.2,20251105-084826,793,Practice,T1,1,Automatic,main,8,20260306-102057,global,global,300,S,S,A,E,S-A.png,S-E.png,sS,sS,mask-4.png,mask-4.png,h,0,1.7684103000210598,none,-5,0,0.04660999996121973,0.047530700103379786,0.1006311000091955,0.09954770002514124,0.299905699910596
RSVPLG03,cs,20260306-101959,1.0.2,20251105-084826,793,Practice,T1,1,Automatic,main,9,20260306-102102,global,global,750,H,S,E,E,H-E.png,S-E.png,hH,sS,mask-1.png,mask-2.png,s,0,1.3480458001140505,none,-5,0,0.04787070001475513,0.04749739996623248,0.0999747000169009,0.10049330000765622,0.7489592999918386
RSVPLG03,cs,20260306-101959,1.0.2,20251105-084826,793,Practice,T1,1,Automatic,main,10,20260306-102107,local,global,750,S,S,E,E,E-S.png,S-E.png,sS,sS,mask-1.png,mask-3.png,s,1,0.3159702999982983,none,-5,0,0.04759789991658181,0.04774210008326918,0.0993711999617517,0.10058440000284463,0.7487521999282762
RSVPLG03,cs,20260306-101959,1.0.2,20251105-084826,793,Practice,T1,1,Automatic,main,11,20260306-102112,local,local,300,H,S,E,E,E-H.png,E-S.png,hH,sS,mask-2.png,mask-4.png,h,1,0.768263699952513,none,-5,0,0.0480231000110507,0.04767790006007999,0.10027209995314479,0.09987160004675388,0.30081359995529056
RSVPLG03,cs,20260306-101959,1.0.2,20251105-084826,793,Practice,T1,1,Automatic,main,12,20260306-102116,local,global,750,S,H,A,E,A-S.png,H-E.png,sS,hH,mask-4.png,mask-4.png,s,1,0.45464559993706644,none,-5,0,0.047583900042809546,0.047655000002123415,0.09866030002012849,0.09970999998040497,0.747878500027582
RSVPLG03,cs,20260306-101959,1.0.2,20251105-084826,793,Practice,T1,1,Automatic,main,13,20260306-102120,local,local,300,H,S,E,E,E-H.png,E-S.png,hH,sS,mask-2.png,mask-2.png,h,1,0.24142139998730272,none,-5,0,0.046762899961322546,0.04779660003259778,0.09885119996033609,0.1000090999295935,0.2998371999710798
RSVPLG03,cs,20260306-101959,1.0.2,20251105-084826,793,Practice,T1,1,Automatic,main,14,20260306-102124,local,global,300,H,H,A,A,A-H.png,H-A.png,hH,hH,mask-4.png,mask-1.png,h,1,0.2511582000879571,none,-5,0,0.047694799955934286,0.04767929995432496,0.10094479995314032,0.09910170000512153,0.30058040004223585
RSVPLG03,cs,20260306-101959,1.0.2,20251105-084826,793,Practice,T1,1,Automatic,main,15,20260306-102128,local,local,750,S,H,E,E,E-S.png,E-H.png,sS,hH,mask-1.png,mask-1.png,s,1,0.3443142999894917,none,-5,0,0.04873479995876551,0.047656700015068054,0.10030479996930808,0.0987566999392584,0.7496438999660313
RSVPLG03,cs,20260306-101959,1.0.2,20251105-084826,793,Practice,T1,1,Automatic,main,16,20260306-102133,local,global,300,S,H,E,A,E-S.png,H-A.png,sS,hH,mask-2.png,mask-4.png,s,1,0.17802180000580847,none,-5,0,0.04750029998831451,0.04763520008418709,0.10065839998424053,0.09802640008274466,0.30025029997341335
RSVPLG03,cs,20260306-102151,1.0.2,20251105-084826,793,Practice,T1,1,Automatic,main,1,20260306-102218,global,global,750,H,S,A,A,H-A.png,S-A.png,hH,sS,mask-1.png,mask-1.png,s,0,1.3788806999800727,none,-5,0,0.03900059999432415,0.04651380004361272,0.09316309995483607,0.09953180002048612,0.7432648999383673
RSVPLG03,cs,20260306-102151,1.0.2,20251105-084826,793,Practice,T1,1,Automatic,main,2,20260306-102223,local,local,300,S,S,A,A,A-S.png,A-S.png,sS,sS,mask-1.png,mask-4.png,s,1,0.30256360000930727,none,-5,0,0.0476956000784412,0.048130700015462935,0.100744100054726,0.10017919994425029,0.3009795000543818
RSVPLG03,cs,20260306-102151,1.0.2,20251105-084826,793,Practice,T1,1,Automatic,main,3,20260306-102227,local,local,750,S,H,A,A,A-S.png,A-H.png,sS,hH,mask-3.png,mask-4.png,s,1,0.3533367000054568,none,-5,0,0.047508199932053685,0.047121399897150695,0.10055520001333207,0.10040699993260205,0.7493315000319853
RSVPLG03,cs,20260306-102151,1.0.2,20251105-084826,793,Practice,T1,1,Automatic,main,4,20260306-102231,global,global,750,H,H,A,E,H-A.png,H-E.png,hH,hH,mask-2.png,mask-1.png,h,1,1.7788940999889746,none,-5,0,0.045967900077812374,0.04849920002743602,0.09947770007420331,0.10172429995145649,0.7478778000222519
RSVPLG03,cs,20260306-102151,1.0.2,20251105-084826,793,Practice,T1,1,Automatic,main,5,20260306-102237,local,global,750,H,S,E,A,E-H.png,S-A.png,hH,sS,mask-3.png,mask-3.png,h,1,0.21908930002246052,none,-5,0,0.04709550004918128,0.04752839996945113,0.10000590002164245,0.09863360004965216,0.7510873000137508
RSVPLG03,cs,20260306-102151,1.0.2,20251105-084826,793,Practice,T1,1,Automatic,main,6,20260306-102241,local,local,750,S,H,E,A,E-S.png,A-H.png,sS,hH,mask-3.png,mask-4.png,s,1,0.32491620001383126,none,-5,0,0.04718880006112158,0.04856310004834086,0.09834090003278106,0.09917080006562173,0.7487636000150815
RSVPLG03,cs,20260306-102151,1.0.2,20251105-084826,793,Practice,T1,1,Automatic,main,7,20260306-102246,global,global,300,H,H,E,A,H-E.png,H-A.png,hH,hH,mask-3.png,mask-3.png,s,0,3.4538987999549136,none,-5,0,0.048720299964770675,0.048487699939869344,0.10026750003453344,0.10043640004005283,0.30030110001098365
RSVPLG03,cs,20260306-102151,1.0.2,20251105-084826,793,Practice,T1,1,Automatic,main,8,20260306-102253,global,local,300,H,H,E,A,H-E.png,A-H.png,hH,hH,mask-4.png,mask-3.png,h,1,0.5075873000314459,none,-5,0,0.04651599994394928,0.047539700055494905,0.09851309994701296,0.09950260003097355,0.29980029992293566
RSVPLG03,cs,20260306-102151,1.0.2,20251105-084826,793,Practice,T1,1,Automatic,main,9,20260306-102257,global,local,750,S,H,A,A,S-A.png,A-H.png,sS,hH,mask-3.png,mask-1.png,h,0,0.3316768000368029,none,-5,0,0.04853570007253438,0.04750320001039654,0.0996269000461325,0.09946749999653548,0.7516229000175372
RSVPLG03,cs,20260306-102151,1.0.2,20251105-084826,793,Practice,T1,1,Automatic,main,10,20260306-102301,global,local,300,H,H,E,E,H-E.png,E-H.png,hH,hH,mask-3.png,mask-4.png,s,0,1.0697432999731973,none,-5,0,0.047567700035870075,0.04760119994170964,0.100551399984397,0.10059549997095019,0.30015110003296286
RSVPLG03,cs,20260306-102151,1.0.2,20251105-084826,793,Practice,T1,1,Automatic,main,11,20260306-102306,local,global,300,H,H,A,A,A-H.png,H-A.png,hH,hH,mask-2.png,mask-1.png,h,1,0.3578374000499025,none,-5,0,0.04754180007148534,0.04767949995584786,0.09867230011150241,0.10127029998693615,0.29867590009234846
RSVPLG03,cs,20260306-102151,1.0.2,20251105-084826,793,Practice,T1,1,Automatic,main,12,20260306-102310,global,global,300,H,H,A,E,H-A.png,H-E.png,hH,hH,mask-2.png,mask-2.png,h,1,0.7000453999498859,none,-5,0,0.04739079996943474,0.0467971001053229,0.09988669992890209,0.10024739999789745,0.2999371999176219
RSVPLG03,cs,20260306-102151,1.0.2,20251105-084826,793,Practice,T1,1,Automatic,main,13,20260306-102314,local,global,750,S,S,A,E,A-S.png,S-E.png,sS,sS,mask-3.png,mask-4.png,s,1,0.28025750000961125,none,-5,0,0.04876010003499687,0.04766419995576143,0.1002347000176087,0.09992439998313785,0.7510467000538483
RSVPLG03,cs,20260306-102151,1.0.2,20251105-084826,793,Practice,T1,1,Automatic,main,14,20260306-102318,local,global,300,S,H,A,E,A-S.png,H-E.png,sS,hH,mask-4.png,mask-1.png,s,1,0.2956030999775976,none,-5,0,0.045742400106973946,0.04882499994710088,0.09993400005623698,0.10003850003704429,0.29835190006997436
RSVPLG03,cs,20260306-102151,1.0.2,20251105-084826,793,Practice,T1,1,Automatic,main,15,20260306-102322,local,local,300,S,H,A,E,A-S.png,E-H.png,sS,hH,mask-3.png,mask-2.png,s,1,0.24992510001175106,none,-5,0,0.046523199998773634,0.04767370002809912,0.09846699994523078,0.09985220001544803,0.2997584999538958
RSVPLG03,cs,20260306-102151,1.0.2,20251105-084826,793,Practice,T1,1,Automatic,main,16,20260306-102326,global,local,750,S,H,E,E,S-E.png,E-H.png,sS,hH,mask-3.png,mask-2.png,h,0,0.3498544000321999,none,-5,0,0.04761399992275983,0.04860300000291318,0.10065769997891039,0.10082119994331151,0.7493851999752223
RSVPLG03,cs,20260306-102344,1.0.2,20251105-084826,793,Practice,T1,1,Automatic,main,1,20260306-102401,local,global,750,H,H,A,E,A-H.png,H-E.png,hH,hH,mask-2.png,mask-2.png,h,1,1.5350848999805748,none,-5,0,0.046962000080384314,0.0477007000008598,0.10005820007063448,0.1007988000055775,0.7507523000240326
RSVPLG03,cs,20260306-102344,1.0.2,20251105-084826,793,Practice,T1,1,Automatic,main,2,20260306-102406,local,global,750,S,S,A,E,A-S.png,S-E.png,sS,sS,mask-4.png,mask-3.png,s,1,1.6792023000307381,none,-5,0,0.04775749996770173,0.047754500061273575,0.09841129998676479,0.09968230000231415,0.7497951999539509
RSVPLG03,cs,20260306-102344,1.0.2,20251105-084826,793,Practice,T1,1,Automatic,main,3,20260306-102411,local,local,300,S,H,E,A,E-S.png,A-H.png,sS,hH,mask-4.png,mask-3.png,s,1,0.6071650000521913,none,-5,0,0.0473533000331372,0.04768130008596927,0.10152599995490164,0.09908140008337796,0.30133129993919283
RSVPLG03,cs,20260306-102344,1.0.2,20251105-084826,793,Practice,T1,1,Automatic,main,4,20260306-102415,global,local,300,S,S,E,A,S-E.png,A-S.png,sS,sS,mask-2.png,mask-2.png,h,0,0.5922214000020176,none,-5,0,0.047765799914486706,0.04766340006608516,0.10194700001738966,0.10090610000770539,0.3008555999258533
RSVPLG03,cs,20260306-102344,1.0.2,20251105-084826,793,Practice,T1,1,Automatic,main,5,20260306-102419,global,local,750,S,H,E,E,S-E.png,E-H.png,sS,hH,mask-3.png,mask-4.png,s,1,0.4315734999254346,none,-5,0,0.04845269990619272,0.047701100003905594,0.10032619989942759,0.1007188999792561,0.7506018999265507
RSVPLG03,cs,20260306-102344,1.0.2,20251105-084826,793,Practice,T1,1,Automatic,main,6,20260306-102424,local,local,750,H,S,E,E,E-H.png,E-S.png,hH,sS,mask-1.png,mask-2.png,h,1,0.6103026999626309,none,-5,0,0.046745299943722785,0.04753390001133084,0.09968490002211183,0.10057879996020347,0.7497347999596968
RSVPLG03,cs,20260306-102344,1.0.2,20251105-084826,793,Practice,T1,1,Automatic,main,7,20260306-102428,local,local,300,S,H,A,E,A-S.png,E-H.png,sS,hH,mask-1.png,mask-2.png,s,1,0.48130949994083494,none,-5,0,0.04750450002029538,0.0482641999842599,0.09951129998080432,0.10136209998745471,0.2998946999432519
RSVPLG03,cs,20260306-102344,1.0.2,20251105-084826,793,Practice,T1,1,Automatic,main,8,20260306-102432,global,global,750,H,S,E,A,H-E.png,S-A.png,hH,sS,mask-4.png,mask-2.png,h,1,0.6254218999529257,none,-5,0,0.04834469989873469,0.047512900084257126,0.10142269998323172,0.10051340004429221,0.7514402999076992
RSVPLG03,cs,20260306-102344,1.0.2,20251105-084826,793,Practice,T1,1,Automatic,main,9,20260306-102437,local,global,300,S,H,A,A,A-S.png,H-A.png,sS,hH,mask-4.png,mask-2.png,s,1,0.47541249997448176,none,-5,0,0.04847100004553795,0.04579380003269762,0.10137389996089041,0.09833890001755208,0.3024685999844223
RSVPLG03,cs,20260306-102344,1.0.2,20251105-084826,793,Practice,T1,1,Automatic,main,10,20260306-102441,global,local,300,H,S,E,E,H-E.png,E-S.png,hH,sS,mask-2.png,mask-3.png,h,1,0.31537179998122156,none,-5,0,0.04852529999334365,0.04852509999182075,0.0997757000150159,0.09958999999798834,0.3002199000911787
RSVPLG03,cs,20260306-102344,1.0.2,20251105-084826,793,Practice,T1,1,Automatic,main,11,20260306-102445,global,global,300,S,H,E,E,S-E.png,H-E.png,sS,hH,mask-4.png,mask-2.png,s,1,0.3386666999431327,none,-5,0,0.04738730005919933,0.047699599992483854,0.09940160007681698,0.09989280009176582,0.3001434999750927
RSVPLG03,cs,20260306-102344,1.0.2,20251105-084826,793,Practice,T1,1,Automatic,main,12,20260306-102449,global,global,300,S,H,A,E,S-A.png,H-E.png,sS,hH,mask-3.png,mask-1.png,s,1,0.9022189000388607,none,-5,0,0.0475490998942405,0.04807979997713119,0.1006670999340713,0.09995860001072288,0.29949389991816133
RSVPLG03,cs,20260306-102344,1.0.2,20251105-084826,793,Practice,T1,1,Automatic,main,13,20260306-102453,local,local,750,H,S,E,A,E-H.png,A-S.png,hH,sS,mask-2.png,mask-2.png,h,1,0.4984010000480339,none,-5,0,0.04765930003486574,0.04765730001963675,0.10072360001504421,0.10073209996335208,0.7500873000826687
RSVPLG03,cs,20260306-102344,1.0.2,20251105-084826,793,Practice,T1,1,Automatic,main,14,20260306-102458,local,global,300,S,S,E,A,E-S.png,S-A.png,sS,sS,mask-4.png,mask-2.png,s,1,0.7073562000878155,none,-5,0,0.04735050001181662,0.04888389992993325,0.10056769999209791,0.10099019994959235,0.3003524000523612
RSVPLG03,cs,20260306-102344,1.0.2,20251105-084826,793,Practice,T1,1,Automatic,main,15,20260306-102502,global,local,750,H,S,E,A,H-E.png,A-S.png,hH,sS,mask-1.png,mask-1.png,h,1,0.7581239000428468,none,-5,0,0.04753470001742244,0.047541300067678094,0.1006012000143528,0.09993959998246282,0.7503185999812558
RSVPLG03,cs,20260306-102344,1.0.2,20251105-084826,793,Practice,T1,1,Automatic,main,16,20260306-102506,global,global,750,S,H,E,A,S-E.png,H-A.png,sS,hH,mask-1.png,mask-3.png,s,1,0.7146648999769241,none,-5,0,0.047662600059993565,0.047283299965783954,0.09964859997853637,0.10021609999239445,0.7497893000254408
RSVPLG03,cs,20260306-102537,1.0.2,20251105-084826,793,Practice,Both,1,Automatic,main,1,20260306-102607,global,global,750,S,H,A,A,S-A.png,H-A.png,sS,hH,mask-2.png,mask-1.png,s,1,2.86725969996769,s,0,0.7386692999862134,0.04072649998124689,0.04675179999321699,0.09194109996315092,0.10040330002084374,0.741433099959977
RSVPLG03,cs,20260306-102537,1.0.2,20251105-084826,793,Practice,Both,1,Automatic,main,2,20260306-102615,local,local,300,H,S,A,A,A-H.png,A-S.png,hH,sS,mask-4.png,mask-3.png,h,1,1.9834603000199422,s,1,0.8097340000094846,0.047702600015327334,0.047705700038932264,0.09981359995435923,0.10074110003188252,0.29853489995002747
RSVPLG03,cs,20260306-102537,1.0.2,20251105-084826,793,Practice,Both,1,Automatic,main,3,20260306-102621,local,global,750,S,S,A,E,A-S.png,S-E.png,sS,sS,mask-2.png,mask-3.png,s,1,0.520470799994655,s,1,1.1330767999170348,0.045760200009681284,0.0464855000609532,0.09832069999538362,0.09994149999693036,0.748516199993901
RSVPLG03,cs,20260306-102537,1.0.2,20251105-084826,793,Practice,Both,1,Automatic,main,4,20260306-102627,global,local,300,H,H,A,A,H-A.png,A-H.png,hH,hH,mask-2.png,mask-4.png,h,1,0.8187355999834836,s,0,0.40801370004191995,0.04743680008687079,0.046597099979408085,0.10005980008281767,0.10034869995433837,0.3008033001096919
RSVPLG03,cs,20260306-102537,1.0.2,20251105-084826,793,Practice,Both,1,Automatic,main,5,20260306-102632,global,global,300,S,S,E,E,S-E.png,S-E.png,sS,sS,mask-4.png,mask-1.png,h,0,2.06783189997077,s,1,0.6050772999878973,0.047503900015726686,0.04840719990897924,0.09949160006362945,0.09920399996917695,0.2989982001017779
RSVPLG03,cs,20260306-102537,1.0.2,20251105-084826,793,Practice,Both,1,Automatic,main,6,20260306-102639,local,global,300,H,S,E,A,E-H.png,S-A.png,hH,sS,mask-2.png,mask-3.png,h,1,0.5741904999595135,s,1,0.6546495999209583,0.047733700019307435,0.045744000002741814,0.09928189998026937,0.09980059997178614,0.30039180000312626
RSVPLG03,cs,20260306-102537,1.0.2,20251105-084826,793,Practice,Both,1,Automatic,main,7,20260306-102643,local,global,300,S,H,E,E,E-S.png,H-E.png,sS,hH,mask-4.png,mask-4.png,s,1,0.24157210008706897,h,1,0.5585358999669552,0.04648709995672107,0.048440199927426875,0.09937680000439286,0.10142779990565032,0.29824390006251633
RSVPLG03,cs,20260306-102537,1.0.2,20251105-084826,793,Practice,Both,1,Automatic,main,8,20260306-102647,local,local,750,S,S,A,E,A-S.png,E-S.png,sS,sS,mask-2.png,mask-3.png,s,1,0.540083899977617,s,1,0.0910013000248,0.0471709999255836,0.04876109992619604,0.09947619994636625,0.1008461999008432,0.7479683000128716
RSVPLG03,cs,20260306-102537,1.0.2,20251105-084826,793,Practice,Both,1,Automatic,main,9,20260306-102652,global,global,300,S,H,A,A,S-A.png,H-A.png,sS,hH,mask-1.png,mask-3.png,s,1,0.495556200039573,h,1,0.03271070006303489,0.0466261999681592,0.04597580002155155,0.09794349991716444,0.0982934000203386,0.2989872999023646
RSVPLG03,cs,20260306-102537,1.0.2,20251105-084826,793,Practice,Both,1,Automatic,main,10,20260306-102656,global,local,750,S,H,E,A,S-E.png,A-H.png,sS,hH,mask-3.png,mask-3.png,s,1,0.2938368000322953,h,1,0.04210379999130964,0.04762849991675466,0.04759990004822612,0.09942440001759678,0.09982030000537634,0.7503131999401376
RSVPLG03,cs,20260306-102537,1.0.2,20251105-084826,793,Practice,Both,1,Automatic,main,11,20260306-102701,global,local,750,H,H,E,A,H-E.png,A-H.png,hH,hH,mask-1.png,mask-1.png,h,1,0.19790829997509718,h,1,0.06057380000129342,0.04572029993869364,0.04733299999497831,0.09808199992403388,0.10034430003724992,0.7474601999856532
RSVPLG03,cs,20260306-102537,1.0.2,20251105-084826,793,Practice,Both,1,Automatic,main,12,20260306-102705,local,local,750,H,S,E,A,E-H.png,A-S.png,hH,sS,mask-4.png,mask-2.png,s,0,0.3632536999648437,s,1,0.08652680006343871,0.046752800000831485,0.04668670007959008,0.09989439998753369,0.09868260007351637,0.749735499965027
RSVPLG03,cs,20260306-102537,1.0.2,20251105-084826,793,Practice,Both,1,Automatic,main,13,20260306-102710,local,global,750,H,H,A,A,A-H.png,H-A.png,hH,hH,mask-1.png,mask-2.png,h,1,0.3303921000333503,h,1,0.06716930004768074,0.046872599981725216,0.04768110008444637,0.09820110001601279,0.0998893000651151,0.748740499955602
RSVPLG03,cs,20260306-102537,1.0.2,20251105-084826,793,Practice,Both,1,Automatic,main,14,20260306-102714,local,local,300,S,S,E,A,E-S.png,A-S.png,sS,sS,mask-2.png,mask-4.png,s,1,0.4597257999703288,h,0,0.2170622000703588,0.047400300041772425,0.047502600005827844,0.09988009999506176,0.09955529996659607,0.300364000024274
RSVPLG03,cs,20260306-102537,1.0.2,20251105-084826,793,Practice,Both,1,Automatic,main,15,20260306-102719,global,local,300,H,S,A,E,H-A.png,E-S.png,hH,sS,mask-3.png,mask-1.png,h,1,0.4271274000639096,s,1,0.5234022000804543,0.046707000001333654,0.04774000006727874,0.09994780004490167,0.09819240006618202,0.2996432000072673
RSVPLG03,cs,20260306-102537,1.0.2,20251105-084826,793,Practice,Both,1,Automatic,main,16,20260306-102723,global,global,750,S,S,A,E,S-A.png,S-E.png,sS,sS,mask-2.png,mask-4.png,s,1,0.35584219999145716,s,1,0.07270399993285537,0.046776400064118207,0.04768670001067221,0.09896540001500398,0.09986059996299446,0.7487052000360563
RSVPLG03,cs,20260306-102837,1.0.2,20251105-084826,793,Experiment,Both,1,Automatic,warmup,1,20260306-102857,local,local,300,H,S,A,E,A-H.png,E-S.png,hH,sS,mask-1.png,mask-4.png,h,1,0.3752317000180483,s,1,0.47126460005529225,0.048124699969775975,0.04843099997378886,0.1011972000123933,0.09946270007640123,0.3007897000061348
RSVPLG03,cs,20260306-102837,1.0.2,20251105-084826,793,Experiment,Both,1,Automatic,warmup,2,20260306-102901,local,global,300,H,S,A,A,A-H.png,S-A.png,hH,sS,mask-1.png,mask-1.png,s,0,0.3900862999726087,s,1,0.06125989998690784,0.048641699948348105,0.04751100006978959,0.10090729990042746,0.09957500000018626,0.30218489991966635
RSVPLG03,cs,20260306-102837,1.0.2,20251105-084826,793,Experiment,Both,1,Automatic,warmup,3,20260306-102905,global,global,750,S,S,A,E,S-A.png,S-E.png,sS,sS,mask-4.png,mask-1.png,h,0,0.4896595999598503,h,0,0.09673069999553263,0.04855409997981042,0.04813440004363656,0.1005703000118956,0.10082799999509007,0.7515659999335185
RSVPLG03,cs,20260306-102837,1.0.2,20251105-084826,793,Experiment,Both,1,Automatic,warmup,4,20260306-102910,local,global,750,S,S,A,A,A-S.png,S-A.png,sS,sS,mask-2.png,mask-3.png,s,1,0.32243399997241795,h,0,0.18098139995709062,0.048803500016219914,0.047725999960675836,0.10186789999715984,0.10092450003139675,0.7513115999754518
RSVPLG03,cs,20260306-102837,1.0.2,20251105-084826,793,Experiment,Both,1,Automatic,main,5,20260306-102914,local,global,300,H,H,A,E,A-H.png,H-E.png,hH,hH,mask-2.png,mask-2.png,s,0,2.1310146000469103,h,1,0.011916500050574541,0.04782760003581643,0.046760200057178736,0.10111839999444783,0.09905870002694428,0.3017206999938935
RSVPLG03,cs,20260306-102837,1.0.2,20251105-084826,793,Experiment,Both,1,Automatic,main,6,20260306-102920,local,local,300,H,H,E,E,E-H.png,E-H.png,hH,hH,mask-4.png,mask-4.png,h,1,0.38461480010300875,h,1,0.2049552999669686,0.04857420001644641,0.046592799946665764,0.10159700002986938,0.09967749996576458,0.30098290008027107
RSVPLG03,cs,20260306-102837,1.0.2,20251105-084826,793,Experiment,Both,1,Automatic,main,7,20260306-102925,local,global,300,H,H,A,A,A-H.png,H-A.png,hH,hH,mask-1.png,mask-3.png,h,1,0.5996006999630481,h,1,0.10371129994746298,0.04752179991919547,0.047542299958877265,0.10050249996129423,0.10044740000739694,0.30158319999463856
RSVPLG03,cs,20260306-102837,1.0.2,20251105-084826,793,Experiment,Both,1,Automatic,main,8,20260306-102929,global,local,750,S,S,A,E,S-A.png,E-S.png,sS,sS,mask-2.png,mask-1.png,s,1,0.37220550002530217,s,1,0.09480570000596344,0.04839950008317828,0.04771479999180883,0.10202670004218817,0.10189910000190139,0.7515001000138
RSVPLG03,cs,20260306-102837,1.0.2,20251105-084826,793,Experiment,Both,1,Automatic,main,9,20260306-102934,local,global,300,S,H,A,A,A-S.png,H-A.png,sS,hH,mask-3.png,mask-2.png,s,1,0.36284019995946437,h,1,0.007540500024333596,0.047630100045353174,0.048582800081931055,0.1005274000344798,0.1016562000149861,0.299236899940297
RSVPLG03,cs,20260306-102837,1.0.2,20251105-084826,793,Experiment,Both,1,Automatic,main,10,20260306-102938,local,local,300,H,H,A,E,A-H.png,E-H.png,hH,hH,mask-3.png,mask-4.png,s,0,0.24214220000430942,h,1,0.023343099979683757,0.04681400000117719,0.0483463000273332,0.10172110004350543,0.10132190003059804,0.301003500004299
RSVPLG03,cs,20260306-102837,1.0.2,20251105-084826,793,Experiment,Both,1,Automatic,main,11,20260306-102942,global,local,750,H,S,A,A,H-A.png,A-S.png,hH,sS,mask-1.png,mask-1.png,h,1,0.37869609997142106,h,0,0.13878140004817396,0.04778729996178299,0.04773819993715733,0.09997239999938756,0.09993539995048195,0.7522814000258222
RSVPLG03,cs,20260306-102837,1.0.2,20251105-084826,793,Experiment,Both,1,Automatic,main,12,20260306-102946,global,global,750,H,H,A,A,H-A.png,H-A.png,hH,hH,mask-1.png,mask-2.png,h,1,0.3714900000486523,h,1,0.1169579999987036,0.0466217000503093,0.047151200007647276,0.10009010008070618,0.10036120004951954,0.751672700047493
RSVPLG03,cs,20260306-102837,1.0.2,20251105-084826,793,Experiment,Both,1,Automatic,main,13,20260306-102951,local,global,300,S,S,E,A,E-S.png,S-A.png,sS,sS,mask-1.png,mask-4.png,s,1,0.35425749991554767,h,0,0.10583360004238784,0.0477545999456197,0.047651999979279935,0.09953639993909746,0.10082679998595268,0.29973440000321716
RSVPLG03,cs,20260306-102837,1.0.2,20251105-084826,793,Experiment,Both,1,Automatic,main,14,20260306-102955,local,global,750,S,H,A,A,A-S.png,H-A.png,sS,hH,mask-3.png,mask-3.png,s,1,0.8574198000133038,s,0,0.09027899999637157,0.04695760004688054,0.04750759992748499,0.10029229999054223,0.09881979995407164,0.7516136000631377
RSVPLG03,cs,20260306-102837,1.0.2,20251105-084826,793,Experiment,Both,1,Automatic,main,15,20260306-103000,local,global,750,H,H,E,E,E-H.png,H-E.png,hH,hH,mask-1.png,mask-3.png,h,1,0.9493603000883013,h,1,0.06061980000231415,0.048577799927443266,0.04569880000781268,0.09957760001998395,0.09882920002564788,0.7527243999065831
RSVPLG03,cs,20260306-102837,1.0.2,20251105-084826,793,Experiment,Both,1,Automatic,main,16,20260306-103006,global,global,300,H,H,E,E,H-E.png,H-E.png,hH,hH,mask-1.png,mask-1.png,h,1,0.25254819996189326,h,1,0.028838300029747188,0.047697999980300665,0.047674299916252494,0.09998469997663051,0.09990039991680533,0.3019040999934077
RSVPLG03,cs,20260306-102837,1.0.2,20251105-084826,793,Experiment,Both,1,Automatic,main,17,20260306-103010,local,global,750,H,S,E,A,E-H.png,S-A.png,hH,sS,mask-3.png,mask-2.png,h,1,0.40559209999628365,s,1,0.0693426999496296,0.04733390000183135,0.04754150006920099,0.1000249000499025,0.1008801000425592,0.75009190000128
RSVPLG03,cs,20260306-102837,1.0.2,20251105-084826,793,Experiment,Both,1,Automatic,main,18,20260306-103014,local,local,750,H,S,A,E,A-H.png,E-S.png,hH,sS,mask-2.png,mask-4.png,h,1,0.21381380001548678,s,1,0.35790239996276796,0.0482641999842599,0.04748710000421852,0.10111519997008145,0.10119770001620054,0.7518924999749288
RSVPLG03,cs,20260306-102837,1.0.2,20251105-084826,793,Experiment,Both,1,Automatic,main,19,20260306-103019,local,local,750,S,S,A,E,A-S.png,E-S.png,sS,sS,mask-4.png,mask-1.png,s,1,0.21956830006092787,s,1,0.03776169999036938,0.046708500012755394,0.04767490003723651,0.09864720003679395,0.09987090004142374,0.7501197999808937
RSVPLG03,cs,20260306-102837,1.0.2,20251105-084826,793,Experiment,Both,1,Automatic,main,20,20260306-103023,global,local,750,H,S,E,E,H-E.png,E-S.png,hH,sS,mask-4.png,mask-4.png,h,1,0.4142217000480741,h,0,0.07689689996186644,0.04672340000979602,0.04768840002361685,0.09984979999717325,0.0995112000964582,0.7505007999716327
RSVPLG03,cs,20260306-102837,1.0.2,20251105-084826,793,Experiment,Both,1,Automatic,main,21,20260306-103028,global,global,750,S,S,A,A,S-A.png,S-A.png,sS,sS,mask-2.png,mask-2.png,s,1,0.3153582001104951,s,1,0.05953210010193288,0.04761260002851486,0.04749579995404929,0.10068160004448146,0.10054419992957264,0.7507598000811413
RSVPLG03,cs,20260306-102837,1.0.2,20251105-084826,793,Experiment,Both,1,Automatic,main,22,20260306-103032,global,local,750,H,H,E,A,H-E.png,A-H.png,hH,hH,mask-2.png,mask-1.png,h,1,0.44521319994237274,h,1,0.5414396999403834,0.047591399983502924,0.04758170002605766,0.1005814999807626,0.09944859996903688,0.7524459999985993
RSVPLG03,cs,20260306-102837,1.0.2,20251105-084826,793,Experiment,Both,1,Automatic,main,23,20260306-103037,local,global,750,H,H,E,A,E-H.png,H-A.png,hH,hH,mask-2.png,mask-1.png,h,1,0.32109600002877414,h,1,0.03867040004115552,0.04936299996916205,0.046825099969282746,0.10145610000472516,0.0999039999442175,0.7519591000163928
RSVPLG03,cs,20260306-102837,1.0.2,20251105-084826,793,Experiment,Both,1,Automatic,main,24,20260306-103042,local,global,300,S,S,A,A,A-S.png,S-A.png,sS,sS,mask-3.png,mask-2.png,s,1,0.31523069995455444,s,1,0.07146619993727654,0.04633330006618053,0.047491699922829866,0.09933310002088547,0.10048259992618114,0.29956440010573715
RSVPLG03,cs,20260306-102837,1.0.2,20251105-084826,793,Experiment,Both,1,Automatic,main,25,20260306-103046,local,local,750,S,S,E,E,E-S.png,E-S.png,sS,sS,mask-2.png,mask-3.png,s,1,0.22440639999695122,s,1,0.05505900003481656,0.04601689998526126,0.046789700048975646,0.09905059996526688,0.09862200007773936,0.7515853999648243
RSVPLG03,cs,20260306-102837,1.0.2,20251105-084826,793,Experiment,Both,1,Automatic,main,26,20260306-103053,global,global,300,H,S,A,E,H-A.png,S-E.png,hH,sS,mask-2.png,mask-4.png,h,1,0.33637400006409734,s,1,0.43240190006326884,0.04874470003414899,0.04908859997522086,0.10083140002097934,0.10149250004906207,0.3011414000065997
RSVPLG03,cs,20260306-102837,1.0.2,20251105-084826,793,Experiment,Both,1,Automatic,main,27,20260306-103057,local,local,750,H,H,A,A,A-H.png,A-H.png,hH,hH,mask-2.png,mask-4.png,h,1,0.16817850002553314,h,1,0.054510299931280315,0.0476809999672696,0.04875790001824498,0.09852680005133152,0.10101850004866719,0.7503150999546051
RSVPLG03,cs,20260306-102837,1.0.2,20251105-084826,793,Experiment,Both,1,Automatic,main,28,20260306-103101,local,local,300,H,H,E,A,E-H.png,A-H.png,hH,hH,mask-3.png,mask-1.png,s,0,0.3788644999731332,h,1,0.03216599998995662,0.04750360001344234,0.04884549998678267,0.10071020002942532,0.10049910005182028,0.30000169994309545
RSVPLG03,cs,20260306-102837,1.0.2,20251105-084826,793,Experiment,Both,1,Automatic,main,29,20260306-103105,global,local,300,H,H,A,A,H-A.png,A-H.png,hH,hH,mask-2.png,mask-4.png,h,1,0.21985659992787987,h,1,0.0553843000670895,0.0481590999988839,0.048501100041903555,0.10106280003674328,0.100520099978894,0.3009588000131771
RSVPLG03,cs,20260306-102837,1.0.2,20251105-084826,793,Experiment,Both,1,Automatic,main,30,20260306-103109,local,global,300,H,S,A,A,A-H.png,S-A.png,hH,sS,mask-2.png,mask-3.png,h,1,0.3186271999729797,s,1,0.0005185999907553196,0.04748409998137504,0.046487299958243966,0.10046149999834597,0.09995319996960461,0.3023222000338137
RSVPLG03,cs,20260306-102837,1.0.2,20251105-084826,793,Experiment,Both,1,Automatic,main,31,20260306-103113,local,global,300,S,H,A,A,A-S.png,H-A.png,sS,hH,mask-1.png,mask-4.png,s,1,0.23531760007608682,h,1,0.41124679998029023,0.04793740005698055,0.047678700066171587,0.10007240006234497,0.09891300008166581,0.3019485999830067
RSVPLG03,cs,20260306-102837,1.0.2,20251105-084826,793,Experiment,Both,1,Automatic,main,32,20260306-103117,global,global,300,S,S,A,E,S-A.png,S-E.png,sS,sS,mask-1.png,mask-3.png,s,1,0.335176800028421,h,0,0.044079899904318154,0.047682100092060864,0.04960290004964918,0.1008506000507623,0.10026049998123199,0.2996765000279993
RSVPLG03,cs,20260306-102837,1.0.2,20251105-084826,793,Experiment,Both,1,Automatic,main,33,20260306-103121,global,local,750,S,H,E,E,S-E.png,E-H.png,sS,hH,mask-1.png,mask-2.png,h,0,0.6246161999879405,h,1,0.044647700036875904,0.0485453000292182,0.04753760003950447,0.10058560001198202,0.09955020004417747,0.7532510999590158
RSVPLG03,cs,20260306-102837,1.0.2,20251105-084826,793,Experiment,Both,1,Automatic,main,34,20260306-103126,local,local,750,S,H,E,A,E-S.png,A-H.png,sS,hH,mask-3.png,mask-3.png,s,1,0.3171622999943793,h,1,0.024380699964240193,0.04751820000819862,0.04715220001526177,0.09953320003114641,0.09920459997374564,0.7522801000159234
RSVPLG03,cs,20260306-102837,1.0.2,20251105-084826,793,Experiment,Both,1,Automatic,main,35,20260306-103130,global,local,300,H,H,E,E,H-E.png,E-H.png,hH,hH,mask-3.png,mask-3.png,h,1,0.36377029994037,h,1,0.13284149998798966,0.04852299997583032,0.047509599942713976,0.10116680001374334,0.10051629994995892,0.30137360002845526
RSVPLG03,cs,20260306-102837,1.0.2,20251105-084826,793,Experiment,Both,1,Automatic,main,36,20260306-103135,global,global,750,H,H,A,E,H-A.png,H-E.png,hH,hH,mask-1.png,mask-3.png,s,0,1.2421033999416977,s,0,0.05576579994522035,0.046758499927818775,0.049431600025855005,0.09932389995083213,0.10165650001727045,0.7502883999841288
RSVPLG03,cs,20260306-102837,1.0.2,20251105-084826,793,Experiment,Both,1,Automatic,main,37,20260306-103140,local,global,750,S,H,A,E,A-S.png,H-E.png,sS,hH,mask-1.png,mask-4.png,s,1,0.319171900046058,s,0,0.0842679999768734,0.047681799973361194,0.04639809997752309,0.09986590000335127,0.10061960003804415,0.7508265000069514
RSVPLG03,cs,20260306-102837,1.0.2,20251105-084826,793,Experiment,Both,1,Automatic,main,38,20260306-103145,local,local,300,S,H,E,E,E-S.png,E-H.png,sS,hH,mask-1.png,mask-2.png,s,1,0.30721350002568215,h,1,0.5383084999630228,0.04763689998071641,0.04817389999516308,0.09985189989674836,0.10141710005700588,0.3007325999205932
RSVPLG03,cs,20260306-102837,1.0.2,20251105-084826,793,Experiment,Both,1,Automatic,main,39,20260306-103149,global,global,750,H,H,A,E,H-A.png,H-E.png,hH,hH,mask-3.png,mask-2.png,s,0,0.666319299954921,h,1,0.008277299930341542,0.04965089994948357,0.04646059998776764,0.10147310001775622,0.10054919996764511,0.7532834999728948
RSVPLG03,cs,20260306-102837,1.0.2,20251105-084826,793,Experiment,Both,1,Automatic,main,40,20260306-103154,global,global,300,H,H,A,A,H-A.png,H-A.png,hH,hH,mask-3.png,mask-2.png,h,1,0.5224085999652743,h,1,0.042864899965934455,0.047696299967356026,0.04671100003179163,0.09986930002924055,0.09991660004016012,0.3004770999541506
RSVPLG03,cs,20260306-102837,1.0.2,20251105-084826,793,Experiment,Both,1,Automatic,main,41,20260306-103158,local,global,300,H,S,A,A,A-H.png,S-A.png,hH,sS,mask-3.png,mask-1.png,s,0,0.4604297000914812,h,0,0.39151220000348985,0.04766770009882748,0.04766909999307245,0.10084020008798689,0.09988669992890209,0.30064910009969026
RSVPLG03,cs,20260306-102837,1.0.2,20251105-084826,793,Experiment,Both,1,Automatic,main,42,20260306-103203,global,global,750,H,S,A,E,H-A.png,S-E.png,hH,sS,mask-3.png,mask-2.png,h,1,0.39487339998595417,s,1,0.5388973999070004,0.04865919996518642,0.04858970001805574,0.10014729993417859,0.10179730004165322,0.7510166999418288
RSVPLG03,cs,20260306-102837,1.0.2,20251105-084826,793,Experiment,Both,1,Automatic,main,43,20260306-103207,local,global,750,H,H,A,A,A-H.png,H-A.png,hH,hH,mask-1.png,mask-2.png,h,1,0.6040564000140876,h,1,0.020285800099372864,0.04725890001282096,0.049022600054740906,0.0992465999443084,0.10151740000583231,0.7502833999460563
RSVPLG03,cs,20260306-102837,1.0.2,20251105-084826,793,Experiment,Both,1,Automatic,main,44,20260306-103212,global,global,300,S,H,A,A,S-A.png,H-A.png,sS,hH,mask-3.png,mask-4.png,s,1,0.3348744000541046,h,1,0.5231571999611333,0.047099499963223934,0.047946800012141466,0.09994520002510399,0.10048270004335791,0.29954939999151975
RSVPLG03,cs,20260306-102837,1.0.2,20251105-084826,793,Experiment,Both,1,Automatic,main,45,20260306-103217,global,global,300,S,S,E,A,S-E.png,S-A.png,sS,sS,mask-3.png,mask-4.png,s,1,0.3659478999907151,s,1,0.10393530002329499,0.049835899961180985,0.04922470008023083,0.1020458999555558,0.1014883000170812,0.30149599991273135
RSVPLG03,cs,20260306-102837,1.0.2,20251105-084826,793,Experiment,Both,1,Automatic,main,46,20260306-103221,local,global,300,S,H,A,A,A-S.png,H-A.png,sS,hH,mask-1.png,mask-4.png,s,1,0.18510190001688898,h,1,0.005685799987986684,0.04765249998308718,0.047709999955259264,0.0996868999209255,0.10090840002521873,0.2996502999449149
RSVPLG03,cs,20260306-102837,1.0.2,20251105-084826,793,Experiment,Both,1,Automatic,main,47,20260306-103225,global,local,750,H,S,A,E,H-A.png,E-S.png,hH,sS,mask-2.png,mask-2.png,h,1,0.2381526998942718,s,1,0.38209219998680055,0.046611999976448715,0.04741560004185885,0.09792780003044754,0.09925580001436174,0.7509716999484226
RSVPLG03,cs,20260306-102837,1.0.2,20251105-084826,793,Experiment,Both,1,Automatic,main,48,20260306-103229,local,local,750,H,H,A,A,A-H.png,A-H.png,hH,hH,mask-3.png,mask-3.png,h,1,0.2121843999484554,s,0,0.004660599981434643,0.04751539998687804,0.047548600006848574,0.10052219999488443,0.10052450001239777,0.7516463999636471
RSVPLG03,cs,20260306-102837,1.0.2,20251105-084826,793,Experiment,Both,1,Automatic,main,49,20260306-103234,global,global,300,H,S,A,E,H-A.png,S-E.png,hH,sS,mask-3.png,mask-1.png,s,0,0.2827456999802962,s,1,0.08822269993834198,0.04758899996522814,0.04755090002436191,0.09960359998513013,0.1015441999770701,0.2998403999954462
RSVPLG03,cs,20260306-102837,1.0.2,20251105-084826,793,Experiment,Both,1,Automatic,main,50,20260306-103238,global,global,300,S,S,E,A,S-E.png,S-A.png,sS,sS,mask-4.png,mask-2.png,s,1,0.28660239989403635,s,1,0.07190540002193302,0.0485560999950394,0.04746859997976571,0.0995155000127852,0.10014329990372062,0.299436500063166
RSVPLG03,cs,20260306-102837,1.0.2,20251105-084826,793,Experiment,Both,1,Automatic,main,51,20260306-103242,global,global,300,H,H,E,E,H-E.png,H-E.png,hH,hH,mask-3.png,mask-2.png,h,1,0.287248499924317,h,1,0.03366039996035397,0.04767930007074028,0.04654610005673021,0.09992740000598133,0.09928409999702126,0.3008820000104606
RSVPLG03,cs,20260306-102837,1.0.2,20251105-084826,793,Experiment,Both,1,Automatic,main,52,20260306-103246,local,local,300,H,H,A,A,A-H.png,A-H.png,hH,hH,mask-3.png,mask-1.png,h,1,0.3336995999561623,s,0,0.20426959998439997,0.04668440006207675,0.04771649988833815,0.09993470006156713,0.10014739993494004,0.29957640008069575
RSVPLG03,cs,20260306-102837,1.0.2,20251105-084826,793,Experiment,Both,1,Automatic,main,53,20260306-103251,local,global,300,S,S,A,E,A-S.png,S-E.png,sS,sS,mask-1.png,mask-3.png,s,1,0.2504270999925211,s,1,0.07354919996578246,0.04671659995801747,0.048798999981954694,0.09979240002576262,0.10190680006053299,0.2998501999536529
RSVPLG03,cs,20260306-102837,1.0.2,20251105-084826,793,Experiment,Both,1,Automatic,main,54,20260306-103254,global,local,300,H,H,A,E,H-A.png,E-H.png,hH,hH,mask-3.png,mask-2.png,h,1,0.3952042000601068,s,0,0.016133700031787157,0.046600200003013015,0.04779710003640503,0.09972270007710904,0.10146869998425245,0.29998260003048927
RSVPLG03,cs,20260306-102837,1.0.2,20251105-084826,793,Experiment,Both,1,Automatic,main,55,20260306-103259,local,local,750,S,S,A,E,A-S.png,E-S.png,sS,sS,mask-2.png,mask-3.png,s,1,0.6448630000231788,s,1,1.346311700064689,0.045776600018143654,0.04751420009415597,0.09985040000174195,0.10080880008172244,0.7501445999369025
RSVPLG03,cs,20260306-102837,1.0.2,20251105-084826,793,Experiment,Both,1,Automatic,main,56,20260306-103305,global,global,300,S,S,E,E,S-E.png,S-E.png,sS,sS,mask-4.png,mask-1.png,s,1,0.29697120003402233,s,1,0.05755160003900528,0.04704090009909123,0.04767810006160289,0.09954329999163747,0.09986419999040663,0.3001632000086829
RSVPLG03,cs,20260306-102837,1.0.2,20251105-084826,793,Experiment,Both,1,Automatic,main,57,20260306-103309,global,local,750,H,H,A,A,H-A.png,A-H.png,hH,hH,mask-1.png,mask-2.png,s,0,0.44764250004664063,h,1,0.27526160003617406,0.04690119996666908,0.04848820006009191,0.10009109997190535,0.10136100009549409,0.7501711999066174
RSVPLG03,cs,20260306-102837,1.0.2,20251105-084826,793,Experiment,Both,1,Automatic,main,58,20260306-103314,global,local,750,H,H,A,A,H-A.png,A-H.png,hH,hH,mask-2.png,mask-3.png,h,1,0.3131749000167474,h,1,0.03779749991372228,0.047782099922187626,0.04767360002733767,0.10085219994653016,0.09971400001086295,0.7529896999476478
RSVPLG03,cs,20260306-102837,1.0.2,20251105-084826,793,Experiment,Both,1,Automatic,main,59,20260306-103318,global,global,750,H,H,E,E,H-E.png,H-E.png,hH,hH,mask-3.png,mask-2.png,h,1,0.2881857000757009,h,1,0.03401039994787425,0.0471473999787122,0.047743899980559945,0.09958419995382428,0.09868220007047057,0.7516131999436766
RSVPLG03,cs,20260306-102837,1.0.2,20251105-084826,793,Experiment,Both,1,Automatic,main,60,20260306-103323,global,local,750,H,S,E,E,H-E.png,E-S.png,hH,sS,mask-1.png,mask-3.png,h,1,0.4120274999877438,s,1,0.08679560001473874,0.047579700010828674,0.04656430007889867,0.09862459998112172,0.09903779998421669,0.7512452999362722
RSVPLG03,cs,20260306-102837,1.0.2,20251105-084826,793,Experiment,Both,1,Automatic,main,61,20260306-103327,global,local,750,H,H,E,E,H-E.png,E-H.png,hH,hH,mask-2.png,mask-1.png,h,1,0.4967041000491008,h,1,0.135655099991709,0.04566900001373142,0.0479840999469161,0.09870590001810342,0.10058039997238666,0.7501643999712542
RSVPLG03,cs,20260306-102837,1.0.2,20251105-084826,793,Experiment,Both,1,Automatic,main,62,20260306-103332,local,local,300,S,S,E,E,E-S.png,E-S.png,sS,sS,mask-2.png,mask-4.png,s,1,0.3619903000071645,s,1,0.10805080004502088,0.04671759996563196,0.04669600003398955,0.10004349995870143,0.09995699999853969,0.30113899998832494
RSVPLG03,cs,20260306-102837,1.0.2,20251105-084826,793,Experiment,Both,1,Automatic,main,63,20260306-103336,global,global,750,S,S,E,E,S-E.png,S-E.png,sS,sS,mask-4.png,mask-4.png,s,1,0.2998262000037357,s,1,0.05231980001553893,0.04811109998263419,0.04775949998293072,0.10128790000453591,0.09984599996823817,0.7521408000029624
RSVPLG03,cs,20260306-102837,1.0.2,20251105-084826,793,Experiment,Both,1,Automatic,main,64,20260306-103341,local,local,750,H,H,A,A,A-H.png,A-H.png,hH,hH,mask-3.png,mask-4.png,h,1,0.2735090999631211,h,1,0.052178599988110363,0.04752370005007833,0.04779970005620271,0.0997200000565499,0.10202350001782179,0.7495702999876812
RSVPLG03,cs,20260306-102837,1.0.2,20251105-084826,793,Experiment,Both,1,Automatic,main,65,20260306-103345,global,local,300,S,H,E,A,S-E.png,A-H.png,sS,hH,mask-1.png,mask-1.png,s,1,0.3669709999812767,h,1,0.0580315999686718,0.047679999959655106,0.04752970009576529,0.10038910002913326,0.09955170005559921,0.30030659993644804
RSVPLG03,cs,20260306-102837,1.0.2,20251105-084826,793,Experiment,Both,1,Automatic,main,66,20260306-103350,local,local,300,H,S,E,A,E-H.png,A-S.png,hH,sS,mask-4.png,mask-4.png,s,0,0.6622937000356615,s,1,0.11912869999650866,0.048287900048308074,0.046955399913713336,0.10118590004276484,0.10017749993130565,0.301453800057061
RSVPLG03,cs,20260306-102837,1.0.2,20251105-084826,793,Experiment,Both,1,Automatic,main,67,20260306-103354,global,local,300,S,H,E,E,S-E.png,E-H.png,sS,hH,mask-4.png,mask-2.png,s,1,0.6697069000219926,s,0,0.053763399948365986,0.04860809992533177,0.04860229999758303,0.10164519993122667,0.10162700002547354,0.3001987999305129
RSVPLG03,cs,20260306-102837,1.0.2,20251105-084826,793,Experiment,Both,1,Automatic,main,68,20260306-103359,local,local,750,H,H,E,A,E-H.png,A-H.png,hH,hH,mask-4.png,mask-3.png,h,1,0.44190670002717525,h,1,0.3595412001013756,0.04755570006091148,0.04698920005466789,0.10066670004744083,0.10004519997164607,0.7526041000382975
RSVPLG03,cs,20260306-102837,1.0.2,20251105-084826,793,Experiment,Both,1,Automatic,main,69,20260306-103404,local,global,750,S,S,A,E,A-S.png,S-E.png,sS,sS,mask-4.png,mask-2.png,s,1,0.3409616000717506,s,1,0.037597699905745685,0.04764550004620105,0.0465477000689134,0.09966299997176975,0.09859510010574013,0.752026499947533
RSVPLG03,cs,20260306-102837,1.0.2,20251105-084826,793,Experiment,Both,1,Automatic,main,70,20260306-103408,global,local,300,S,S,A,E,S-A.png,E-S.png,sS,sS,mask-1.png,mask-3.png,s,1,0.345278000109829,h,0,0.06223050004336983,0.049556200043298304,0.04750470002181828,0.10181000002194196,0.09948330000042915,0.3025527000427246
RSVPLG03,cs,20260306-102837,1.0.2,20251105-084826,793,Experiment,Both,1,Automatic,main,71,20260306-103412,local,local,750,H,H,E,E,E-H.png,E-H.png,hH,hH,mask-1.png,mask-2.png,s,0,0.2818254000740126,s,0,0.18511409999337047,0.04675350000616163,0.0477625000057742,0.10094030003529042,0.09996160003356636,0.7510873000137508
RSVPLG03,cs,20260306-102837,1.0.2,20251105-084826,793,Experiment,Both,1,Automatic,main,72,20260306-103417,local,global,750,S,H,A,A,A-S.png,H-A.png,sS,hH,mask-4.png,mask-1.png,s,1,0.4052727000089362,h,1,0.12006580003071576,0.047949800034984946,0.04681289999280125,0.10035369999241084,0.09890380001161247,0.7528172000311315
RSVPLG03,cs,20260306-102837,1.0.2,20251105-084826,793,Experiment,Both,1,Automatic,main,73,20260306-103422,global,local,300,H,S,E,E,H-E.png,E-S.png,hH,sS,mask-1.png,mask-3.png,h,1,0.41979319998063147,s,1,0.6119512000586838,0.04767660005018115,0.04824259993620217,0.0988762000342831,0.10139709990471601,0.2990080000599846
RSVPLG03,cs,20260306-102837,1.0.2,20251105-084826,793,Experiment,Both,1,Automatic,main,74,20260306-103426,global,global,750,S,S,E,E,S-E.png,S-E.png,sS,sS,mask-2.png,mask-4.png,s,1,0.387299400055781,s,1,0.05082169990055263,0.046844399999827147,0.04715710005257279,0.10006440000142902,0.10024090006481856,0.7518813000060618
RSVPLG03,cs,20260306-102837,1.0.2,20251105-084826,793,Experiment,Both,1,Automatic,main,75,20260306-103431,global,global,750,H,H,E,E,H-E.png,H-E.png,hH,hH,mask-1.png,mask-4.png,h,1,0.3443344999104738,h,1,0.04335269995499402,0.047323099919594824,0.04756980005186051,0.09935659996699542,0.10063859994988889,0.7518424999434501
RSVPLG03,cs,20260306-102837,1.0.2,20251105-084826,793,Experiment,Both,1,Automatic,main,76,20260306-103436,global,global,750,S,H,E,A,S-E.png,H-A.png,sS,hH,mask-3.png,mask-4.png,s,1,0.3353269000072032,s,0,0.07248009997420013,0.04709420003928244,0.047757600084878504,0.0996931999688968,0.09914020006544888,0.7517246999777853
RSVPLG03,cs,20260306-102837,1.0.2,20251105-084826,793,Experiment,Both,1,Automatic,main,77,20260306-103440,global,global,300,H,H,A,E,H-A.png,H-E.png,hH,hH,mask-1.png,mask-4.png,h,1,0.3626849999418482,h,1,0.0725206999341026,0.0476925999391824,0.04767920006997883,0.10086659993976355,0.0999003000324592,0.3005808999296278
RSVPLG03,cs,20260306-102837,1.0.2,20251105-084826,793,Experiment,Both,1,Automatic,main,78,20260306-103445,local,local,300,S,H,A,A,A-S.png,A-H.png,sS,hH,mask-3.png,mask-1.png,s,1,0.29139179992489517,h,1,0.038606900023296475,0.047939599957317114,0.04868679994251579,0.10055289999581873,0.10092839994467795,0.30104879999998957
RSVPLG03,cs,20260306-102837,1.0.2,20251105-084826,793,Experiment,Both,1,Automatic,main,79,20260306-103449,global,global,750,H,H,A,E,H-A.png,H-E.png,hH,hH,mask-1.png,mask-4.png,h,1,0.3119536000303924,h,1,0.047779600019566715,0.04628399992361665,0.046621200046502054,0.09996329993009567,0.09978920000139624,0.7515832999488339
RSVPLG03,cs,20260306-102837,1.0.2,20251105-084826,793,Experiment,Both,1,Automatic,main,80,20260306-103453,global,local,750,S,H,A,E,S-A.png,E-H.png,sS,hH,mask-1.png,mask-2.png,h,0,0.3930072000948712,h,1,0.07179140008520335,0.047878699959255755,0.04773759993258864,0.10098509991075844,0.09965260000899434,0.7518187999958172
RSVPLG03,cs,20260306-102837,1.0.2,20251105-084826,793,Experiment,Both,1,Automatic,main,81,20260306-103458,local,global,750,H,S,A,A,A-H.png,S-A.png,hH,sS,mask-3.png,mask-3.png,h,1,0.2749728999333456,s,1,0.4196619999129325,0.0480901999399066,0.04773869994096458,0.10115229990333319,0.10133630002383143,0.7506989999674261
RSVPLG03,cs,20260306-102837,1.0.2,20251105-084826,793,Experiment,Both,1,Automatic,main,82,20260306-103502,global,local,750,H,S,E,A,H-E.png,A-S.png,hH,sS,mask-2.png,mask-4.png,s,0,0.5542831999482587,s,1,0.06974899990018457,0.04792709997855127,0.04864679998718202,0.10207809996791184,0.10070429998449981,0.7517405999824405
RSVPLG03,cs,20260306-102837,1.0.2,20251105-084826,793,Experiment,Both,1,Automatic,main,83,20260306-103507,local,local,300,S,H,E,A,E-S.png,A-H.png,sS,hH,mask-3.png,mask-1.png,s,1,0.313915399950929,h,1,0.002647200017236173,0.04693229997064918,0.0475132999708876,0.10029550001490861,0.09976130002178252,0.30006589996628463
RSVPLG03,cs,20260306-102837,1.0.2,20251105-084826,793,Experiment,Both,1,Automatic,main,84,20260306-103511,local,global,300,S,H,A,E,A-S.png,H-E.png,sS,hH,mask-2.png,mask-3.png,h,0,0.30131060001440346,s,0,0.015438400092534721,0.0477198000298813,0.04610189993400127,0.10157430008985102,0.09928359999321401,0.30194520007353276
RSVPLG03,cs,20260306-102837,1.0.2,20251105-084826,793,Experiment,Both,1,Automatic,main,85,20260306-103515,local,local,300,H,H,E,E,E-H.png,E-H.png,hH,hH,mask-2.png,mask-2.png,h,1,0.6196138999657705,h,1,0.03376829996705055,0.04755710007157177,0.047881499980576336,0.09893229999579489,0.10009829991031438,0.29966650006826967
RSVPLG03,cs,20260306-102837,1.0.2,20251105-084826,793,Experiment,Both,1,Automatic,main,86,20260306-103520,local,global,300,H,H,A,A,A-H.png,H-A.png,hH,hH,mask-2.png,mask-4.png,h,1,0.14183809992391616,s,0,0.28664159995969385,0.04850030003581196,0.04744120000395924,0.1005198999773711,0.1004448999883607,0.3007870999863371
RSVPLG03,cs,20260306-102837,1.0.2,20251105-084826,793,Experiment,Both,1,Automatic,main,87,20260306-103523,global,global,300,H,H,A,A,H-A.png,H-A.png,hH,hH,mask-3.png,mask-1.png,s,0,0.3555655999807641,h,1,0.06006749998778105,0.046299500041641295,0.04914669995196164,0.09831280005164444,0.10201349994167686,0.29824660008307546
RSVPLG03,cs,20260306-102837,1.0.2,20251105-084826,793,Experiment,Both,1,Automatic,main,88,20260306-103527,global,local,300,S,S,E,E,S-E.png,E-S.png,sS,sS,mask-1.png,mask-3.png,s,1,0.3209850999992341,s,1,0.09358840005006641,0.04747179988771677,0.04613969998899847,0.10065919999033213,0.09939099999610335,0.30071229999884963
RSVPLG03,cs,20260306-102837,1.0.2,20251105-084826,793,Experiment,Both,1,Automatic,main,89,20260306-103531,global,local,300,H,H,E,A,H-E.png,A-H.png,hH,hH,mask-3.png,mask-1.png,h,1,0.19761049991939217,h,1,0.06565100001171231,0.04675350000616163,0.047895099967718124,0.09990640007890761,0.10010549996513873,0.2996531000826508
RSVPLG03,cs,20260306-102837,1.0.2,20251105-084826,793,Experiment,Both,1,Automatic,main,90,20260306-103535,global,local,300,S,S,A,E,S-A.png,E-S.png,sS,sS,mask-1.png,mask-1.png,s,1,0.15753869991749525,s,1,0.07289439998567104,0.04699299996718764,0.047699599992483854,0.09982909995596856,0.09946089994627982,0.3004217999987304
RSVPLG03,cs,20260306-102837,1.0.2,20251105-084826,793,Experiment,Both,1,Automatic,main,91,20260306-103539,local,global,750,S,S,E,E,E-S.png,S-E.png,sS,sS,mask-1.png,mask-4.png,s,1,0.3804991999641061,s,1,0.08458160003647208,0.04754359996877611,0.0474701999919489,0.09958979999646544,0.09956020000390708,0.7511672999244183
RSVPLG03,cs,20260306-102837,1.0.2,20251105-084826,793,Experiment,Both,1,Automatic,main,92,20260306-103544,global,local,300,S,H,E,A,S-E.png,A-H.png,sS,hH,mask-4.png,mask-1.png,s,1,0.6975796000333503,h,1,0.027620599954389036,0.04738130001351237,0.04861580010037869,0.09993819997180253,0.10038140008691698,0.29868569993413985
RSVPLG03,cs,20260306-102837,1.0.2,20251105-084826,793,Experiment,Both,1,Automatic,main,93,20260306-103548,local,global,750,H,S,A,E,A-H.png,S-E.png,hH,sS,mask-1.png,mask-1.png,h,1,0.40262609999626875,s,1,0.48261960002128035,0.04740549996495247,0.0476384999928996,0.10092330002225935,0.0996248999144882,0.751577700022608
RSVPLG03,cs,20260306-102837,1.0.2,20251105-084826,793,Experiment,Both,1,Automatic,main,94,20260306-103553,local,local,300,H,S,E,A,E-H.png,A-S.png,hH,sS,mask-1.png,mask-1.png,h,1,0.32457749999593943,s,1,0.420356799964793,0.04723489994648844,0.04709400003775954,0.10022899997420609,0.1006939000217244,0.30026469996664673
RSVPLG03,cs,20260306-102837,1.0.2,20251105-084826,793,Experiment,Both,1,Automatic,main,95,20260306-103557,local,local,750,S,S,E,E,E-S.png,E-S.png,sS,sS,mask-3.png,mask-3.png,s,1,0.4143899999326095,s,1,0.07987240003421903,0.04867849999573082,0.0486697000451386,0.10008030000608414,0.09987640008330345,0.7519343999447301
RSVPLG03,cs,20260306-102837,1.0.2,20251105-084826,793,Experiment,Both,1,Automatic,main,96,20260306-103602,local,global,750,H,S,A,A,A-H.png,S-A.png,hH,sS,mask-2.png,mask-1.png,h,1,0.3611819000216201,h,0,0.1189932000124827,0.04670839989557862,0.04639329994097352,0.09989519999362528,0.0995781000237912,0.7513998999493197
RSVPLG03,cs,20260306-102837,1.0.2,20251105-084826,793,Experiment,Both,1,Automatic,main,97,20260306-103606,local,local,300,S,S,E,A,E-S.png,A-S.png,sS,sS,mask-1.png,mask-4.png,s,1,0.26702340005431324,s,1,0.05268730001989752,0.04671080003026873,0.04603910003788769,0.10029410000424832,0.09935689996927977,0.30091760004870594
RSVPLG03,cs,20260306-102837,1.0.2,20251105-084826,793,Experiment,Both,1,Automatic,main,98,20260306-103610,global,local,300,S,H,A,E,S-A.png,E-H.png,sS,hH,mask-3.png,mask-1.png,h,0,0.4495292999781668,h,1,0.07417749997694045,0.047546999994665384,0.046013400075025856,0.09956640005111694,0.09971300000324845,0.301916699972935
RSVPLG03,cs,20260306-102837,1.0.2,20251105-084826,793,Experiment,Both,1,Automatic,main,99,20260306-103614,global,global,750,S,S,E,A,S-E.png,S-A.png,sS,sS,mask-2.png,mask-1.png,h,0,1.8534833999583498,h,0,0.05512039992026985,0.047540699946694076,0.04764510004315525,0.09960379998665303,0.10087490000296384,0.7496779999928549
RSVPLG03,cs,20260306-102837,1.0.2,20251105-084826,793,Experiment,Both,1,Automatic,main,100,20260306-103621,local,local,750,S,S,A,A,A-S.png,A-S.png,sS,sS,mask-1.png,mask-3.png,s,1,0.2674654999282211,s,1,0.0547848999267444,0.046594300074502826,0.047709599952213466,0.0998883000575006,0.09989809989929199,0.7512967000948265
RSVPLG03,cs,20260306-103707,1.0.2,20251105-084826,793,Experiment,Both,1,Automatic,warmup,1,20260306-103728,local,local,750,S,S,E,A,E-S.png,A-S.png,sS,sS,mask-4.png,mask-2.png,s,1,2.088494800031185,h,0,2.2011872000293806,0.04064939997624606,0.04858220007736236,0.09341799991670996,0.10008270002435893,0.7428477999055758
RSVPLG03,cs,20260306-103707,1.0.2,20251105-084826,793,Experiment,Both,1,Automatic,warmup,2,20260306-103734,local,local,300,H,H,E,E,E-H.png,E-H.png,hH,hH,mask-3.png,mask-3.png,h,1,0.3530265000881627,h,1,0.04605380003340542,0.04780520009808242,0.04604549997020513,0.09982970007695258,0.09969979990273714,0.299869800102897
RSVPLG03,cs,20260306-103707,1.0.2,20251105-084826,793,Experiment,Both,1,Automatic,warmup,3,20260306-103738,local,global,750,H,S,A,E,A-H.png,S-E.png,hH,sS,mask-2.png,mask-2.png,h,1,0.4748146999627352,h,0,0.3101414000848308,0.048584199976176023,0.04753880004864186,0.10126060002949089,0.10055760003160685,0.7507800000021234
RSVPLG03,cs,20260306-103707,1.0.2,20251105-084826,793,Experiment,Both,1,Automatic,warmup,4,20260306-103743,global,global,750,H,H,A,E,H-A.png,H-E.png,hH,hH,mask-3.png,mask-4.png,h,1,0.297537500038743,h,1,0.05480919999536127,0.04727330000605434,0.04753330000676215,0.09973030001856387,0.1005074999993667,0.7506237999768928
RSVPLG03,cs,20260306-103707,1.0.2,20251105-084826,793,Experiment,Both,1,Automatic,main,5,20260306-103748,local,global,750,H,H,E,E,E-H.png,H-E.png,hH,hH,mask-3.png,mask-2.png,h,1,0.3828268999932334,h,1,0.07927049999125302,0.047561899991706014,0.047526400070637465,0.100558300036937,0.10064159997273237,0.7503175999736413
RSVPLG03,cs,20260306-103707,1.0.2,20251105-084826,793,Experiment,Both,1,Automatic,main,6,20260306-103752,local,global,750,H,S,E,A,E-H.png,S-A.png,hH,sS,mask-2.png,mask-2.png,s,0,0.9246255999896675,s,1,0.09426420007366687,0.04717700008768588,0.04731609998270869,0.09838420001324266,0.10049430001527071,0.7498867000686005
RSVPLG03,cs,20260306-103707,1.0.2,20251105-084826,793,Experiment,Both,1,Automatic,main,7,20260306-103757,global,local,750,S,H,A,E,S-A.png,E-H.png,sS,hH,mask-4.png,mask-1.png,s,1,0.6188077999977395,s,0,0.05427840002812445,0.04780709999613464,0.04668959998525679,0.10103530006017536,0.09983359999023378,0.7508356000762433
RSVPLG03,cs,20260306-103707,1.0.2,20251105-084826,793,Experiment,Both,1,Automatic,main,8,20260306-103802,global,local,300,H,H,E,A,H-E.png,A-H.png,hH,hH,mask-3.png,mask-4.png,h,1,0.6021117999916896,s,0,0.7748558999737725,0.04774720000568777,0.04671330004930496,0.10002970008645207,0.09894379996694624,0.30060950003098696
RSVPLG03,cs,20260306-103707,1.0.2,20251105-084826,793,Experiment,Both,1,Automatic,main,9,20260306-103807,local,global,750,H,S,E,E,E-H.png,S-E.png,hH,sS,mask-4.png,mask-4.png,h,1,0.4057827000506222,s,1,0.352249399991706,0.046188500011339784,0.04666140000335872,0.09915919997729361,0.09904080000706017,0.7511964000295848
RSVPLG03,cs,20260306-103707,1.0.2,20251105-084826,793,Experiment,Both,1,Automatic,main,10,20260306-103812,global,local,750,H,H,A,E,H-A.png,E-H.png,hH,hH,mask-2.png,mask-1.png,h,1,0.3675498999655247,h,1,0.14090040000155568,0.04767809994518757,0.047679100069217384,0.10170280002057552,0.09908169996924698,0.7519968999549747
RSVPLG03,cs,20260306-103707,1.0.2,20251105-084826,793,Experiment,Both,1,Automatic,main,11,20260306-103817,global,local,750,S,H,A,E,S-A.png,E-H.png,sS,hH,mask-2.png,mask-3.png,s,1,0.2825606999685988,h,1,0.19515040004625916,0.04836379992775619,0.04707910004071891,0.09959170001093298,0.10039130004588515,0.7496554999379441
RSVPLG03,cs,20260306-103707,1.0.2,20251105-084826,793,Experiment,Both,1,Automatic,main,12,20260306-103822,local,global,750,S,S,E,A,E-S.png,S-A.png,sS,sS,mask-2.png,mask-3.png,s,1,0.37772640003822744,s,1,0.1724221999756992,0.047674099914729595,0.046914400067180395,0.09985120000783354,0.10053240007255226,0.749561799922958
RSVPLG03,cs,20260306-103707,1.0.2,20251105-084826,793,Experiment,Both,1,Automatic,main,13,20260306-103827,local,local,750,S,S,A,A,A-S.png,A-S.png,sS,sS,mask-1.png,mask-1.png,s,1,0.29818849998991936,s,1,0.036846900009550154,0.047638599993661046,0.04758929996751249,0.09969649999402463,0.10027300007641315,0.7506251999875531
RSVPLG03,cs,20260306-103707,1.0.2,20251105-084826,793,Experiment,Both,1,Automatic,main,14,20260306-103831,global,global,750,H,H,E,A,H-E.png,H-A.png,hH,hH,mask-4.png,mask-1.png,h,1,0.303942900034599,h,1,0.049489400000311434,0.04755949997343123,0.04751379997469485,0.09955939999781549,0.10047850001137704,0.7495468000415713
RSVPLG03,cs,20260306-103707,1.0.2,20251105-084826,793,Experiment,Both,1,Automatic,main,15,20260306-103836,local,global,300,H,H,E,A,E-H.png,H-A.png,hH,hH,mask-1.png,mask-2.png,s,0,0.6877392999595031,s,0,0.09180489997379482,0.047503800014965236,0.04756830004043877,0.09950939996633679,0.09878959995694458,0.299720500013791
RSVPLG03,cs,20260306-103707,1.0.2,20251105-084826,793,Experiment,Both,1,Automatic,main,16,20260306-103840,global,local,750,S,H,A,E,S-A.png,E-H.png,sS,hH,mask-1.png,mask-1.png,s,1,0.45359569997526705,h,1,0.032641800004057586,0.046705499989911914,0.04769699997268617,0.10074729996267706,0.09890580002684146,0.7519532999722287
RSVPLG03,cs,20260306-103707,1.0.2,20251105-084826,793,Experiment,Both,1,Automatic,main,17,20260306-103845,local,global,750,S,H,E,A,E-S.png,H-A.png,sS,hH,mask-3.png,mask-1.png,s,1,0.38086030003614724,h,1,0.08817399991676211,0.047443400020711124,0.04865420004352927,0.10042339994106442,0.10082310007419437,0.7502817999338731
RSVPLG03,cs,20260306-103707,1.0.2,20251105-084826,793,Experiment,Both,1,Automatic,main,18,20260306-103849,global,local,300,H,H,E,E,H-E.png,E-H.png,hH,hH,mask-1.png,mask-1.png,h,1,0.3093736000591889,h,1,0.0386226000264287,0.04702499997802079,0.04871500004082918,0.09768130001612008,0.10089220001827925,0.2986827999120578
RSVPLG03,cs,20260306-103707,1.0.2,20251105-084826,793,Experiment,Both,1,Automatic,main,19,20260306-103853,local,local,750,H,H,A,E,A-H.png,E-H.png,hH,hH,mask-2.png,mask-4.png,h,1,0.31981699995230883,s,0,0.44832329999189824,0.047548200003802776,0.04725609999150038,0.09855220001190901,0.10040710004977882,0.7497577000176534
RSVPLG03,cs,20260306-103707,1.0.2,20251105-084826,793,Experiment,Both,1,Automatic,main,20,20260306-103858,global,local,300,S,S,A,A,S-A.png,A-S.png,sS,sS,mask-1.png,mask-2.png,s,1,1.0933024999685585,h,0,0.006073000025935471,0.04790939996019006,0.04684980004094541,0.1009703999152407,0.09926970000378788,0.3011592999100685
RSVPLG03,cs,20260306-103707,1.0.2,20251105-084826,793,Experiment,Both,1,Automatic,main,21,20260306-103903,local,local,300,H,H,E,A,E-H.png,A-H.png,hH,hH,mask-2.png,mask-3.png,h,1,0.1870773999253288,h,1,0.04252149991225451,0.04734609997831285,0.04697909997776151,0.1002163999946788,0.09977419988717884,0.30016690003685653
RSVPLG03,cs,20260306-103707,1.0.2,20251105-084826,793,Experiment,Both,1,Automatic,main,22,20260306-103906,local,global,300,S,S,A,E,A-S.png,S-E.png,sS,sS,mask-1.png,mask-4.png,s,1,0.4422074001049623,s,1,0.05348760006017983,0.04753470001742244,0.04750360001344234,0.098827000008896,0.09952600009273738,0.30017870001029223
RSVPLG03,cs,20260306-103707,1.0.2,20251105-084826,793,Experiment,Both,1,Automatic,main,23,20260306-103911,global,global,750,H,S,A,A,H-A.png,S-A.png,hH,sS,mask-2.png,mask-2.png,s,0,0.46311180002521724,h,0,0.6390305999666452,0.04594009998254478,0.04766620008740574,0.09933040000032634,0.09906590008176863,0.7500686999410391
RSVPLG03,cs,20260306-103707,1.0.2,20251105-084826,793,Experiment,Both,1,Automatic,main,24,20260306-103915,global,local,300,H,S,E,A,H-E.png,A-S.png,hH,sS,mask-3.png,mask-1.png,h,1,0.16352920001372695,s,1,0.05987360002472997,0.04830509994644672,0.04653020005207509,0.10069170000497252,0.09874439996201545,0.30151589994784445
RSVPLG03,cs,20260306-103707,1.0.2,20251105-084826,793,Experiment,Both,1,Automatic,main,25,20260306-103919,local,local,300,S,H,A,E,A-S.png,E-H.png,sS,hH,mask-4.png,mask-2.png,s,1,0.15405950008425862,h,1,0.1559078999562189,0.047320100013166666,0.04689330002292991,0.10030340007506311,0.09907649992965162,0.3001384000526741
RSVPLG03,cs,20260306-103707,1.0.2,20251105-084826,793,Experiment,Both,1,Automatic,main,26,20260306-103924,global,local,300,H,H,A,E,H-A.png,E-H.png,hH,hH,mask-3.png,mask-4.png,h,1,0.014502900070510805,s,0,0.521999099990353,0.047729299985803664,0.04667809989769012,0.098923199926503,0.09993259992916137,0.3006559000350535
RSVPLG03,cs,20260306-103707,1.0.2,20251105-084826,793,Experiment,Both,1,Automatic,main,27,20260306-103928,global,local,750,H,H,E,A,H-E.png,A-H.png,hH,hH,mask-4.png,mask-3.png,h,1,0.4097204999998212,h,1,0.19910780002828687,0.04793979995884001,0.046855099964886904,0.10017800005152822,0.09937760001048446,0.751240500016138
RSVPLG03,cs,20260306-103707,1.0.2,20251105-084826,793,Experiment,Both,1,Automatic,main,28,20260306-103933,global,global,300,H,H,A,A,H-A.png,H-A.png,hH,hH,mask-4.png,mask-3.png,h,1,0.047800400061532855,s,0,0.4959235000424087,0.045911099994555116,0.04559630004223436,0.09936709993053228,0.09879310010001063,0.3002099998993799
RSVPLG03,cs,20260306-103707,1.0.2,20251105-084826,793,Experiment,Both,1,Automatic,main,29,20260306-103937,global,global,750,S,H,A,A,S-A.png,H-A.png,sS,hH,mask-4.png,mask-4.png,s,1,0.15575130004435778,h,1,0.35168700001668185,0.04848979995585978,0.04740070004481822,0.10048510006163269,0.10006110009271652,0.7504394999705255
RSVPLG03,cs,20260306-103707,1.0.2,20251105-084826,793,Experiment,Both,1,Automatic,main,30,20260306-103942,local,local,300,S,H,E,E,E-S.png,E-H.png,sS,hH,mask-1.png,mask-1.png,s,1,0.3086231999332085,h,1,0.6129592000506818,0.04769759997725487,0.04717389994766563,0.09986850002314895,0.09844109998084605,0.29978540004231036
RSVPLG03,cs,20260306-103707,1.0.2,20251105-084826,793,Experiment,Both,1,Automatic,main,31,20260306-103946,local,local,750,S,S,A,A,A-S.png,A-S.png,sS,sS,mask-3.png,mask-1.png,s,1,0.29912009998224676,s,1,0.055126699968241155,0.047491999925114214,0.04790800006594509,0.09950599994044751,0.09963760001119226,0.7504039999330416
RSVPLG03,cs,20260306-103707,1.0.2,20251105-084826,793,Experiment,Both,1,Automatic,main,32,20260306-103950,local,local,750,S,H,A,A,A-S.png,A-H.png,sS,hH,mask-3.png,mask-4.png,s,1,0.20860050001647323,h,1,0.041130300029180944,0.04663949995301664,0.04914739995729178,0.09891939989756793,0.10100559995044023,0.7491056999424472
RSVPLG03,cs,20260306-103707,1.0.2,20251105-084826,793,Experiment,Both,1,Automatic,main,33,20260306-103955,global,local,750,H,S,E,E,H-E.png,E-S.png,hH,sS,mask-3.png,mask-4.png,s,0,0.34940970002207905,s,1,0.06004759995266795,0.04792669997550547,0.048576600034721196,0.09939339989796281,0.10162339999806136,0.7505114999366924
RSVPLG03,cs,20260306-103707,1.0.2,20251105-084826,793,Experiment,Both,1,Automatic,main,34,20260306-103959,local,global,300,H,H,A,E,A-H.png,H-E.png,hH,hH,mask-1.png,mask-1.png,h,1,0.053504199953749776,h,1,0.3765815000515431,0.0486691000405699,0.047668299986980855,0.10016819997690618,0.09939949994441122,0.3003969000419602
RSVPLG03,cs,20260306-103707,1.0.2,20251105-084826,793,Experiment,Both,1,Automatic,main,35,20260306-104003,local,global,300,H,S,E,E,E-H.png,S-E.png,hH,sS,mask-1.png,mask-3.png,s,0,0.26958690001629293,h,0,0.12301620002835989,0.048687699949368834,0.04710029996931553,0.10077169991564006,0.10032079997472465,0.30128659994807094
RSVPLG03,cs,20260306-103707,1.0.2,20251105-084826,793,Experiment,Both,1,Automatic,main,36,20260306-104008,global,local,750,S,H,A,E,S-A.png,E-H.png,sS,hH,mask-3.png,mask-4.png,s,1,0.2563370999414474,s,0,0.07678329991176724,0.04750119999516755,0.046267999918200076,0.10051439993549138,0.10072559991385788,0.7509316999930888
RSVPLG03,cs,20260306-103707,1.0.2,20251105-084826,793,Experiment,Both,1,Automatic,main,37,20260306-104012,global,global,300,S,S,A,A,S-A.png,S-A.png,sS,sS,mask-4.png,mask-2.png,s,1,0.20849380001891404,s,1,0.06184620002750307,0.04672799992840737,0.047563300002366304,0.09943029994610697,0.10063750005792826,0.29998459992930293
RSVPLG03,cs,20260306-103707,1.0.2,20251105-084826,793,Experiment,Both,1,Automatic,main,38,20260306-104016,local,local,300,S,S,E,E,E-S.png,E-S.png,sS,sS,mask-1.png,mask-1.png,s,1,0.11363569996319711,s,1,0.05167990003246814,0.0475405000615865,0.04755650006700307,0.10052150010596961,0.09911110007669777,0.3001310999970883
RSVPLG03,cs,20260306-103707,1.0.2,20251105-084826,793,Experiment,Both,1,Automatic,main,39,20260306-104020,global,local,750,S,H,E,E,S-E.png,E-H.png,sS,hH,mask-2.png,mask-2.png,s,1,0.5001682000001892,s,0,0.06765280000399798,0.047595700016245246,0.04751840000972152,0.10065320006106049,0.09961140004452318,0.7506127000087872
RSVPLG03,cs,20260306-103707,1.0.2,20251105-084826,793,Experiment,Both,1,Automatic,main,40,20260306-104025,global,local,300,H,S,A,A,H-A.png,A-S.png,hH,sS,mask-1.png,mask-3.png,h,1,0.16283589997328818,s,1,0.40956049994565547,0.04725599999073893,0.04885139991529286,0.09987589996308088,0.10007759998552501,0.29902050003875047
RSVPLG03,cs,20260306-103707,1.0.2,20251105-084826,793,Experiment,Both,1,Automatic,main,41,20260306-104029,local,global,300,H,H,A,E,A-H.png,H-E.png,hH,hH,mask-2.png,mask-2.png,h,1,0.3137253999011591,h,1,0.19756739994045347,0.04886910005006939,0.046912800054997206,0.10106530005577952,0.10094380006194115,0.30071380001027137
RSVPLG03,cs,20260306-103707,1.0.2,20251105-084826,793,Experiment,Both,1,Automatic,main,42,20260306-104032,global,global,750,S,S,E,E,S-E.png,S-E.png,sS,sS,mask-2.png,mask-2.png,s,1,0.21008580003399402,s,1,0.07466490007936954,0.047212200006470084,0.047606299980543554,0.09920179995242506,0.1004879999672994,0.7493279000045732
RSVPLG03,cs,20260306-103707,1.0.2,20251105-084826,793,Experiment,Both,1,Automatic,main,43,20260306-104037,global,global,750,H,S,A,A,H-A.png,S-A.png,hH,sS,mask-1.png,mask-3.png,h,1,0.03985040006227791,s,1,0.4304212999995798,0.045632699970155954,0.047320200013928115,0.0973113999934867,0.10004409996327013,0.749445499968715
RSVPLG03,cs,20260306-103707,1.0.2,20251105-084826,793,Experiment,Both,1,Automatic,main,44,20260306-104041,global,local,300,S,S,E,A,S-E.png,A-S.png,sS,sS,mask-3.png,mask-3.png,s,1,0.2304861000739038,h,0,0.3184259000699967,0.04754950001370162,0.047521299915388227,0.0993053000420332,0.10053789999801666,0.2995773000875488
RSVPLG03,cs,20260306-103707,1.0.2,20251105-084826,793,Experiment,Both,1,Automatic,main,45,20260306-104045,local,global,750,H,H,A,E,A-H.png,H-E.png,hH,hH,mask-4.png,mask-2.png,s,0,0.6190446000546217,s,0,0.23579009994864464,0.04716830002143979,0.047216399922035635,0.09915489994455129,0.10023649991489947,0.7501123000402004
RSVPLG03,cs,20260306-103707,1.0.2,20251105-084826,793,Experiment,Both,1,Automatic,main,46,20260306-104050,global,global,300,S,S,A,A,S-A.png,S-A.png,sS,sS,mask-2.png,mask-4.png,s,1,0.3366124000167474,s,1,0.08061409997753799,0.047724799951538444,0.04726899997331202,0.09888249996583909,0.1004564999602735,0.29949210002087057
RSVPLG03,cs,20260306-103707,1.0.2,20251105-084826,793,Experiment,Both,1,Automatic,main,47,20260306-104054,global,local,750,S,H,E,E,S-E.png,E-H.png,sS,hH,mask-3.png,mask-3.png,s,1,0.30513729993253946,s,0,0.06461440003477037,0.0463296000380069,0.04761340003460646,0.09987809997983277,0.10109829995781183,0.749707099981606
RSVPLG03,cs,20260306-103707,1.0.2,20251105-084826,793,Experiment,Both,1,Automatic,main,48,20260306-104059,global,global,750,H,H,A,E,H-A.png,H-E.png,hH,hH,mask-3.png,mask-3.png,h,1,0.24629879998974502,h,1,0.049783899914473295,0.048356300103478134,0.04721160000190139,0.1010362000670284,0.10075390001293272,0.7508642000611871
RSVPLG03,cs,20260306-103707,1.0.2,20251105-084826,793,Experiment,Both,1,Automatic,main,49,20260306-104103,global,global,300,H,S,E,E,H-E.png,S-E.png,hH,sS,mask-2.png,mask-2.png,h,1,0.1829655000474304,s,1,0.3108417000621557,0.04738200001884252,0.04720989998895675,0.10098370001651347,0.09966750000603497,0.3004213999956846
RSVPLG03,cs,20260306-103707,1.0.2,20251105-084826,793,Experiment,Both,1,Automatic,main,50,20260306-104107,local,local,300,S,H,E,E,E-S.png,E-H.png,sS,hH,mask-4.png,mask-4.png,s,1,0.18717629997991025,h,1,1.1491105000022799,0.0471906999591738,0.04649969993624836,0.0985450999578461,0.09911259997170419,0.29970269999466836
RSVPLG03,cs,20260306-103707,1.0.2,20251105-084826,793,Experiment,Both,1,Automatic,main,51,20260306-104120,local,global,300,H,H,A,E,A-H.png,H-E.png,hH,hH,mask-1.png,mask-1.png,h,1,0.1743161000777036,h,1,0.08051630004774779,0.04723470006138086,0.04719329997897148,0.10211119998712093,0.10066650004591793,0.3003799000289291
RSVPLG03,cs,20260306-103707,1.0.2,20251105-084826,793,Experiment,Both,1,Automatic,main,52,20260306-104124,local,global,750,H,H,A,A,A-H.png,H-A.png,hH,hH,mask-3.png,mask-1.png,h,1,0.31135440000798553,h,1,0.05910970002878457,0.048893800005316734,0.04847929999232292,0.10127010010182858,0.10152009990997612,0.7501366001088172
RSVPLG03,cs,20260306-103707,1.0.2,20251105-084826,793,Experiment,Both,1,Automatic,main,53,20260306-104129,global,local,750,H,H,A,A,H-A.png,A-H.png,hH,hH,mask-1.png,mask-3.png,h,1,0.2948609000304714,h,1,0.04375730000901967,0.04726300004404038,0.047169000026769936,0.1001188000664115,0.10028940008487552,0.7489302000030875
RSVPLG03,cs,20260306-103707,1.0.2,20251105-084826,793,Experiment,Both,1,Automatic,main,54,20260306-104133,global,local,750,H,H,A,A,H-A.png,A-H.png,hH,hH,mask-3.png,mask-3.png,h,1,0.25865680002607405,h,1,0.010995200020261109,0.04767840006388724,0.04667349997907877,0.1001296000322327,0.09984699997585267,0.7508976000826806
RSVPLG03,cs,20260306-103707,1.0.2,20251105-084826,793,Experiment,Both,1,Automatic,main,55,20260306-104138,global,global,750,H,H,A,A,H-A.png,H-A.png,hH,hH,mask-4.png,mask-3.png,h,1,0.2445231000892818,h,1,0.04468370007816702,0.04697599995415658,0.047252199961803854,0.10022899997420609,0.1003517999779433,0.7515462000155821
RSVPLG03,cs,20260306-103707,1.0.2,20251105-084826,793,Experiment,Both,1,Automatic,main,56,20260306-104142,local,global,300,H,S,E,A,E-H.png,S-A.png,hH,sS,mask-4.png,mask-4.png,s,0,0.5133162999991328,s,1,0.09668970003258437,0.04874610004480928,0.046760199940763414,0.1014879000140354,0.09919689991511405,0.3015964000951499
RSVPLG03,cs,20260306-103707,1.0.2,20251105-084826,793,Experiment,Both,1,Automatic,main,57,20260306-104146,local,local,750,H,S,E,A,E-H.png,A-S.png,hH,sS,mask-2.png,mask-1.png,s,0,0.3733512000180781,s,1,0.061635499936528504,0.04764740006066859,0.04752270004246384,0.09905720001552254,0.10069540003314614,0.7493904000148177
RSVPLG03,cs,20260306-103707,1.0.2,20251105-084826,793,Experiment,Both,1,Automatic,main,58,20260306-104151,global,global,300,H,S,A,E,H-A.png,S-E.png,hH,sS,mask-2.png,mask-2.png,h,1,0.6430730000138283,s,1,0.7228468999965116,0.0476691999938339,0.04766609997022897,0.09985550004057586,0.10195009992457926,0.29966810008045286
RSVPLG03,cs,20260306-103707,1.0.2,20251105-084826,793,Experiment,Both,1,Automatic,main,59,20260306-104155,local,local,300,S,S,E,E,E-S.png,E-S.png,sS,sS,mask-3.png,mask-2.png,s,1,0.30586820002645254,s,1,0.06632169999647886,0.04671240004245192,0.04766449995804578,0.09970370004884899,0.09908299997914582,0.2993832000065595
RSVPLG03,cs,20260306-103707,1.0.2,20251105-084826,793,Experiment,Both,1,Automatic,main,60,20260306-104159,local,global,300,S,H,E,A,E-S.png,H-A.png,sS,hH,mask-1.png,mask-2.png,s,1,0.3700697000604123,s,0,0.0423163000959903,0.046470100060105324,0.04861449997406453,0.0984593000030145,0.10017009999137372,0.298333500046283
RSVPLG03,cs,20260306-103707,1.0.2,20251105-084826,793,Experiment,Both,1,Automatic,main,61,20260306-104203,global,global,300,S,H,E,E,S-E.png,H-E.png,sS,hH,mask-3.png,mask-3.png,s,1,1.223762599984184,h,1,0.6215513000497594,0.0492573999799788,0.04900270001962781,0.10089050000533462,0.10073329997248948,0.3001784000080079
RSVPLG03,cs,20260306-103707,1.0.2,20251105-084826,793,Experiment,Both,1,Automatic,main,62,20260306-104209,global,global,300,S,S,A,E,S-A.png,S-E.png,sS,sS,mask-3.png,mask-1.png,h,0,0.31465380010195076,s,1,0.48377159994561225,0.04764819995034486,0.04779019998386502,0.09905770001932979,0.10003410000354052,0.2996818999527022
RSVPLG03,cs,20260306-103707,1.0.2,20251105-084826,793,Experiment,Both,1,Automatic,main,63,20260306-104213,local,global,750,H,S,A,E,A-H.png,S-E.png,hH,sS,mask-4.png,mask-2.png,h,1,0.23554000002332032,s,1,0.3802185000386089,0.04669009998906404,0.04658940003719181,0.09988029999658465,0.09916069998871535,0.7508316000457853
RSVPLG03,cs,20260306-103707,1.0.2,20251105-084826,793,Experiment,Both,1,Automatic,main,64,20260306-104218,local,local,300,H,H,A,E,A-H.png,E-H.png,hH,hH,mask-4.png,mask-3.png,h,1,0.20926120004151016,h,1,0.03856769995763898,0.04605999996419996,0.04753959993831813,0.09828539995942265,0.09953689994290471,0.3000288000330329
RSVPLG03,cs,20260306-103707,1.0.2,20251105-084826,793,Experiment,Both,1,Automatic,main,65,20260306-104222,local,local,750,H,S,A,A,A-H.png,A-S.png,hH,sS,mask-1.png,mask-3.png,h,1,0.21098380000330508,s,1,0.3067952999845147,0.04762629990000278,0.04627449996769428,0.09952179994434118,0.0985649999929592,0.7508073999779299
RSVPLG03,cs,20260306-103707,1.0.2,20251105-084826,793,Experiment,Both,1,Automatic,main,66,20260306-104226,local,global,750,H,S,A,E,A-H.png,S-E.png,hH,sS,mask-3.png,mask-1.png,h,1,0.6365159000270069,h,0,0.15067730005830526,0.04571790003683418,0.04668220004532486,0.09891040006186813,0.10098410001955926,0.7495895000174642
RSVPLG03,cs,20260306-103707,1.0.2,20251105-084826,793,Experiment,Both,1,Automatic,main,67,20260306-104231,global,local,300,S,S,E,A,S-E.png,A-S.png,sS,sS,mask-3.png,mask-3.png,s,1,0.7980296000605449,h,0,0.04002130008302629,0.04730609990656376,0.047081599943339825,0.10031669994350523,0.09837699995841831,0.30037569999694824
RSVPLG03,cs,20260306-103707,1.0.2,20251105-084826,793,Experiment,Both,1,Automatic,main,68,20260306-104236,local,global,750,S,H,A,E,A-S.png,H-E.png,sS,hH,mask-2.png,mask-4.png,s,1,0.34639449999667704,s,0,0.060564500046893954,0.0477004999993369,0.04756980005186051,0.10092019999865443,0.10150140000041574,0.7501340999733657
RSVPLG03,cs,20260306-103707,1.0.2,20251105-084826,793,Experiment,Both,1,Automatic,main,69,20260306-104240,local,local,750,H,H,E,E,E-H.png,E-H.png,hH,hH,mask-1.png,mask-4.png,h,1,0.3788217999972403,h,1,0.023382999934256077,0.0477744999807328,0.04691050003748387,0.10104859992861748,0.09900380007456988,0.7515064999461174
RSVPLG03,cs,20260306-103707,1.0.2,20251105-084826,793,Experiment,Both,1,Automatic,main,70,20260306-104245,local,local,750,H,H,E,E,E-H.png,E-H.png,hH,hH,mask-2.png,mask-4.png,h,1,0.2123458000132814,h,1,0.0417721999110654,0.047802999964915216,0.04767860006541014,0.09840170003008097,0.09989429998677224,0.7503493999829516
RSVPLG03,cs,20260306-103707,1.0.2,20251105-084826,793,Experiment,Both,1,Automatic,main,71,20260306-104249,local,local,300,S,S,E,A,E-S.png,A-S.png,sS,sS,mask-3.png,mask-3.png,s,1,0.2754035999532789,s,1,0.07517990004271269,0.04867070005275309,0.049169400008395314,0.09986830002162606,0.10091699997428805,0.2991279000416398
RSVPLG03,cs,20260306-103707,1.0.2,20251105-084826,793,Experiment,Both,1,Automatic,main,72,20260306-104253,local,local,750,H,H,A,E,A-H.png,E-H.png,hH,hH,mask-1.png,mask-2.png,h,1,0.31130059994757175,h,1,0.02432789991144091,0.04737519996706396,0.047502300003543496,0.10054000001400709,0.09856399998534471,0.7518431999487802
RSVPLG03,cs,20260306-103707,1.0.2,20251105-084826,793,Experiment,Both,1,Automatic,main,73,20260306-104258,local,global,750,H,H,A,A,A-H.png,H-A.png,hH,hH,mask-1.png,mask-2.png,h,1,0.6414767000824213,s,0,0.47023770003579557,0.047068299958482385,0.04767969995737076,0.09940459998324513,0.098733099992387,0.7504783000331372
RSVPLG03,cs,20260306-103707,1.0.2,20251105-084826,793,Experiment,Both,1,Automatic,main,74,20260306-104303,global,global,750,S,H,A,E,S-A.png,H-E.png,sS,hH,mask-2.png,mask-4.png,s,1,0.6575545999221504,s,0,0.07191880000755191,0.04768260009586811,0.04850390006322414,0.09986419999040663,0.1017566000809893,0.7485914999851957
RSVPLG03,cs,20260306-103707,1.0.2,20251105-084826,793,Experiment,Both,1,Automatic,main,75,20260306-104308,local,local,300,S,S,A,A,A-S.png,A-S.png,sS,sS,mask-3.png,mask-1.png,s,1,0.32438749994616956,h,0,0.08603680005762726,0.04649760003667325,0.04759640002157539,0.09949729999061674,0.10059619997628033,0.2994433999992907
RSVPLG03,cs,20260306-103707,1.0.2,20251105-084826,793,Experiment,Both,1,Automatic,main,76,20260306-104313,global,local,300,S,S,E,A,S-E.png,A-S.png,sS,sS,mask-2.png,mask-3.png,h,0,0.3492630999535322,s,1,0.49344489991199225,0.04659589997027069,0.047515699989162385,0.09893510001711547,0.09943820000626147,0.30009539995808154
RSVPLG03,cs,20260306-103707,1.0.2,20251105-084826,793,Experiment,Both,1,Automatic,main,77,20260306-104317,global,local,300,H,H,A,A,H-A.png,A-H.png,hH,hH,mask-2.png,mask-1.png,h,1,0.384360000025481,h,1,0.01754829997662455,0.04651200002990663,0.04841410007793456,0.09960960003081709,0.10043490002863109,0.2998491999460384
RSVPLG03,cs,20260306-103707,1.0.2,20251105-084826,793,Experiment,Both,1,Automatic,main,78,20260306-104321,global,global,750,H,S,A,A,H-A.png,S-A.png,hH,sS,mask-2.png,mask-4.png,h,1,0.3851795999798924,s,1,0.46507550007663667,0.04791039996780455,0.047200500033795834,0.10011440003290772,0.09964790008962154,0.7513048999244347
RSVPLG03,cs,20260306-103707,1.0.2,20251105-084826,793,Experiment,Both,1,Automatic,main,79,20260306-104326,global,global,750,S,S,A,A,S-A.png,S-A.png,sS,sS,mask-3.png,mask-1.png,s,1,0.23341869993600994,h,0,0.059247100027278066,0.04857320000883192,0.047698099981062114,0.10061439999844879,0.09989409998524934,0.7508537999819964
RSVPLG03,cs,20260306-103707,1.0.2,20251105-084826,793,Experiment,Both,1,Automatic,main,80,20260306-104330,global,global,300,H,H,E,E,H-E.png,H-E.png,hH,hH,mask-1.png,mask-1.png,s,0,0.5699304000008851,s,0,0.09056789998430759,0.04597670002840459,0.04793700005393475,0.09837309992872179,0.10011160001158714,0.29995229991618544
RSVPLG03,cs,20260306-103707,1.0.2,20251105-084826,793,Experiment,Both,1,Automatic,main,81,20260306-104334,global,global,300,H,H,E,A,H-E.png,H-A.png,hH,hH,mask-1.png,mask-2.png,h,1,0.43542039999738336,h,1,0.05456449999473989,0.04767370002809912,0.047662600059993565,0.10067339998204261,0.09987740009091794,0.3012604999821633
RSVPLG03,cs,20260306-103707,1.0.2,20251105-084826,793,Experiment,Both,1,Automatic,main,82,20260306-104339,global,local,300,H,H,E,E,H-E.png,E-H.png,hH,hH,mask-4.png,mask-3.png,s,0,0.5099818999879062,h,1,0.5531298000132665,0.04766380006913096,0.047618099953979254,0.09973330004140735,0.09880419995170087,0.29977460007648915
RSVPLG03,cs,20260306-103707,1.0.2,20251105-084826,793,Experiment,Both,1,Automatic,main,83,20260306-104343,local,global,300,H,H,E,A,E-H.png,H-A.png,hH,hH,mask-1.png,mask-3.png,h,1,0.30521979997865856,h,1,0.08057450002525002,0.04850489995442331,0.04751099995337427,0.10148409998510033,0.10052239999640733,0.3011013000505045
RSVPLG03,cs,20260306-103707,1.0.2,20251105-084826,793,Experiment,Both,1,Automatic,main,84,20260306-104347,global,global,300,H,S,E,E,H-E.png,S-E.png,hH,sS,mask-2.png,mask-3.png,h,1,1.3350575000513345,s,1,1.4788092999951914,0.047542700078338385,0.04670940001960844,0.10154100006911904,0.09956040000542998,0.3018111999845132
RSVPLG03,cs,20260306-103707,1.0.2,20251105-084826,793,Experiment,Both,1,Automatic,main,85,20260306-104353,global,global,300,H,S,A,E,H-A.png,S-E.png,hH,sS,mask-4.png,mask-3.png,h,1,0.8884706000098959,s,1,0.5723565000807866,0.04858380008954555,0.046918599982745945,0.10072630003560334,0.09989860001951456,0.3011802000692114
RSVPLG03,cs,20260306-103707,1.0.2,20251105-084826,793,Experiment,Both,1,Automatic,main,86,20260306-104358,local,local,300,H,S,A,A,A-H.png,A-S.png,hH,sS,mask-2.png,mask-3.png,h,1,0.7594613999826834,h,0,0.05326409998815507,0.04806810000445694,0.04623350000474602,0.10125000006519258,0.09924650005996227,0.3018096999730915
RSVPLG03,cs,20260306-103707,1.0.2,20251105-084826,793,Experiment,Both,1,Automatic,main,87,20260306-104402,global,local,300,H,H,A,A,H-A.png,A-H.png,hH,hH,mask-2.png,mask-3.png,h,1,0.2328916999977082,h,1,0.03954419994261116,0.04824259993620217,0.048908299999311566,0.10150129999965429,0.10086150001734495,0.3002700998913497
RSVPLG03,cs,20260306-103707,1.0.2,20251105-084826,793,Experiment,Both,1,Automatic,main,88,20260306-104406,global,local,750,S,S,A,A,S-A.png,A-S.png,sS,sS,mask-2.png,mask-1.png,s,1,1.0597038000123575,h,0,0.38209810003172606,0.04773829993791878,0.04732600005809218,0.1011028999928385,0.10080370004288852,0.7499627999495715
RSVPLG03,cs,20260306-103707,1.0.2,20251105-084826,793,Experiment,Both,1,Automatic,main,89,20260306-104412,local,local,750,H,S,E,E,E-H.png,E-S.png,hH,sS,mask-1.png,mask-3.png,s,0,0.4028739999048412,s,1,0.07195910008158535,0.04603540000971407,0.04619759996421635,0.09858340001665056,0.09931319998577237,0.7505202000029385
RSVPLG03,cs,20260306-103707,1.0.2,20251105-084826,793,Experiment,Both,1,Automatic,main,90,20260306-104416,global,global,300,H,H,E,A,H-E.png,H-A.png,hH,hH,mask-1.png,mask-2.png,h,1,0.09198559995274991,h,1,0.04686440003570169,0.046539600007236004,0.04667090007569641,0.09984849998727441,0.09970520006027073,0.2998105000006035
RSVPLG03,cs,20260306-103707,1.0.2,20251105-084826,793,Experiment,Both,1,Automatic,main,91,20260306-104420,local,local,750,H,H,E,A,E-H.png,A-H.png,hH,hH,mask-4.png,mask-3.png,h,1,0.31865489995107055,h,1,0.02662290004082024,0.04747960006352514,0.046520199975930154,0.09951790003105998,0.09955769998487085,0.7501582000404596
RSVPLG03,cs,20260306-103707,1.0.2,20251105-084826,793,Experiment,Both,1,Automatic,main,92,20260306-104425,local,global,750,H,S,A,A,A-H.png,S-A.png,hH,sS,mask-1.png,mask-3.png,h,1,0.44359790009912103,s,1,0.05161890003364533,0.04711309995036572,0.04691529995761812,0.10011569992639124,0.09872260002885014,0.7500602999934927
RSVPLG03,cs,20260306-103707,1.0.2,20251105-084826,793,Experiment,Both,1,Automatic,main,93,20260306-104429,global,global,750,S,H,E,A,S-E.png,H-A.png,sS,hH,mask-2.png,mask-4.png,s,1,0.17627260007429868,h,1,0.05136170005425811,0.04849239997565746,0.046934899990446866,0.099534000037238,0.09957850002683699,0.7507487999973819
RSVPLG03,cs,20260306-103707,1.0.2,20251105-084826,793,Experiment,Both,1,Automatic,main,94,20260306-104434,local,local,750,H,S,E,A,E-H.png,A-S.png,hH,sS,mask-2.png,mask-1.png,h,1,0.28691139991860837,s,1,0.21804130007512867,0.046674399985931814,0.04769679997116327,0.09972230007406324,0.10089280002284795,0.7500443999888375
RSVPLG03,cs,20260306-103707,1.0.2,20251105-084826,793,Experiment,Both,1,Automatic,main,95,20260306-104439,local,global,300,S,H,E,A,E-S.png,H-A.png,sS,hH,mask-3.png,mask-3.png,s,1,0.3064982999349013,s,0,0.07004620006773621,0.04839330003596842,0.04792389995418489,0.10012050007935613,0.1000804000068456,0.3002874000230804
RSVPLG03,cs,20260306-103707,1.0.2,20251105-084826,793,Experiment,Both,1,Automatic,main,96,20260306-104443,local,local,300,S,S,E,E,E-S.png,E-S.png,sS,sS,mask-1.png,mask-4.png,s,1,0.19263160007540137,s,1,0.033191700000315905,0.04755459993612021,0.047563000000081956,0.09826909995172173,0.09952140005771071,0.29969309992156923
RSVPLG03,cs,20260306-103707,1.0.2,20251105-084826,793,Experiment,Both,1,Automatic,main,97,20260306-104447,local,global,300,H,H,E,E,E-H.png,H-E.png,hH,hH,mask-1.png,mask-3.png,h,1,0.41976489999797195,h,1,0.05870300007518381,0.047598900040611625,0.04567929997574538,0.10086700005922467,0.10004509997088462,0.30218810006044805
RSVPLG03,cs,20260306-103707,1.0.2,20251105-084826,793,Experiment,Both,1,Automatic,main,98,20260306-104451,global,global,750,H,S,E,A,H-E.png,S-A.png,hH,sS,mask-3.png,mask-4.png,h,1,0.37159910006448627,s,1,0.483556600054726,0.047574799973517656,0.046798700001090765,0.10151750000659376,0.09877819998655468,0.7521417000098154
RSVPLG03,cs,20260306-103707,1.0.2,20251105-084826,793,Experiment,Both,1,Automatic,main,99,20260306-104455,local,local,300,H,H,A,E,A-H.png,E-H.png,hH,hH,mask-3.png,mask-4.png,h,1,0.5679916000226513,h,1,0.07544310006778687,0.04881629999727011,0.047680400079116225,0.1009972000028938,0.09986279997974634,0.30166330002248287
RSVPLG03,cs,20260306-103707,1.0.2,20251105-084826,793,Experiment,Both,1,Automatic,main,100,20260306-104500,local,global,300,S,H,A,A,A-S.png,H-A.png,sS,hH,mask-1.png,mask-3.png,s,1,0.3942551000509411,s,0,0.14595009991899133,0.046052200021222234,0.04877940006554127,0.09829009999521077,0.10003780003171414,0.29976279998663813
