exp,exp_initials,runtime,ver,modtime,sub,blocktype,targets,cuetype,mode,trialtype,trial,trialtime,t1_level,t2_level,t2_lag,t1,t2,distractor1,distractor2,stimfile1,stimfile2,t1_corr,t2_corr,maskfile1,maskfile2,t1_resp,t1_acc,t1_rt,t2_resp,t2_acc,t2_rt,t1_dur,t2_dur,t1mask_soa,t2mask_soa,t1t2_soa
RSVPLG03,sg,20251028-141453,1.0.1,20251020-085245,722,Introduction,T1,1,Automatic,main,1,20251028-141531,global,local,750,S,S,E,E,S-E.png,E-S.png,sS,sS,mask-2.png,mask-1.png,s,1,0.7098549000220373,none,-5,0,0.08899489999748766,0.09754700004123151,0.19286409998312593,0.1995963000226766,0.743191699963063
RSVPLG03,sg,20251028-141453,1.0.1,20251020-085245,722,Introduction,T1,1,Automatic,main,2,20251028-141536,global,global,750,H,H,E,A,H-E.png,H-A.png,hH,hH,mask-3.png,mask-1.png,h,1,1.5901940000476316,none,-5,0,0.09738799999468029,0.09772680001333356,0.19932790007442236,0.1998118000337854,0.7501331999665126
RSVPLG03,sg,20251028-141453,1.0.1,20251020-085245,722,Introduction,T1,1,Automatic,main,3,20251028-141542,global,local,750,S,S,E,A,S-E.png,A-S.png,sS,sS,mask-4.png,mask-1.png,s,1,1.3700614999979734,none,-5,0,0.09754819993395358,0.09754250000696629,0.19960799999535084,0.1996250000083819,0.7505533000221476
RSVPLG03,sg,20251028-141453,1.0.1,20251020-085245,722,Introduction,T1,1,Automatic,main,4,20251028-141547,local,global,750,H,S,A,E,A-H.png,S-E.png,hH,sS,mask-2.png,mask-1.png,h,1,1.6233306999783963,none,-5,0,0.09755049995146692,0.09662099997512996,0.20058249996509403,0.1997819000389427,0.7508976999670267
RSVPLG03,sg,20251028-141453,1.0.1,20251020-085245,722,Introduction,T1,1,Automatic,main,5,20251028-141553,global,global,750,H,S,A,E,H-A.png,S-E.png,hH,sS,mask-1.png,mask-3.png,h,1,0.900398200028576,none,-5,0,0.09752129996195436,0.09851270006038249,0.20040789991617203,0.20024560007732362,0.7500651999143884
RSVPLG03,sg,20251028-141453,1.0.1,20251020-085245,722,Introduction,T1,1,Automatic,main,6,20251028-141558,local,local,750,H,S,A,E,A-H.png,E-S.png,hH,sS,mask-2.png,mask-4.png,h,1,2.1039826999185607,none,-5,0,0.0990711998892948,0.09644049999769777,0.2016910999082029,0.19844040006864816,0.7520087999291718
RSVPLG03,sg,20251028-141453,1.0.1,20251020-085245,722,Introduction,T1,1,Automatic,main,7,20251028-141605,local,global,750,S,H,A,E,A-S.png,H-E.png,sS,hH,mask-4.png,mask-4.png,s,1,0.5475758999818936,none,-5,0,0.09758309996686876,0.0975644999416545,0.19903110002633184,0.20065619994420558,0.750371600035578
RSVPLG03,sg,20251028-141453,1.0.1,20251020-085245,722,Introduction,T1,1,Automatic,main,8,20251028-141609,global,local,750,S,H,A,A,S-A.png,A-H.png,sS,hH,mask-2.png,mask-1.png,h,0,0.6067047999240458,none,-5,0,0.09755090007092804,0.09855479991529137,0.1994812999619171,0.2005537999793887,0.7490760000655428
RSVPLG03,sg,20251028-141453,1.0.1,20251020-085245,722,Introduction,T1,1,Automatic,main,9,20251028-141614,local,local,750,H,H,A,E,A-H.png,E-H.png,hH,hH,mask-1.png,mask-3.png,h,1,0.4344488999340683,none,-5,0,0.09672130004037172,0.09769560000859201,0.19856180006172508,0.2003677999600768,0.749424200039357
RSVPLG03,sg,20251028-141453,1.0.1,20251020-085245,722,Introduction,T1,1,Automatic,main,10,20251028-141619,local,global,750,S,S,A,E,A-S.png,S-E.png,sS,sS,mask-2.png,mask-2.png,s,1,0.273519599926658,none,-5,0,0.09746829990763217,0.09755740000400692,0.19940879999194294,0.19908579997718334,0.7502529999474064
RSVPLG03,sg,20251028-141453,1.0.1,20251020-085245,722,Introduction,T1,1,Automatic,main,11,20251028-141623,global,local,750,H,H,E,E,H-E.png,E-H.png,hH,hH,mask-2.png,mask-2.png,h,1,0.34854759997688234,none,-5,0,0.09747959999367595,0.09739520004950464,0.20050689997151494,0.2004179999930784,0.7501936999615282
RSVPLG03,sg,20251028-141453,1.0.1,20251020-085245,722,Introduction,T1,1,Automatic,main,12,20251028-141628,local,local,750,H,H,E,E,E-H.png,E-H.png,hH,hH,mask-3.png,mask-1.png,h,1,0.3941164999268949,none,-5,0,0.09861859993543476,0.09840379992965609,0.20017009996809065,0.20063779992051423,0.7508839999791235
RSVPLG03,sg,20251028-141453,1.0.1,20251020-085245,722,Introduction,T1,1,Automatic,main,13,20251028-141633,global,global,750,H,H,A,A,H-A.png,H-A.png,hH,hH,mask-4.png,mask-1.png,h,1,0.37789819994941354,none,-5,0,0.09659570001531392,0.09850369999185205,0.20065370004158467,0.20123710006009787,0.7494169999845326
RSVPLG03,sg,20251028-141453,1.0.1,20251020-085245,722,Introduction,T1,1,Automatic,main,14,20251028-141637,local,local,750,H,S,E,A,E-H.png,A-S.png,hH,sS,mask-3.png,mask-2.png,s,0,1.046699200058356,none,-5,0,0.09690030000638217,0.09754799993243068,0.20087419997435063,0.19876869989093393,0.7507053000153974
RSVPLG03,sg,20251028-141453,1.0.1,20251020-085245,722,Introduction,T1,1,Automatic,main,15,20251028-141642,local,global,750,H,S,E,E,E-H.png,S-E.png,hH,sS,mask-2.png,mask-1.png,h,1,1.270705199916847,none,-5,0,0.09765060001518577,0.09890009998343885,0.19971429998986423,0.2020165000576526,0.7483600999694318
RSVPLG03,sg,20251028-141453,1.0.1,20251020-085245,722,Introduction,T1,1,Automatic,main,16,20251028-141648,global,global,750,S,H,A,E,S-A.png,H-E.png,sS,hH,mask-1.png,mask-2.png,s,1,0.6664017000002787,none,-5,0,0.09605789999477565,0.09830880002118647,0.19978799996897578,0.2004311999771744,0.7488167999545112
RSVPLG03,sg,20251028-141712,1.0.1,20251020-085245,722,Practice,T1,1,Automatic,main,1,20251028-141753,local,local,300,H,H,E,E,E-H.png,E-H.png,hH,hH,mask-2.png,mask-1.png,h,1,1.770801999955438,none,-5,0,0.042066099937073886,0.04652639990672469,0.09466709999833256,0.0978256999514997,0.29565119999460876
RSVPLG03,sg,20251028-141712,1.0.1,20251020-085245,722,Practice,T1,1,Automatic,main,2,20251028-141758,global,local,750,S,S,A,E,S-A.png,E-S.png,sS,sS,mask-3.png,mask-1.png,s,1,0.7801614999771118,none,-5,0,0.045650199986994267,0.04717860009986907,0.09811120002996176,0.10030730010475963,0.7499308999394998
RSVPLG03,sg,20251028-141712,1.0.1,20251020-085245,722,Practice,T1,1,Automatic,main,3,20251028-141803,global,local,750,H,H,E,A,H-E.png,A-H.png,hH,hH,mask-3.png,mask-3.png,h,1,0.8384641000302508,none,-5,0,0.04754049994517118,0.04756800003815442,0.09962140000425279,0.09859780000988394,0.7501819999888539
RSVPLG03,sg,20251028-141712,1.0.1,20251020-085245,722,Practice,T1,1,Automatic,main,4,20251028-141808,local,local,750,S,H,E,E,E-S.png,E-H.png,sS,hH,mask-4.png,mask-1.png,s,1,1.109288900042884,none,-5,0,0.0466810999205336,0.04879130003973842,0.09990759997162968,0.10098320001270622,0.747875899891369
RSVPLG03,sg,20251028-141712,1.0.1,20251020-085245,722,Practice,T1,1,Automatic,main,5,20251028-141813,global,global,300,H,H,E,A,H-E.png,H-A.png,hH,hH,mask-4.png,mask-4.png,h,1,0.6342170001007617,none,-5,0,0.04671350005082786,0.04882499994710088,0.10058349999599159,0.10106879996601492,0.2996233000885695
RSVPLG03,sg,20251028-141712,1.0.1,20251020-085245,722,Practice,T1,1,Automatic,main,6,20251028-141817,local,global,300,H,H,E,E,E-H.png,H-E.png,hH,hH,mask-4.png,mask-1.png,s,0,1.0922293000621721,none,-5,0,0.047699499991722405,0.04570630006492138,0.09973880008328706,0.09995400009211153,0.30026960000395775
RSVPLG03,sg,20251028-141712,1.0.1,20251020-085245,722,Practice,T1,1,Automatic,main,7,20251028-141822,local,global,750,S,H,A,E,A-S.png,H-E.png,sS,hH,mask-3.png,mask-3.png,s,1,0.7266947000753134,none,-5,0,0.048736399970948696,0.047542500076815486,0.10082980000879616,0.10089510004036129,0.7505935999797657
RSVPLG03,sg,20251028-141712,1.0.1,20251020-085245,722,Practice,T1,1,Automatic,main,8,20251028-141827,global,global,750,S,H,A,E,S-A.png,H-E.png,sS,hH,mask-1.png,mask-4.png,s,1,1.144016099977307,none,-5,0,0.048582399962469935,0.046771900029852986,0.09982909995596856,0.09993570006918162,0.7513506999239326
RSVPLG03,sg,20251028-141712,1.0.1,20251020-085245,722,Practice,T1,1,Automatic,main,9,20251028-141832,local,global,750,H,H,A,A,A-H.png,H-A.png,hH,hH,mask-3.png,mask-4.png,h,1,0.4549486000323668,none,-5,0,0.04853929998353124,0.04868380003608763,0.09980870003346354,0.10183049994520843,0.7495729000074789
RSVPLG03,sg,20251028-141712,1.0.1,20251020-085245,722,Practice,T1,1,Automatic,main,10,20251028-141836,local,local,300,S,S,E,E,E-S.png,E-S.png,sS,sS,mask-2.png,mask-3.png,s,1,0.40855580009520054,none,-5,0,0.04755950008984655,0.047523400047793984,0.10063070000614971,0.09960329998284578,0.3008999000303447
RSVPLG03,sg,20251028-141712,1.0.1,20251020-085245,722,Practice,T1,1,Automatic,main,11,20251028-141840,local,local,750,S,H,E,A,E-S.png,A-H.png,sS,hH,mask-2.png,mask-4.png,h,0,3.8685917999828234,none,-5,0,0.047481900081038475,0.04734330007340759,0.1004837000509724,0.09944280004128814,0.7502937000244856
RSVPLG03,sg,20251028-141712,1.0.1,20251020-085245,722,Practice,T1,1,Automatic,main,12,20251028-141848,global,global,300,H,H,A,E,H-A.png,H-E.png,hH,hH,mask-3.png,mask-3.png,h,1,0.5845501999137923,none,-5,0,0.04761409992352128,0.048989900038577616,0.10090739990118891,0.10185209999326617,0.2998029999434948
RSVPLG03,sg,20251028-141712,1.0.1,20251020-085245,722,Practice,T1,1,Automatic,main,13,20251028-141852,global,global,750,H,H,A,A,H-A.png,H-A.png,hH,hH,mask-2.png,mask-2.png,h,1,0.4240795999066904,none,-5,0,0.046602200018242,0.048761900048702955,0.09886810008902103,0.09995649999473244,0.748540100059472
RSVPLG03,sg,20251028-141712,1.0.1,20251020-085245,722,Practice,T1,1,Automatic,main,14,20251028-141857,global,local,300,S,S,E,E,S-E.png,E-S.png,sS,sS,mask-3.png,mask-2.png,s,1,0.5060314999427646,none,-5,0,0.04582889995072037,0.04632680001668632,0.09945899993181229,0.10004090005531907,0.29944109998177737
RSVPLG03,sg,20251028-141712,1.0.1,20251020-085245,722,Practice,T1,1,Automatic,main,15,20251028-141901,local,global,300,S,S,A,E,A-S.png,S-E.png,sS,sS,mask-3.png,mask-4.png,s,1,0.5626007999526337,none,-5,0,0.0475132999708876,0.04750739992596209,0.09952779999002814,0.09952779999002814,0.2998374999733642
RSVPLG03,sg,20251028-141712,1.0.1,20251020-085245,722,Practice,T1,1,Automatic,main,16,20251028-141905,global,local,300,S,H,A,E,S-A.png,E-H.png,sS,hH,mask-3.png,mask-1.png,s,1,0.38240500004030764,none,-5,0,0.045952800079248846,0.04888890008442104,0.09860580007079989,0.10154770000372082,0.2985718999989331
RSVPLG03,sg,20251028-142021,1.0.1,20251020-085245,722,Introduction,Both,1,Automatic,main,1,20251028-142049,global,local,750,H,S,A,E,H-A.png,E-S.png,hH,sS,mask-2.png,mask-1.png,h,1,1.4258672000141814,s,1,1.3807277999585494,0.09059939999133348,0.0975447999080643,0.19377870007883757,0.2016359999543056,0.7433920000912622
RSVPLG03,sg,20251028-142021,1.0.1,20251020-085245,722,Introduction,Both,1,Automatic,main,2,20251028-142056,global,global,750,S,H,E,E,S-E.png,H-E.png,sS,hH,mask-3.png,mask-1.png,s,1,2.0534132999600843,h,1,0.6984156999969855,0.09652609995100647,0.09753200004342943,0.19781739998143166,0.2005877000046894,0.7495280000148341
RSVPLG03,sg,20251028-142021,1.0.1,20251020-085245,722,Introduction,Both,1,Automatic,main,3,20251028-142103,global,local,750,H,S,A,A,H-A.png,A-S.png,hH,sS,mask-1.png,mask-4.png,h,1,2.2445972999557853,s,1,0.6307968999026343,0.09751140000298619,0.09674509998876601,0.20017450000159442,0.19995969999581575,0.7499854000052437
RSVPLG03,sg,20251028-142021,1.0.1,20251020-085245,722,Introduction,Both,1,Automatic,main,4,20251028-142111,local,local,750,H,H,E,E,E-H.png,E-H.png,hH,hH,mask-3.png,mask-3.png,h,1,1.000870899995789,h,1,0.4861444999696687,0.09758880001027137,0.09852949995547533,0.19970070000272244,0.20170089998282492,0.7484320000512525
RSVPLG03,sg,20251028-142021,1.0.1,20251020-085245,722,Introduction,Both,1,Automatic,main,5,20251028-142116,global,local,750,S,H,E,E,S-E.png,E-H.png,sS,hH,mask-2.png,mask-1.png,s,1,0.8178591999458149,h,1,5.158136200043373,0.09664399991743267,0.0969658000394702,0.20068069989793003,0.19968540000263602,0.7505911999614909
RSVPLG03,sg,20251028-142021,1.0.1,20251020-085245,722,Introduction,Both,1,Automatic,main,6,20251028-142127,global,local,750,S,H,E,E,S-E.png,E-H.png,sS,hH,mask-3.png,mask-3.png,s,1,1.0599652999080718,s,0,0.48819569998886436,0.09856259997468442,0.09657410008367151,0.20060400001239032,0.1996213000966236,0.7514329999685287
RSVPLG03,sg,20251028-142021,1.0.1,20251020-085245,722,Introduction,Both,1,Automatic,main,7,20251028-142133,local,global,750,S,H,E,A,E-S.png,H-A.png,sS,hH,mask-3.png,mask-3.png,s,1,0.8549879000056535,h,1,0.4729657999705523,0.09756399993784726,0.09714700002223253,0.19957149995025247,0.19994770002085716,0.7494523999048397
RSVPLG03,sg,20251028-142021,1.0.1,20251020-085245,722,Introduction,Both,1,Automatic,main,8,20251028-142138,local,local,750,S,S,A,E,A-S.png,E-S.png,sS,sS,mask-2.png,mask-4.png,s,1,0.7409516000188887,s,1,0.7921104000415653,0.09791620005853474,0.09739129990339279,0.20037420000880957,0.20025269989855587,0.7506803000578657
RSVPLG03,sg,20251028-142021,1.0.1,20251020-085245,722,Introduction,Both,1,Automatic,main,9,20251028-142144,local,local,750,S,H,A,E,A-S.png,E-H.png,sS,hH,mask-1.png,mask-1.png,s,1,0.38618819997645915,h,1,0.43861140008084476,0.09838829992804676,0.09636939992196858,0.20124039996881038,0.19860669993795455,0.7511350000277162
RSVPLG03,sg,20251028-142021,1.0.1,20251020-085245,722,Introduction,Both,1,Automatic,main,10,20251028-142150,local,global,750,H,H,A,A,A-H.png,H-A.png,hH,hH,mask-2.png,mask-2.png,h,1,0.6923279000911862,h,1,0.762194300070405,0.09758659999351948,0.09646629996132106,0.20146430004388094,0.19943279994186014,0.750938400044106
RSVPLG03,sg,20251028-142021,1.0.1,20251020-085245,722,Introduction,Both,1,Automatic,main,11,20251028-142155,local,global,750,S,H,A,A,A-S.png,H-A.png,sS,hH,mask-1.png,mask-4.png,s,1,1.0944659999804571,h,1,0.3537759999744594,0.0973855999764055,0.09841649990994483,0.19926040002610534,0.20029169996269047,0.7488725000293925
RSVPLG03,sg,20251028-142021,1.0.1,20251020-085245,722,Introduction,Both,1,Automatic,main,12,20251028-142201,global,global,750,S,S,E,E,S-E.png,S-E.png,sS,sS,mask-3.png,mask-3.png,s,1,1.2288125000195578,h,0,1.60412220004946,0.09709920000750571,0.09606809995602816,0.20004650007467717,0.19983749999664724,0.7503280000528321
RSVPLG03,sg,20251028-142021,1.0.1,20251020-085245,722,Introduction,Both,1,Automatic,main,13,20251028-142208,global,global,750,H,H,A,E,H-A.png,H-E.png,hH,hH,mask-1.png,mask-4.png,h,1,0.6331243999302387,h,1,0.32253360003232956,0.09756959998048842,0.09755629999563098,0.200704799965024,0.1993989999173209,0.7502620000159368
RSVPLG03,sg,20251028-142021,1.0.1,20251020-085245,722,Introduction,Both,1,Automatic,main,14,20251028-142214,local,local,750,S,S,E,A,E-S.png,A-S.png,sS,sS,mask-1.png,mask-4.png,s,1,0.40846909990068525,s,1,1.1925409000832587,0.0975833999691531,0.0975732000079006,0.19825529993977398,0.2005442000227049,0.7487753999885172
RSVPLG03,sg,20251028-142021,1.0.1,20251020-085245,722,Introduction,Both,1,Automatic,main,15,20251028-142220,global,global,750,H,H,E,E,H-E.png,H-E.png,hH,hH,mask-2.png,mask-4.png,h,1,0.327482599997893,h,1,0.20393960003275424,0.09736080002039671,0.09844919992610812,0.19922650000080466,0.2013318999670446,0.7479839000152424
RSVPLG03,sg,20251028-142021,1.0.1,20251020-085245,722,Introduction,Both,1,Automatic,main,16,20251028-142224,local,global,750,S,S,E,E,E-S.png,S-E.png,sS,sS,mask-4.png,mask-3.png,s,1,0.6464543999172747,s,1,1.4567851999308914,0.09838659991510212,0.09836900001391768,0.20026399998459965,0.20022230001632124,0.7498726999619976
RSVPLG03,sg,20251028-142251,1.0.1,20251020-085245,722,Practice,Both,1,Automatic,main,1,20251028-142330,local,local,750,S,H,A,E,A-S.png,E-H.png,sS,hH,mask-3.png,mask-2.png,s,1,0.6505410999525338,h,1,0.5990581000223756,0.041145100025460124,0.04768919991329312,0.09299299994017929,0.09891339996829629,0.7435198000166565
RSVPLG03,sg,20251028-142251,1.0.1,20251020-085245,722,Practice,Both,1,Automatic,main,2,20251028-142335,global,local,750,H,H,A,A,H-A.png,A-H.png,hH,hH,mask-1.png,mask-4.png,h,1,0.5889202000107616,h,1,1.4049202000023797,0.04687670001294464,0.04751270008273423,0.09987609996460378,0.10051610006485134,0.7498833999270573
RSVPLG03,sg,20251028-142251,1.0.1,20251020-085245,722,Practice,Both,1,Automatic,main,3,20251028-142342,local,global,300,S,S,A,A,A-S.png,S-A.png,sS,sS,mask-2.png,mask-3.png,s,1,0.7953452999936417,h,0,0.978980700019747,0.04857340001035482,0.04638769989833236,0.10052129998803139,0.10024309996515512,0.3003573000896722
RSVPLG03,sg,20251028-142251,1.0.1,20251020-085245,722,Practice,Both,1,Automatic,main,4,20251028-142347,global,global,300,S,H,A,E,S-A.png,H-E.png,sS,hH,mask-2.png,mask-4.png,s,1,0.5521027999930084,s,0,0.8440199999604374,0.04884219996165484,0.046510999905876815,0.09987069992348552,0.09855579992290586,0.3011709999991581
RSVPLG03,sg,20251028-142251,1.0.1,20251020-085245,722,Practice,Both,1,Automatic,main,5,20251028-142352,global,global,750,H,S,A,E,H-A.png,S-E.png,hH,sS,mask-1.png,mask-1.png,h,1,0.4312215999234468,s,1,0.29114049999043345,0.04735449992585927,0.04834370000753552,0.10135889996308833,0.10132130002602935,0.7494272999465466
RSVPLG03,sg,20251028-142251,1.0.1,20251020-085245,722,Practice,Both,1,Automatic,main,6,20251028-142357,global,local,300,H,H,E,A,H-E.png,A-H.png,hH,hH,mask-4.png,mask-3.png,h,1,0.4855926000745967,s,0,0.47618960007093847,0.04688689997419715,0.04722409998066723,0.09934590000193566,0.10037250001914799,0.2995622999733314
RSVPLG03,sg,20251028-142251,1.0.1,20251020-085245,722,Practice,Both,1,Automatic,main,7,20251028-142402,global,global,750,S,H,A,E,S-A.png,H-E.png,sS,hH,mask-4.png,mask-1.png,s,1,0.38064670003950596,h,1,0.1128426999785006,0.04760409996379167,0.04653240006882697,0.09996919997502118,0.09955389995593578,0.750696099945344
RSVPLG03,sg,20251028-142251,1.0.1,20251020-085245,722,Practice,Both,1,Automatic,main,8,20251028-142407,global,global,300,S,H,E,A,S-E.png,H-A.png,sS,hH,mask-4.png,mask-4.png,s,1,0.47855730005539954,s,0,0.40569439996033907,0.04599170002620667,0.0476771000539884,0.09905990003608167,0.09899300010874867,0.299424699973315
RSVPLG03,sg,20251028-142251,1.0.1,20251020-085245,722,Practice,Both,1,Automatic,main,9,20251028-142411,local,global,750,S,H,E,E,E-S.png,H-E.png,sS,hH,mask-4.png,mask-2.png,s,1,0.45170139998663217,h,1,0.13971090002451092,0.04774639999959618,0.04866440000478178,0.09993929998017848,0.10085990000516176,0.748990899999626
RSVPLG03,sg,20251028-142251,1.0.1,20251020-085245,722,Practice,Both,1,Automatic,main,10,20251028-142416,global,local,750,S,H,A,E,S-A.png,E-H.png,sS,hH,mask-1.png,mask-4.png,s,1,0.3932218999834731,s,0,0.1890802999259904,0.0475181998917833,0.0475130999693647,0.09965160000137985,0.09953110001515597,0.7498441999778152
RSVPLG03,sg,20251028-142251,1.0.1,20251020-085245,722,Practice,Both,1,Automatic,main,11,20251028-142421,local,global,750,H,H,E,E,E-H.png,H-E.png,hH,hH,mask-1.png,mask-1.png,h,1,0.41449719993397593,h,1,0.257895499933511,0.047326400061137974,0.04699539998546243,0.10029309999663383,0.1003896000329405,0.7501237000105903
RSVPLG03,sg,20251028-142251,1.0.1,20251020-085245,722,Practice,Both,1,Automatic,main,12,20251028-142425,local,global,300,S,H,A,A,A-S.png,H-A.png,sS,hH,mask-3.png,mask-1.png,s,1,0.38271159993018955,h,1,1.0787177999736741,0.04735090001486242,0.0474976000841707,0.10134599998127669,0.09933400002773851,0.3007061999524012
RSVPLG03,sg,20251028-142251,1.0.1,20251020-085245,722,Practice,Both,1,Automatic,main,13,20251028-142431,global,local,300,H,S,A,E,H-A.png,E-S.png,hH,sS,mask-4.png,mask-2.png,h,1,0.40822490002028644,s,1,0.13509290001820773,0.046150500071235,0.047235699952580035,0.09968740004114807,0.10032289999071509,0.29988210008013994
RSVPLG03,sg,20251028-142251,1.0.1,20251020-085245,722,Practice,Both,1,Automatic,main,14,20251028-142435,local,local,750,H,S,E,E,E-H.png,E-S.png,hH,sS,mask-3.png,mask-4.png,h,1,1.3129579999949783,s,1,0.4065534000983462,0.046506799990311265,0.04701380000915378,0.09876259998418391,0.09830690000671893,0.7500522000482306
RSVPLG03,sg,20251028-142251,1.0.1,20251020-085245,722,Practice,Both,1,Automatic,main,15,20251028-142441,local,local,300,S,H,A,E,A-S.png,E-H.png,sS,hH,mask-2.png,mask-1.png,h,0,1.3834182999562472,s,0,0.3810149999335408,0.048548500053584576,0.04676329996436834,0.10034070000983775,0.10005469992756844,0.29990020010154694
RSVPLG03,sg,20251028-142251,1.0.1,20251020-085245,722,Practice,Both,1,Automatic,main,16,20251028-142446,local,local,300,H,H,A,A,A-H.png,A-H.png,hH,hH,mask-4.png,mask-4.png,h,1,1.28655219997745,s,0,0.39380700001493096,0.04757579998113215,0.046632700017653406,0.10003800003323704,0.09970140003133565,0.30049059994053096
RSVPLG03,sg,20251028-142544,1.0.1,20251020-085245,722,Practice,Both,1,Automatic,main,1,20251028-142612,local,global,750,H,H,A,A,A-H.png,H-A.png,hH,hH,mask-2.png,mask-2.png,h,1,0.5573692999314517,h,1,0.8822144999867305,0.04694280005060136,0.047019600053317845,0.09980229998473078,0.10034570004791021,0.7503227000124753
RSVPLG03,sg,20251028-142544,1.0.1,20251020-085245,722,Practice,Both,1,Automatic,main,2,20251028-142618,global,local,750,S,H,E,E,S-E.png,E-H.png,sS,hH,mask-1.png,mask-2.png,s,1,0.5283208000473678,s,0,0.3636650999542326,0.046875900006853044,0.04747049999423325,0.09998110006563365,0.10037160001229495,0.7499520999845117
RSVPLG03,sg,20251028-142544,1.0.1,20251020-085245,722,Practice,Both,1,Automatic,main,3,20251028-142623,global,local,300,S,H,E,E,S-E.png,E-H.png,sS,hH,mask-3.png,mask-2.png,s,1,0.6806868999265134,s,0,0.4779165000654757,0.04762510000728071,0.04756929993163794,0.10064199997577816,0.09858250000979751,0.3019119000528008
RSVPLG03,sg,20251028-142544,1.0.1,20251020-085245,722,Practice,Both,1,Automatic,main,4,20251028-142628,global,global,300,H,S,A,A,H-A.png,S-A.png,hH,sS,mask-3.png,mask-2.png,h,1,0.42159759998321533,s,1,0.4060895999427885,0.04753730003722012,0.04751220007892698,0.0996584000531584,0.09966110007371753,0.300069099990651
RSVPLG03,sg,20251028-142544,1.0.1,20251020-085245,722,Practice,Both,1,Automatic,main,5,20251028-142632,local,local,750,S,H,A,A,A-S.png,A-H.png,sS,hH,mask-4.png,mask-2.png,h,0,1.4299102000659332,s,0,0.1640399000607431,0.04835190006997436,0.04848220001440495,0.09942089999094605,0.10037720005493611,0.7506887000054121
RSVPLG03,sg,20251028-142544,1.0.1,20251020-085245,722,Practice,Both,1,Automatic,main,6,20251028-142638,local,global,300,H,H,E,A,E-H.png,H-A.png,hH,hH,mask-4.png,mask-4.png,s,0,1.6869154999731109,h,1,0.3054091999074444,0.04716660000849515,0.04795669997110963,0.10018289997242391,0.10041579999960959,0.2984910000814125
RSVPLG03,sg,20251028-142544,1.0.1,20251020-085245,722,Practice,Both,1,Automatic,main,7,20251028-142644,global,global,300,S,H,E,E,S-E.png,H-E.png,sS,hH,mask-1.png,mask-2.png,s,1,0.6033048999961466,h,1,0.16962120006792247,0.047341100056655705,0.04735170002095401,0.10017039999365807,0.10021910001523793,0.3000041999621317
RSVPLG03,sg,20251028-142544,1.0.1,20251020-085245,722,Practice,Both,1,Automatic,main,8,20251028-142648,global,global,750,H,S,A,E,H-A.png,S-E.png,hH,sS,mask-2.png,mask-2.png,h,1,0.6596221000654623,s,1,0.050716200028546154,0.04751199996098876,0.04751169995870441,0.09933709993492812,0.09955319995060563,0.7501798999728635
RSVPLG03,sg,20251028-142544,1.0.1,20251020-085245,722,Practice,Both,1,Automatic,main,9,20251028-142653,local,global,750,S,S,A,E,A-S.png,S-E.png,sS,sS,mask-1.png,mask-4.png,s,1,1.5274985000723973,s,1,0.15642410004511476,0.0458899000659585,0.0467198999831453,0.09952559997327626,0.09890350000932813,0.7506501000607386
RSVPLG03,sg,20251028-142544,1.0.1,20251020-085245,722,Practice,Both,1,Automatic,main,10,20251028-142659,global,global,750,S,S,E,E,S-E.png,S-E.png,sS,sS,mask-1.png,mask-3.png,s,1,0.5058407000033185,s,1,0.10805300006177276,0.04854049999266863,0.04855329997371882,0.09948129998520017,0.10059159994125366,0.7501953999744728
RSVPLG03,sg,20251028-142544,1.0.1,20251020-085245,722,Practice,Both,1,Automatic,main,11,20251028-142704,local,global,300,S,S,E,E,E-S.png,S-E.png,sS,sS,mask-2.png,mask-2.png,s,1,0.4853522999910638,h,0,0.2281494999770075,0.04967519990168512,0.04758030001539737,0.10186079994309694,0.09971580002456903,0.3022467999253422
RSVPLG03,sg,20251028-142544,1.0.1,20251020-085245,722,Practice,Both,1,Automatic,main,12,20251028-142708,local,local,750,S,S,E,E,E-S.png,E-S.png,sS,sS,mask-1.png,mask-4.png,s,1,0.5089890999952331,s,1,0.6055756999412552,0.046961699961684644,0.04852730000857264,0.1010012999176979,0.10051169991493225,0.7501362999901175
RSVPLG03,sg,20251028-142544,1.0.1,20251020-085245,722,Practice,Both,1,Automatic,main,13,20251028-142713,global,local,300,S,H,E,A,S-E.png,A-H.png,sS,hH,mask-4.png,mask-3.png,s,1,0.5203676999080926,h,1,0.09297719993628561,0.046503599965944886,0.047508300049230456,0.09954629989806563,0.10069160000421107,0.2998131999047473
RSVPLG03,sg,20251028-142544,1.0.1,20251020-085245,722,Practice,Both,1,Automatic,main,14,20251028-142718,local,local,300,H,H,A,A,A-H.png,A-H.png,hH,hH,mask-4.png,mask-1.png,h,1,0.36485949996858835,s,0,0.4249879000708461,0.04758619994390756,0.047507000039331615,0.09961729997303337,0.09958879998885095,0.2999716999474913
RSVPLG03,sg,20251028-142544,1.0.1,20251020-085245,722,Practice,Both,1,Automatic,main,15,20251028-142722,local,local,300,S,S,A,A,A-S.png,A-S.png,sS,sS,mask-2.png,mask-1.png,h,0,0.9035652000457048,s,1,0.14480470004491508,0.048594600055366755,0.04676130006555468,0.10152570006903261,0.09914340008981526,0.30188849999103695
RSVPLG03,sg,20251028-142544,1.0.1,20251020-085245,722,Practice,Both,1,Automatic,main,16,20251028-142727,global,local,750,H,H,A,E,H-A.png,E-H.png,hH,hH,mask-3.png,mask-3.png,h,1,0.6037825000239536,s,0,0.05778530007228255,0.046742399921640754,0.046745600062422454,0.10000559990294278,0.09923920000437647,0.7499612999381498
RSVPLG03,sg,20251028-142813,1.0.1,20251020-085245,722,Practice,Both,1,Automatic,main,1,20251028-142834,local,global,300,S,H,A,A,A-S.png,H-A.png,sS,hH,mask-3.png,mask-3.png,h,0,1.8509264000458643,s,0,0.5790358999511227,0.04207610001321882,0.046784100006334484,0.09501409996300936,0.10065969999413937,0.2945200999965891
RSVPLG03,sg,20251028-142813,1.0.1,20251020-085245,722,Practice,Both,1,Automatic,main,2,20251028-142840,local,local,750,S,H,A,E,A-S.png,E-H.png,sS,hH,mask-3.png,mask-4.png,h,0,0.5336005000863224,s,0,0.6778983999975026,0.047083400073461235,0.04699800000526011,0.09834050002973527,0.09894440008793026,0.7500340000260621
RSVPLG03,sg,20251028-142813,1.0.1,20251020-085245,722,Practice,Both,1,Automatic,main,3,20251028-142845,global,global,750,H,S,E,E,H-E.png,S-E.png,hH,sS,mask-3.png,mask-4.png,h,1,0.36471250001341105,s,1,0.007263600011356175,0.04870739998295903,0.04847380006685853,0.09987859998364002,0.10147640004288405,0.7495743999024853
RSVPLG03,sg,20251028-142813,1.0.1,20251020-085245,722,Practice,Both,1,Automatic,main,4,20251028-142850,local,local,300,S,S,A,E,A-S.png,E-S.png,sS,sS,mask-1.png,mask-4.png,s,1,1.2619413000065833,h,0,1.4383519999682903,0.04754359996877611,0.046792699955403805,0.10082250006962568,0.0985686999047175,0.30143900006078184
RSVPLG03,sg,20251028-142813,1.0.1,20251020-085245,722,Practice,Both,1,Automatic,main,5,20251028-142855,global,local,750,H,S,E,E,H-E.png,E-S.png,hH,sS,mask-1.png,mask-1.png,h,1,0.3469491000287235,s,1,0.10193220002111048,0.046508200000971556,0.048523500096052885,0.10048989998176694,0.10152350005228072,0.7490358999930322
RSVPLG03,sg,20251028-142813,1.0.1,20251020-085245,722,Practice,Both,1,Automatic,main,6,20251028-142859,local,global,750,H,S,A,E,A-H.png,S-E.png,hH,sS,mask-3.png,mask-3.png,h,1,0.44199069996830076,s,1,0.03742950002197176,0.047503800014965236,0.04724809993058443,0.10152609995566308,0.09844450000673532,0.7521390999900177
RSVPLG03,sg,20251028-142813,1.0.1,20251020-085245,722,Practice,Both,1,Automatic,main,7,20251028-142904,local,global,300,H,S,A,E,A-H.png,S-E.png,hH,sS,mask-4.png,mask-2.png,h,1,1.3321228999411687,s,1,0.07109069998841733,0.04628420004155487,0.04751699999906123,0.10030250006821007,0.10054050001781434,0.2996170000405982
RSVPLG03,sg,20251028-142813,1.0.1,20251020-085245,722,Practice,Both,1,Automatic,main,8,20251028-142909,global,local,750,H,S,E,E,H-E.png,E-S.png,hH,sS,mask-2.png,mask-4.png,h,1,0.49587560002692044,s,1,0.07048850005958229,0.046564599964767694,0.0476883000228554,0.09976850007660687,0.10023240000009537,0.7490199999883771
RSVPLG03,sg,20251028-142813,1.0.1,20251020-085245,722,Practice,Both,1,Automatic,main,9,20251028-142914,global,local,300,S,S,E,A,S-E.png,A-S.png,sS,sS,mask-3.png,mask-4.png,s,1,0.5401866999454796,h,0,0.11890130001120269,0.04759370000101626,0.04848869994748384,0.09951309999451041,0.10055760003160685,0.3000414000125602
RSVPLG03,sg,20251028-142813,1.0.1,20251020-085245,722,Practice,Both,1,Automatic,main,10,20251028-142919,global,global,750,S,H,A,E,S-A.png,H-E.png,sS,hH,mask-2.png,mask-2.png,s,1,0.8255602000281215,h,1,0.03839600004721433,0.04713730001822114,0.04570839996449649,0.10022630007006228,0.09976419992744923,0.7504525000695139
RSVPLG03,sg,20251028-142813,1.0.1,20251020-085245,722,Practice,Both,1,Automatic,main,11,20251028-142924,local,local,300,S,S,E,E,E-S.png,E-S.png,sS,sS,mask-4.png,mask-2.png,s,1,0.603908900055103,s,1,0.05682119994889945,0.046777799958363175,0.047803200082853436,0.0989739999640733,0.10007650009356439,0.2995126999448985
RSVPLG03,sg,20251028-142813,1.0.1,20251020-085245,722,Practice,Both,1,Automatic,main,12,20251028-142928,local,global,750,S,H,E,A,E-S.png,H-A.png,sS,hH,mask-1.png,mask-1.png,s,1,0.3840189999900758,h,1,0.9454422999406233,0.04562019999139011,0.0477004999993369,0.09957359998952597,0.09881270001642406,0.7502174000255764
RSVPLG03,sg,20251028-142813,1.0.1,20251020-085245,722,Practice,Both,1,Automatic,main,13,20251028-142933,global,global,300,S,S,E,E,S-E.png,S-E.png,sS,sS,mask-1.png,mask-2.png,s,1,0.49486109998542815,s,1,0.11338450002949685,0.04763469996396452,0.047638699994422495,0.10001189995091408,0.10007489996496588,0.29987969994544983
RSVPLG03,sg,20251028-142813,1.0.1,20251020-085245,722,Practice,Both,1,Automatic,main,14,20251028-142938,local,local,750,H,S,A,A,A-H.png,A-S.png,hH,sS,mask-2.png,mask-4.png,h,1,1.4558023000136018,s,1,0.05917100002989173,0.04568129999097437,0.04678929992951453,0.09906329994555563,0.10099419998005033,0.7491940000327304
RSVPLG03,sg,20251028-142813,1.0.1,20251020-085245,722,Practice,Both,1,Automatic,main,15,20251028-142944,global,local,300,S,S,A,E,S-A.png,E-S.png,sS,sS,mask-1.png,mask-3.png,s,1,0.8661342000123113,s,1,0.11405329999979585,0.04764959996100515,0.04873859998770058,0.09982330002821982,0.10103739995975047,0.29852850001771003
RSVPLG03,sg,20251028-142813,1.0.1,20251020-085245,722,Practice,Both,1,Automatic,main,16,20251028-142948,global,global,300,H,H,E,A,H-E.png,H-A.png,hH,hH,mask-4.png,mask-1.png,h,1,0.4950144999893382,h,1,0.42207980004604906,0.04866349999792874,0.04770350002218038,0.09989039995707572,0.10188600001856685,0.29951059992890805
RSVPLG03,sg,20251028-143116,1.0.1,20251020-085245,722,Experiment,Both,1,Automatic,warmup,1,20251028-143229,global,local,750,H,H,A,A,H-A.png,A-H.png,hH,hH,mask-2.png,mask-4.png,h,1,0.429150800104253,h,1,0.05167640000581741,0.039796700002625585,0.04756830004043877,0.09076129994355142,0.09981780010275543,0.7408757999073714
RSVPLG03,sg,20251028-143116,1.0.1,20251020-085245,722,Experiment,Both,1,Automatic,warmup,2,20251028-143234,local,local,300,S,S,A,E,A-S.png,E-S.png,sS,sS,mask-1.png,mask-4.png,s,1,0.3692958999890834,s,1,0.4444323000498116,0.04794020007830113,0.046788200037553906,0.10001860000193119,0.09964999998919666,0.30085500003769994
RSVPLG03,sg,20251028-143116,1.0.1,20251020-085245,722,Experiment,Both,1,Automatic,warmup,3,20251028-143239,local,local,750,S,S,A,A,A-S.png,A-S.png,sS,sS,mask-2.png,mask-4.png,s,1,0.34015029994770885,s,1,0.12433990009594709,0.04670589999295771,0.047693599946796894,0.09898010001052171,0.10089120001066476,0.7477600000565872
RSVPLG03,sg,20251028-143116,1.0.1,20251020-085245,722,Experiment,Both,1,Automatic,warmup,4,20251028-143243,local,global,750,S,H,E,E,E-S.png,H-E.png,sS,hH,mask-4.png,mask-1.png,s,1,0.49196420004591346,h,1,0.8177059000590816,0.0474974000826478,0.04747200000565499,0.09938780008815229,0.09931520000100136,0.7496238000458106
RSVPLG03,sg,20251028-143116,1.0.1,20251020-085245,722,Experiment,Both,1,Automatic,warmup,5,20251028-143249,global,local,300,S,H,A,A,S-A.png,A-H.png,sS,hH,mask-4.png,mask-1.png,s,1,0.5335994999622926,h,1,0.17052680009510368,0.04755780007690191,0.04591500002425164,0.1005509999813512,0.09998239995911717,0.3008531000232324
RSVPLG03,sg,20251028-143116,1.0.1,20251020-085245,722,Experiment,Both,1,Automatic,main,6,20251028-143253,local,local,300,S,S,E,A,E-S.png,A-S.png,sS,sS,mask-4.png,mask-1.png,s,1,0.5109730999683961,h,0,0.044370600022375584,0.047536199912428856,0.04753480001818389,0.10055189998820424,0.10021329997107387,0.2990244999527931
RSVPLG03,sg,20251028-143116,1.0.1,20251020-085245,722,Experiment,Both,1,Automatic,main,7,20251028-143257,global,global,300,S,S,E,A,S-E.png,S-A.png,sS,sS,mask-3.png,mask-4.png,h,0,0.34881659992970526,s,1,0.652832500054501,0.047518600011244416,0.04750340001191944,0.10062249994371086,0.1006323000183329,0.299993299995549
RSVPLG03,sg,20251028-143116,1.0.1,20251020-085245,722,Experiment,Both,1,Automatic,main,8,20251028-143302,global,local,750,H,H,E,E,H-E.png,E-H.png,hH,hH,mask-4.png,mask-4.png,h,1,0.5722517999820411,s,0,0.01688020001165569,0.0473037000047043,0.04725010006222874,0.09896560001652688,0.10046990006230772,0.7491746000014246
RSVPLG03,sg,20251028-143116,1.0.1,20251020-085245,722,Experiment,Both,1,Automatic,main,9,20251028-143306,local,global,750,S,H,E,E,E-S.png,H-E.png,sS,hH,mask-3.png,mask-4.png,s,1,0.508456900017336,h,1,0.011254500015638769,0.04753700003493577,0.04716239997651428,0.09953760006465018,0.10025919997133315,0.7495277000125498
RSVPLG03,sg,20251028-143116,1.0.1,20251020-085245,722,Experiment,Both,1,Automatic,main,10,20251028-143311,local,local,750,S,H,A,E,A-S.png,E-H.png,sS,hH,mask-2.png,mask-2.png,s,1,0.35347420000471175,h,1,0.006823200033977628,0.04757619998417795,0.047566099907271564,0.09866550005972385,0.10160679998807609,0.7479747000616044
RSVPLG03,sg,20251028-143116,1.0.1,20251020-085245,722,Experiment,Both,1,Automatic,main,11,20251028-143316,global,local,300,H,S,A,E,H-A.png,E-S.png,hH,sS,mask-2.png,mask-3.png,h,1,0.44851880008354783,h,0,0.38682260003406554,0.0467079000081867,0.047723299940116704,0.09992519998922944,0.09979649994056672,0.299583200016059
RSVPLG03,sg,20251028-143116,1.0.1,20251020-085245,722,Experiment,Both,1,Automatic,main,12,20251028-143320,global,local,300,H,H,A,E,H-A.png,E-H.png,hH,hH,mask-4.png,mask-4.png,h,1,0.5981198000954464,s,0,0.021227199933491647,0.04773610003758222,0.04786299995612353,0.09890650003217161,0.10016029991675168,0.2986748000839725
RSVPLG03,sg,20251028-143116,1.0.1,20251020-085245,722,Experiment,Both,1,Automatic,main,13,20251028-143324,global,local,300,H,H,A,A,H-A.png,A-H.png,hH,hH,mask-3.png,mask-2.png,h,1,0.3968322000000626,h,1,0.06775299995206296,0.047571899951435626,0.04761759995017201,0.09991460002493113,0.09963059995789081,0.30021510005462915
RSVPLG03,sg,20251028-143116,1.0.1,20251020-085245,722,Experiment,Both,1,Automatic,main,14,20251028-143328,global,global,300,S,H,E,A,S-E.png,H-A.png,sS,hH,mask-1.png,mask-3.png,s,1,0.5469816999975592,h,1,0.7758058999897912,0.04752029990777373,0.04838509997352958,0.10074559994973242,0.1002652000170201,0.29948539996985346
RSVPLG03,sg,20251028-143116,1.0.1,20251020-085245,722,Experiment,Both,1,Automatic,main,15,20251028-143334,local,local,300,S,H,E,A,E-S.png,A-H.png,sS,hH,mask-3.png,mask-4.png,s,1,0.4577593000140041,h,1,0.6363188000395894,0.046674199984408915,0.04913460009265691,0.10073159995954484,0.10026420000940561,0.29882329993415624
RSVPLG03,sg,20251028-143116,1.0.1,20251020-085245,722,Experiment,Both,1,Automatic,main,16,20251028-143338,local,local,750,S,H,E,E,E-S.png,E-H.png,sS,hH,mask-3.png,mask-3.png,s,1,1.1553969000233337,h,1,0.9089778000488877,0.04746780009008944,0.04866080009378493,0.10169230005703866,0.09955640009138733,0.7500925000058487
RSVPLG03,sg,20251028-143116,1.0.1,20251020-085245,722,Experiment,Both,1,Automatic,main,17,20251028-143345,global,global,750,S,H,A,E,S-A.png,H-E.png,sS,hH,mask-4.png,mask-2.png,s,1,1.0043429000070319,h,1,0.007210599957033992,0.04736399999819696,0.04753109999001026,0.1002895999699831,0.0995460000121966,0.7517732999986038
RSVPLG03,sg,20251028-143116,1.0.1,20251020-085245,722,Experiment,Both,1,Automatic,main,18,20251028-143350,global,local,750,S,S,E,A,S-E.png,A-S.png,sS,sS,mask-2.png,mask-3.png,s,1,0.3244725000113249,s,1,0.6408176000695676,0.04755759995896369,0.047929099993780255,0.09958509996067733,0.09993599995505065,0.7481197000015527
RSVPLG03,sg,20251028-143116,1.0.1,20251020-085245,722,Experiment,Both,1,Automatic,main,19,20251028-143355,global,local,750,S,S,E,E,S-E.png,E-S.png,sS,sS,mask-1.png,mask-3.png,s,1,0.33767969999462366,s,1,0.14123389997985214,0.047508400049991906,0.047680199961178005,0.1003914000466466,0.0999287999002263,0.7501313000684604
RSVPLG03,sg,20251028-143116,1.0.1,20251020-085245,722,Experiment,Both,1,Automatic,main,20,20251028-143400,global,global,750,S,H,E,A,S-E.png,H-A.png,sS,hH,mask-2.png,mask-2.png,s,1,0.2376278000883758,h,1,0.06002149998676032,0.047715799999423325,0.04753860004711896,0.10088929999619722,0.09955100005026907,0.7502620000159368
RSVPLG03,sg,20251028-143116,1.0.1,20251020-085245,722,Experiment,Both,1,Automatic,main,21,20251028-143404,local,global,300,S,H,E,A,E-S.png,H-A.png,sS,hH,mask-4.png,mask-1.png,s,1,0.6381752999732271,h,1,0.5247936999658123,0.047456600004807115,0.04750640003476292,0.10051729995757341,0.10049710003659129,0.30019219999667257
RSVPLG03,sg,20251028-143116,1.0.1,20251020-085245,722,Experiment,Both,1,Automatic,main,22,20251028-143409,local,global,300,S,S,A,A,A-S.png,S-A.png,sS,sS,mask-3.png,mask-2.png,h,0,0.40450760000385344,s,1,0.9463726000394672,0.04673590010497719,0.047692100051790476,0.09983950003515929,0.09990669996477664,0.29947840003296733
RSVPLG03,sg,20251028-143116,1.0.1,20251020-085245,722,Experiment,Both,1,Automatic,main,23,20251028-143414,local,global,300,S,S,E,A,E-S.png,S-A.png,sS,sS,mask-3.png,mask-4.png,s,1,0.4993832999607548,s,1,0.18904500000644475,0.04786569997668266,0.0467196999816224,0.10123529995325953,0.09997889993246645,0.301021600025706
RSVPLG03,sg,20251028-143116,1.0.1,20251020-085245,722,Experiment,Both,1,Automatic,main,24,20251028-143419,local,local,750,S,S,A,A,A-S.png,A-S.png,sS,sS,mask-3.png,mask-1.png,s,1,0.4008874000282958,s,1,0.12645590002648532,0.04752220003865659,0.047530499985441566,0.10054360004141927,0.10053870000410825,0.7492309000808746
RSVPLG03,sg,20251028-143116,1.0.1,20251020-085245,722,Experiment,Both,1,Automatic,main,25,20251028-143423,local,local,750,H,H,E,E,E-H.png,E-H.png,hH,hH,mask-2.png,mask-2.png,h,1,0.26165879995096475,h,1,0.0916469000512734,0.04746129992417991,0.047553999931551516,0.10047209996264428,0.10001910000573844,0.7490781999658793
RSVPLG03,sg,20251028-143116,1.0.1,20251020-085245,722,Experiment,Both,1,Automatic,main,26,20251028-143440,global,local,750,H,H,A,A,H-A.png,A-H.png,hH,hH,mask-3.png,mask-4.png,h,1,0.43157220003195107,h,1,0.05845369992312044,0.04724670003633946,0.04647770000156015,0.10032140009570867,0.09951860003639013,0.7504518000641838
RSVPLG03,sg,20251028-143116,1.0.1,20251020-085245,722,Experiment,Both,1,Automatic,main,27,20251028-143445,local,global,750,S,S,A,A,A-S.png,S-A.png,sS,sS,mask-1.png,mask-3.png,s,1,0.88621589995455,h,0,0.6533849000697955,0.04728209995664656,0.04576860007364303,0.10029490001033992,0.09904170001391321,0.7495946999406442
RSVPLG03,sg,20251028-143116,1.0.1,20251020-085245,722,Experiment,Both,1,Automatic,main,28,20251028-143450,global,global,750,H,S,A,E,H-A.png,S-E.png,hH,sS,mask-4.png,mask-4.png,h,1,0.3898580999812111,s,1,0.1065535000525415,0.04784080001991242,0.04764890007209033,0.09944509994238615,0.09969410009216517,0.7498689999338239
RSVPLG03,sg,20251028-143116,1.0.1,20251020-085245,722,Experiment,Both,1,Automatic,main,29,20251028-143455,local,global,300,S,H,A,E,A-S.png,H-E.png,sS,hH,mask-3.png,mask-2.png,s,1,0.5301994999172166,s,0,0.1717611999483779,0.04568880004808307,0.04887619998771697,0.09994660003576428,0.09968869993463159,0.2984477001009509
RSVPLG03,sg,20251028-143116,1.0.1,20251020-085245,722,Experiment,Both,1,Automatic,main,30,20251028-143500,local,global,750,S,S,E,A,E-S.png,S-A.png,sS,sS,mask-4.png,mask-4.png,s,1,0.7838776999851689,s,1,0.8605095000239089,0.04702729999553412,0.0475130999693647,0.09809729992412031,0.09976790007203817,0.7479463999625295
RSVPLG03,sg,20251028-143116,1.0.1,20251020-085245,722,Experiment,Both,1,Automatic,main,31,20251028-143505,global,global,300,H,H,E,E,H-E.png,H-E.png,hH,hH,mask-1.png,mask-2.png,h,1,0.36250430007930845,h,1,0.09152539994101971,0.047714399988763034,0.0477196000283584,0.09989820001646876,0.09909460006747395,0.2995222000172362
RSVPLG03,sg,20251028-143116,1.0.1,20251020-085245,722,Experiment,Both,1,Automatic,main,32,20251028-143509,local,global,750,H,H,E,A,E-H.png,H-A.png,hH,hH,mask-1.png,mask-2.png,h,1,0.8825221000006422,h,1,0.3327778000384569,0.04760649998206645,0.04752230003941804,0.10155839996878058,0.09959280001930892,0.7502898999955505
RSVPLG03,sg,20251028-143116,1.0.1,20251020-085245,722,Experiment,Both,1,Automatic,main,33,20251028-143515,local,global,750,H,S,E,E,E-H.png,S-E.png,hH,sS,mask-4.png,mask-1.png,h,1,1.1060734000056982,h,0,0.5403246999485418,0.046564499964006245,0.04757260007318109,0.09905820002313703,0.09959870006423444,0.7500066999346018
RSVPLG03,sg,20251028-143116,1.0.1,20251020-085245,722,Experiment,Both,1,Automatic,main,34,20251028-143521,global,local,750,S,S,E,A,S-E.png,A-S.png,sS,sS,mask-2.png,mask-1.png,h,0,0.9073637999827042,s,1,0.04312219994608313,0.04656699998304248,0.046505399979650974,0.09887809993233532,0.09957209997810423,0.7492649999912828
RSVPLG03,sg,20251028-143116,1.0.1,20251020-085245,722,Experiment,Both,1,Automatic,main,35,20251028-143526,local,global,300,H,H,A,A,A-H.png,H-A.png,hH,hH,mask-4.png,mask-2.png,h,1,0.44248279999010265,s,0,0.03572589997202158,0.04768519999925047,0.04767370002809912,0.10084379999898374,0.09987569996155798,0.3005201000487432
RSVPLG03,sg,20251028-143116,1.0.1,20251020-085245,722,Experiment,Both,1,Automatic,main,36,20251028-143530,local,global,750,H,S,E,E,E-H.png,S-E.png,hH,sS,mask-1.png,mask-1.png,h,1,0.6401993000181392,s,1,0.4274403000017628,0.04769100004341453,0.045677200076170266,0.09989140008110553,0.0999810000648722,0.7503690000157803
RSVPLG03,sg,20251028-143116,1.0.1,20251020-085245,722,Experiment,Both,1,Automatic,main,37,20251028-143535,global,global,750,S,H,E,A,S-E.png,H-A.png,sS,hH,mask-2.png,mask-4.png,s,1,0.4685769999632612,h,1,0.18110030004754663,0.0476769000524655,0.04866670002229512,0.10087460000067949,0.10086779994890094,0.7493032000493258
RSVPLG03,sg,20251028-143116,1.0.1,20251020-085245,722,Experiment,Both,1,Automatic,main,38,20251028-143540,global,local,750,H,S,A,E,H-A.png,E-S.png,hH,sS,mask-3.png,mask-3.png,h,1,0.36288239993155,s,1,0.09036509995348752,0.04754880000837147,0.04649849992711097,0.10160709999036044,0.09851329994853586,0.7510220999829471
RSVPLG03,sg,20251028-143116,1.0.1,20251020-085245,722,Experiment,Both,1,Automatic,main,39,20251028-143545,global,local,300,H,H,A,E,H-A.png,E-H.png,hH,hH,mask-3.png,mask-2.png,h,1,0.5921185999177396,s,0,0.043438299908302724,0.04773399990517646,0.04570549994241446,0.0999352999497205,0.09944220003671944,0.30058409995399415
RSVPLG03,sg,20251028-143116,1.0.1,20251020-085245,722,Experiment,Both,1,Automatic,main,40,20251028-143549,local,local,750,H,H,A,A,A-H.png,A-H.png,hH,hH,mask-4.png,mask-4.png,h,1,0.31904500001110137,h,1,0.0697876000776887,0.047969199949875474,0.04763169994112104,0.10014829994179308,0.10136079997755587,0.7495929000433534
RSVPLG03,sg,20251028-143116,1.0.1,20251020-085245,722,Experiment,Both,1,Automatic,main,41,20251028-143554,global,global,300,H,H,A,A,H-A.png,H-A.png,hH,hH,mask-1.png,mask-4.png,h,1,0.482972800033167,h,1,0.07583829993382096,0.04708400007802993,0.04767410003114492,0.09932370006572455,0.09889030002523214,0.29915279999841005
RSVPLG03,sg,20251028-143116,1.0.1,20251020-085245,722,Experiment,Both,1,Automatic,main,42,20251028-143558,global,global,300,H,S,E,E,H-E.png,S-E.png,hH,sS,mask-2.png,mask-3.png,h,1,0.4214337000157684,s,1,0.08763240010011941,0.04722390009555966,0.04763919999822974,0.10022550006397069,0.10164519993122667,0.2984772000927478
RSVPLG03,sg,20251028-143116,1.0.1,20251020-085245,722,Experiment,Both,1,Automatic,main,43,20251028-143602,local,local,300,H,H,E,A,E-H.png,A-H.png,hH,hH,mask-1.png,mask-3.png,h,1,0.8835025000153109,h,1,0.3465435999678448,0.048508700099773705,0.04772809997666627,0.10055940004531294,0.09989039995707572,0.2995607000775635
RSVPLG03,sg,20251028-143116,1.0.1,20251020-085245,722,Experiment,Both,1,Automatic,main,44,20251028-143607,local,global,750,S,S,A,A,A-S.png,S-A.png,sS,sS,mask-2.png,mask-3.png,h,0,0.6017477000132203,s,1,0.013445300050079823,0.047514700097963214,0.047545500099658966,0.10051350004505366,0.09956280002370477,0.7501690000062808
RSVPLG03,sg,20251028-143116,1.0.1,20251020-085245,722,Experiment,Both,1,Automatic,main,45,20251028-143612,global,global,300,H,H,A,E,H-A.png,H-E.png,hH,hH,mask-2.png,mask-3.png,h,1,0.7387104999506846,s,0,0.79282139998395,0.04768429999239743,0.04963800008408725,0.10050169995520264,0.10125479998532683,0.29928429995197803
RSVPLG03,sg,20251028-143116,1.0.1,20251020-085245,722,Experiment,Both,1,Automatic,main,46,20251028-143617,local,global,750,H,S,E,E,E-H.png,S-E.png,hH,sS,mask-1.png,mask-2.png,h,1,0.41487530001904815,s,1,0.0828654000069946,0.047508399933576584,0.0470038999337703,0.10072440002113581,0.09904619993176311,0.7505205000052229
RSVPLG03,sg,20251028-143116,1.0.1,20251020-085245,722,Experiment,Both,1,Automatic,main,47,20251028-143622,global,local,300,S,H,A,A,S-A.png,A-H.png,sS,hH,mask-4.png,mask-4.png,s,1,0.4648560000350699,s,0,0.5668805000605062,0.04567319992929697,0.04668939998373389,0.09991759993135929,0.09988219989463687,0.29955060000065714
RSVPLG03,sg,20251028-143116,1.0.1,20251020-085245,722,Experiment,Both,1,Automatic,main,48,20251028-143627,global,global,750,S,S,E,E,S-E.png,S-E.png,sS,sS,mask-2.png,mask-4.png,s,1,0.28609880001749843,s,1,0.07603520003613085,0.04882799996994436,0.047548500006087124,0.10190150002017617,0.10055420000571758,0.7502271999837831
RSVPLG03,sg,20251028-143116,1.0.1,20251020-085245,722,Experiment,Both,1,Automatic,main,49,20251028-143631,local,local,300,H,S,A,A,A-H.png,A-S.png,hH,sS,mask-3.png,mask-2.png,h,1,0.9977590000489727,h,0,0.8750742999836802,0.04771850001998246,0.04587319993879646,0.10096800001338124,0.09941849997267127,0.30166870006360114
RSVPLG03,sg,20251028-143116,1.0.1,20251020-085245,722,Experiment,Both,1,Automatic,main,50,20251028-143637,global,local,750,H,S,A,E,H-A.png,E-S.png,hH,sS,mask-3.png,mask-3.png,h,1,0.3199228000594303,s,1,0.023897400009445846,0.04712580004706979,0.047790300101041794,0.09987809997983277,0.09926970000378788,0.7488023999612778
RSVPLG03,sg,20251028-143116,1.0.1,20251020-085245,722,Experiment,Both,1,Automatic,main,51,20251028-143704,local,global,750,H,S,E,A,E-H.png,S-A.png,hH,sS,mask-1.png,mask-4.png,h,1,0.38373590004630387,s,1,0.528115599998273,0.04769429995212704,0.04752939997706562,0.09915849997196347,0.10156079998705536,0.7482869999948889
RSVPLG03,sg,20251028-143116,1.0.1,20251020-085245,722,Experiment,Both,1,Automatic,main,52,20251028-143709,local,global,750,H,H,A,A,A-H.png,H-A.png,hH,hH,mask-3.png,mask-2.png,h,1,1.5342874999623746,h,1,0.049671600107103586,0.04712530004326254,0.047680099960416555,0.09866939997300506,0.09989710000809282,0.7478654000442475
RSVPLG03,sg,20251028-143116,1.0.1,20251020-085245,722,Experiment,Both,1,Automatic,main,53,20251028-143715,local,local,300,H,S,E,E,E-H.png,E-S.png,hH,sS,mask-4.png,mask-3.png,h,1,0.4695210000500083,s,1,0.007492100005038083,0.04750889993738383,0.04752819996792823,0.10065269994083792,0.10065829998347908,0.2999971000244841
RSVPLG03,sg,20251028-143116,1.0.1,20251020-085245,722,Experiment,Both,1,Automatic,main,54,20251028-143719,local,local,300,H,S,E,A,E-H.png,A-S.png,hH,sS,mask-4.png,mask-2.png,h,1,0.36148289998527616,s,1,0.06763270008377731,0.047698199981823564,0.04761020001024008,0.0988754000281915,0.10185600002296269,0.2986384000396356
RSVPLG03,sg,20251028-143116,1.0.1,20251020-085245,722,Experiment,Both,1,Automatic,main,55,20251028-143723,local,global,300,H,S,E,A,E-H.png,S-A.png,hH,sS,mask-4.png,mask-3.png,h,1,0.8185343999648467,h,0,0.058914000052027404,0.04868290002923459,0.045674199936911464,0.10090259998105466,0.09987119992729276,0.30151000001933426
RSVPLG03,sg,20251028-143116,1.0.1,20251020-085245,722,Experiment,Both,1,Automatic,main,56,20251028-143727,local,local,300,H,H,E,A,E-H.png,A-H.png,hH,hH,mask-1.png,mask-3.png,h,1,0.4216100999619812,h,1,0.053808099939487875,0.04714200005400926,0.04725900001358241,0.1002660000231117,0.10039989999495447,0.2998668000800535
RSVPLG03,sg,20251028-143116,1.0.1,20251020-085245,722,Experiment,Both,1,Automatic,main,57,20251028-143732,local,local,300,S,H,A,A,A-S.png,A-H.png,sS,hH,mask-2.png,mask-3.png,s,1,0.42993580002803355,s,0,1.4279533999506384,0.04653219995088875,0.046558599919080734,0.10051899997051805,0.09857249993365258,0.29993480001576245
RSVPLG03,sg,20251028-143116,1.0.1,20251020-085245,722,Experiment,Both,1,Automatic,main,58,20251028-143737,global,local,750,S,H,E,A,S-E.png,A-H.png,sS,hH,mask-3.png,mask-4.png,s,1,0.33930810005404055,h,1,0.29123009997420013,0.04650010005570948,0.047519999905489385,0.09957970003597438,0.10157519998028874,0.7478365000570193
RSVPLG03,sg,20251028-143116,1.0.1,20251020-085245,722,Experiment,Both,1,Automatic,main,59,20251028-143742,local,local,300,H,H,E,A,E-H.png,A-H.png,hH,hH,mask-1.png,mask-4.png,s,0,0.5317236999981105,h,1,0.6498319000238553,0.046994199976325035,0.0486042998963967,0.09983229998033494,0.09981669997796416,0.2982306000776589
RSVPLG03,sg,20251028-143116,1.0.1,20251020-085245,722,Experiment,Both,1,Automatic,main,60,20251028-143747,global,local,750,H,H,A,A,H-A.png,A-H.png,hH,hH,mask-1.png,mask-2.png,h,1,0.3537304000928998,h,1,0.1548061000648886,0.04744500003289431,0.04753740003798157,0.1002779999980703,0.0993894999846816,0.7507443999638781
RSVPLG03,sg,20251028-143116,1.0.1,20251020-085245,722,Experiment,Both,1,Automatic,main,61,20251028-143752,local,local,750,S,S,A,A,A-S.png,A-S.png,sS,sS,mask-3.png,mask-4.png,s,1,0.21553490008227527,s,1,0.11847470002248883,0.04771930002607405,0.04652099998202175,0.09989119996316731,0.09893059998285025,0.7499432000331581
RSVPLG03,sg,20251028-143116,1.0.1,20251020-085245,722,Experiment,Both,1,Automatic,main,62,20251028-143756,global,local,300,H,S,E,A,H-E.png,A-S.png,hH,sS,mask-3.png,mask-2.png,h,1,0.788673699949868,h,0,0.18544520006980747,0.04769570007920265,0.048690599971450865,0.09985270001925528,0.09992299997247756,0.3004244000185281
RSVPLG03,sg,20251028-143116,1.0.1,20251020-085245,722,Experiment,Both,1,Automatic,main,63,20251028-143801,global,global,300,H,H,E,A,H-E.png,H-A.png,hH,hH,mask-1.png,mask-2.png,h,1,0.35290640010498464,h,1,0.07169970008544624,0.04670569999143481,0.04772879998199642,0.10006999992765486,0.10092350002378225,0.2992831999436021
RSVPLG03,sg,20251028-143116,1.0.1,20251020-085245,722,Experiment,Both,1,Automatic,main,64,20251028-143805,local,local,300,S,S,A,A,A-S.png,A-S.png,sS,sS,mask-3.png,mask-3.png,s,1,0.23241509997751564,s,1,0.08913950005080551,0.047699399990960956,0.04867060005199164,0.09989900002256036,0.09984030004125088,0.29839949996676296
RSVPLG03,sg,20251028-143116,1.0.1,20251020-085245,722,Experiment,Both,1,Automatic,main,65,20251028-143809,global,global,750,S,H,A,A,S-A.png,H-A.png,sS,hH,mask-3.png,mask-4.png,s,1,0.8832428999012336,h,1,0.6024090000428259,0.04606770002283156,0.04868610005360097,0.0995380999520421,0.10073990002274513,0.748256399994716
RSVPLG03,sg,20251028-143116,1.0.1,20251020-085245,722,Experiment,Both,1,Automatic,main,66,20251028-143814,global,local,300,S,S,A,E,S-A.png,E-S.png,sS,sS,mask-2.png,mask-4.png,s,1,0.30797909991815686,s,1,0.05201019998639822,0.04769180004950613,0.04650040005799383,0.10192220006138086,0.09833770000841469,0.30149129999335855
RSVPLG03,sg,20251028-143116,1.0.1,20251020-085245,722,Experiment,Both,1,Automatic,main,67,20251028-143818,global,local,300,S,S,A,E,S-A.png,E-S.png,sS,sS,mask-4.png,mask-1.png,s,1,0.6001276000170037,s,1,0.07067729998379946,0.04568189999554306,0.047722000046633184,0.09988090000115335,0.09992479998618364,0.2995580999413505
RSVPLG03,sg,20251028-143116,1.0.1,20251020-085245,722,Experiment,Both,1,Automatic,main,68,20251028-143823,global,local,750,H,S,A,E,H-A.png,E-S.png,hH,sS,mask-1.png,mask-4.png,h,1,0.661073400056921,s,1,0.006269600009545684,0.04752359993290156,0.047111600055359304,0.10110540001187474,0.09949380008038133,0.7497617999324575
RSVPLG03,sg,20251028-143116,1.0.1,20251020-085245,722,Experiment,Both,1,Automatic,main,69,20251028-143828,local,local,300,S,H,A,E,A-S.png,E-H.png,sS,hH,mask-3.png,mask-2.png,s,1,0.46279639995191246,h,1,0.15584219992160797,0.045700900023803115,0.045758599997498095,0.09911670000292361,0.09988499991595745,0.299912300077267
RSVPLG03,sg,20251028-143116,1.0.1,20251020-085245,722,Experiment,Both,1,Automatic,main,70,20251028-143832,local,global,300,S,H,A,A,A-S.png,H-A.png,sS,hH,mask-4.png,mask-1.png,s,1,0.42046779999509454,h,1,0.09790469997096807,0.04657160001806915,0.047803199966438115,0.09977239998988807,0.10000159998890013,0.29914899996947497
RSVPLG03,sg,20251028-143116,1.0.1,20251020-085245,722,Experiment,Both,1,Automatic,main,71,20251028-143836,global,global,300,H,S,A,E,H-A.png,S-E.png,hH,sS,mask-3.png,mask-2.png,h,1,0.5722208999795839,s,1,0.5948256000410765,0.045709599973633885,0.04722800001036376,0.09893259999807924,0.10049799992702901,0.2978153000585735
RSVPLG03,sg,20251028-143116,1.0.1,20251020-085245,722,Experiment,Both,1,Automatic,main,72,20251028-143841,global,local,750,S,H,A,A,S-A.png,A-H.png,sS,hH,mask-2.png,mask-3.png,s,1,0.3280987999169156,h,1,0.03644469997379929,0.047592900111339986,0.04558590007945895,0.10175260005053133,0.0996519000036642,0.7515612000133842
RSVPLG03,sg,20251028-143116,1.0.1,20251020-085245,722,Experiment,Both,1,Automatic,main,73,20251028-143846,global,global,750,H,S,A,A,H-A.png,S-A.png,hH,sS,mask-4.png,mask-4.png,h,1,0.37122590001672506,s,1,0.05959860002622008,0.046696399920620024,0.04768199997488409,0.09873769991099834,0.09979050001129508,0.7487383999396116
RSVPLG03,sg,20251028-143116,1.0.1,20251020-085245,722,Experiment,Both,1,Automatic,main,74,20251028-143850,local,global,750,S,S,A,A,A-S.png,S-A.png,sS,sS,mask-1.png,mask-1.png,s,1,0.41762749990448356,s,1,0.09321059996727854,0.04859860008582473,0.047538100043311715,0.09981280006468296,0.10048210003878921,0.7489821000490338
RSVPLG03,sg,20251028-143116,1.0.1,20251020-085245,722,Experiment,Both,1,Automatic,main,75,20251028-143855,local,local,300,H,S,E,A,E-H.png,A-S.png,hH,sS,mask-2.png,mask-2.png,h,1,0.6026657000184059,s,1,0.3392035999568179,0.04857420001644641,0.047355700051411986,0.10044239996932447,0.10018479998689145,0.30035719997249544
RSVPLG03,sg,20251028-143116,1.0.1,20251020-085245,722,Experiment,Both,1,Automatic,main,76,20251028-143920,local,global,300,S,H,E,E,E-S.png,H-E.png,sS,hH,mask-3.png,mask-2.png,s,1,0.6598312000278383,h,1,0.51531370007433,0.0456529000075534,0.048708499991334975,0.09955959999933839,0.10154529998544604,0.2981535999570042
RSVPLG03,sg,20251028-143116,1.0.1,20251020-085245,722,Experiment,Both,1,Automatic,main,77,20251028-143925,global,global,300,S,H,A,A,S-A.png,H-A.png,sS,hH,mask-4.png,mask-4.png,s,1,0.3482322000199929,h,1,0.02839820005465299,0.04736730002332479,0.04757679998874664,0.09963160008192062,0.09998319996520877,0.29822280001826584
RSVPLG03,sg,20251028-143116,1.0.1,20251020-085245,722,Experiment,Both,1,Automatic,main,78,20251028-143929,global,local,300,H,H,E,E,H-E.png,E-H.png,hH,hH,mask-2.png,mask-2.png,h,1,0.48192239995114505,s,0,0.4003961000125855,0.047802100074477494,0.04673340008594096,0.10008110001217574,0.10001920000649989,0.30022159998770803
RSVPLG03,sg,20251028-143116,1.0.1,20251020-085245,722,Experiment,Both,1,Automatic,main,79,20251028-143934,global,global,300,S,S,E,A,S-E.png,S-A.png,sS,sS,mask-2.png,mask-3.png,s,1,0.38377650000620633,s,1,0.05944460001774132,0.04672699992079288,0.04583209997508675,0.09921869996469468,0.09812580002471805,0.30053289991337806
RSVPLG03,sg,20251028-143116,1.0.1,20251020-085245,722,Experiment,Both,1,Automatic,main,80,20251028-143938,local,local,750,S,H,E,E,E-S.png,E-H.png,sS,hH,mask-2.png,mask-2.png,s,1,0.507216600002721,h,1,0.6514696999220178,0.047520200023427606,0.04573399992659688,0.10055940004531294,0.0984485000371933,0.7501920000649989
RSVPLG03,sg,20251028-143116,1.0.1,20251020-085245,722,Experiment,Both,1,Automatic,main,81,20251028-143943,local,global,750,H,S,A,A,A-H.png,S-A.png,hH,sS,mask-2.png,mask-4.png,h,1,0.39455830003134906,s,1,0.012125000008381903,0.0475134999724105,0.047491799923591316,0.10053179995156825,0.10051489993929863,0.7495259999996051
RSVPLG03,sg,20251028-143116,1.0.1,20251020-085245,722,Experiment,Both,1,Automatic,main,82,20251028-143947,local,local,300,H,S,E,E,E-H.png,E-S.png,hH,sS,mask-3.png,mask-2.png,h,1,0.40541389991994947,s,1,0.5495525998994708,0.04752669995650649,0.04649720003362745,0.09952909999992698,0.10017170000355691,0.2998084999853745
RSVPLG03,sg,20251028-143116,1.0.1,20251020-085245,722,Experiment,Both,1,Automatic,main,83,20251028-143952,global,local,750,H,H,A,E,H-A.png,E-H.png,hH,hH,mask-4.png,mask-3.png,h,1,1.0417187999701127,s,0,0.2112044000532478,0.04750739992596209,0.04753860004711896,0.10051429993472993,0.10157860000617802,0.7485047999070957
RSVPLG03,sg,20251028-143116,1.0.1,20251020-085245,722,Experiment,Both,1,Automatic,main,84,20251028-143957,local,global,300,S,S,A,E,A-S.png,S-E.png,sS,sS,mask-3.png,mask-2.png,s,1,0.6867665000027046,s,1,0.05657540005631745,0.04752809996716678,0.04756089998409152,0.09960899990983307,0.09956520004197955,0.299923799932003
RSVPLG03,sg,20251028-143116,1.0.1,20251020-085245,722,Experiment,Both,1,Automatic,main,85,20251028-144002,local,global,750,S,S,A,E,A-S.png,S-E.png,sS,sS,mask-2.png,mask-1.png,s,1,0.36775490001309663,h,0,0.06436169997323304,0.048775100032798946,0.04672099999152124,0.10015190008562058,0.10012789990287274,0.7510495000751689
RSVPLG03,sg,20251028-143116,1.0.1,20251020-085245,722,Experiment,Both,1,Automatic,main,86,20251028-144006,global,global,750,S,S,A,E,S-A.png,S-E.png,sS,sS,mask-4.png,mask-3.png,s,1,0.35876690002623945,s,1,0.09212569997180253,0.047678799950517714,0.04768229997716844,0.10186819999944419,0.09986750001553446,0.7500405999599025
RSVPLG03,sg,20251028-143116,1.0.1,20251020-085245,722,Experiment,Both,1,Automatic,main,87,20251028-144011,local,local,750,H,H,A,E,A-H.png,E-H.png,hH,hH,mask-2.png,mask-1.png,h,1,0.3559024999849498,h,1,0.08826900005806237,0.046515800058841705,0.04750009998679161,0.09939560003113002,0.1001035999506712,0.7494258000515401
RSVPLG03,sg,20251028-143116,1.0.1,20251020-085245,722,Experiment,Both,1,Automatic,main,88,20251028-144015,global,local,750,H,H,A,E,H-A.png,E-H.png,hH,hH,mask-1.png,mask-4.png,h,1,0.5283784000203013,s,0,0.010377599974162877,0.046690399991348386,0.045942400000058115,0.09891349996905774,0.09963569999672472,0.7496805000118911
RSVPLG03,sg,20251028-143116,1.0.1,20251020-085245,722,Experiment,Both,1,Automatic,main,89,20251028-144020,global,global,300,H,H,E,E,H-E.png,H-E.png,hH,hH,mask-2.png,mask-3.png,h,1,0.4043593999231234,h,1,0.08775040006730705,0.046721499995328486,0.04852429998572916,0.09987919998820871,0.10027729999274015,0.29903019999619573
RSVPLG03,sg,20251028-143116,1.0.1,20251020-085245,722,Experiment,Both,1,Automatic,main,90,20251028-144024,global,global,300,H,H,A,E,H-A.png,H-E.png,hH,hH,mask-3.png,mask-1.png,h,1,0.3588418000144884,h,1,0.0704556000418961,0.04879209992941469,0.04866450000554323,0.10099519998766482,0.09985730005428195,0.299552199896425
RSVPLG03,sg,20251028-143116,1.0.1,20251020-085245,722,Experiment,Both,1,Automatic,main,91,20251028-144028,global,global,750,H,S,E,A,H-E.png,S-A.png,hH,sS,mask-3.png,mask-3.png,h,1,0.42097620002459735,s,1,0.009477100102230906,0.0477078000549227,0.04759199998807162,0.09992710000369698,0.0998187999939546,0.7500741000985727
RSVPLG03,sg,20251028-143116,1.0.1,20251020-085245,722,Experiment,Both,1,Automatic,main,92,20251028-144033,global,global,750,H,H,E,E,H-E.png,H-E.png,hH,hH,mask-1.png,mask-3.png,h,1,0.4493341000052169,h,1,0.07003920001443475,0.048506999970413744,0.0470660999417305,0.10169589996803552,0.10083330003544688,0.7495594000210986
RSVPLG03,sg,20251028-143116,1.0.1,20251020-085245,722,Experiment,Both,1,Automatic,main,93,20251028-144037,global,global,750,S,H,A,A,S-A.png,H-A.png,sS,hH,mask-1.png,mask-3.png,s,1,0.2610548000084236,h,1,0.0023589000338688493,0.04567879997193813,0.04769879998639226,0.09953200002200902,0.09976740006823093,0.7479960999917239
RSVPLG03,sg,20251028-143116,1.0.1,20251020-085245,722,Experiment,Both,1,Automatic,main,94,20251028-144042,global,global,300,H,H,E,E,H-E.png,H-E.png,hH,hH,mask-2.png,mask-4.png,h,1,0.4326975999865681,h,1,0.11119600001256913,0.049782900023274124,0.047684799996204674,0.10215060005430132,0.09975960000883788,0.30077490000985563
RSVPLG03,sg,20251028-143116,1.0.1,20251020-085245,722,Experiment,Both,1,Automatic,main,95,20251028-144046,global,local,300,S,H,E,E,S-E.png,E-H.png,sS,hH,mask-4.png,mask-3.png,s,1,0.3564900999190286,s,0,0.10622229997534305,0.04754129995126277,0.04760789999272674,0.10059980000369251,0.09962969995103776,0.3003955000312999
RSVPLG03,sg,20251028-143116,1.0.1,20251020-085245,722,Experiment,Both,1,Automatic,main,96,20251028-144050,local,global,300,H,H,A,E,A-H.png,H-E.png,hH,hH,mask-4.png,mask-1.png,h,1,0.8669411999871954,s,0,0.030381400021724403,0.046816299902275205,0.04623040009755641,0.0995701999636367,0.09817050001583993,0.29968949989415705
RSVPLG03,sg,20251028-143116,1.0.1,20251020-085245,722,Experiment,Both,1,Automatic,main,97,20251028-144055,local,global,300,H,S,E,E,E-H.png,S-E.png,hH,sS,mask-2.png,mask-4.png,h,1,0.4827379999915138,h,0,0.07070459995884448,0.04833740007597953,0.04757169994991273,0.10135120002087206,0.1014061999740079,0.299547600094229
RSVPLG03,sg,20251028-143116,1.0.1,20251020-085245,722,Experiment,Both,1,Automatic,main,98,20251028-144059,local,local,750,S,H,E,A,E-S.png,A-H.png,sS,hH,mask-4.png,mask-1.png,s,1,0.31189800007268786,h,1,0.13237839995417744,0.04765770002268255,0.047899400000460446,0.09966439998243004,0.10101350001059473,0.7487428999738768
RSVPLG03,sg,20251028-143116,1.0.1,20251020-085245,722,Experiment,Both,1,Automatic,main,99,20251028-144103,local,global,300,S,H,A,E,A-S.png,H-E.png,sS,hH,mask-3.png,mask-1.png,s,1,0.6301078998949379,s,0,0.1124977000290528,0.04753420001361519,0.04774209996685386,0.09885409998241812,0.09997380001004785,0.3004423000384122
RSVPLG03,sg,20251028-143116,1.0.1,20251020-085245,722,Experiment,Both,1,Automatic,main,100,20251028-144108,local,local,750,S,S,A,E,A-S.png,E-S.png,sS,sS,mask-1.png,mask-3.png,s,1,0.8255098999943584,h,0,0.10250139993149787,0.04802449990529567,0.04725699999835342,0.10019409994129092,0.10043300001416355,0.749618399888277
RSVPLG03,sg,20251028-143116,1.0.1,20251020-085245,722,Experiment,Both,1,Automatic,main,101,20251028-144132,global,local,300,S,S,A,E,S-A.png,E-S.png,sS,sS,mask-3.png,mask-3.png,s,1,0.29430870001669973,s,1,0.04479499999433756,0.04771319997962564,0.046713000047020614,0.10008729994297028,0.09991300001274794,0.3007558999815956
RSVPLG03,sg,20251028-143116,1.0.1,20251020-085245,722,Experiment,Both,1,Automatic,main,102,20251028-144136,global,global,750,H,S,E,A,H-E.png,S-A.png,hH,sS,mask-3.png,mask-3.png,h,1,0.43854269990697503,s,1,0.0350683000870049,0.04675219999626279,0.04872049996629357,0.09994750004261732,0.10096149996388704,0.7480617000255734
RSVPLG03,sg,20251028-143116,1.0.1,20251020-085245,722,Experiment,Both,1,Automatic,main,103,20251028-144141,global,global,300,H,H,E,E,H-E.png,H-E.png,hH,hH,mask-3.png,mask-3.png,h,1,0.3478787000058219,h,1,0.09314959996845573,0.04774170008022338,0.04776099999435246,0.10084930004086345,0.09994069999083877,0.30053450004197657
RSVPLG03,sg,20251028-143116,1.0.1,20251020-085245,722,Experiment,Both,1,Automatic,main,104,20251028-144145,global,local,300,H,H,A,A,H-A.png,A-H.png,hH,hH,mask-3.png,mask-2.png,h,1,0.4828665000386536,h,1,0.07315070007462054,0.047612100024707615,0.04767939995508641,0.09978579997550696,0.09885269997175783,0.3012921999907121
RSVPLG03,sg,20251028-143116,1.0.1,20251020-085245,722,Experiment,Both,1,Automatic,main,105,20251028-144149,local,local,300,S,H,E,A,E-S.png,A-H.png,sS,hH,mask-1.png,mask-1.png,s,1,0.46463339996989816,h,1,0.7467347000492737,0.046681299922056496,0.048523400095291436,0.09889479994308203,0.10057620005682111,0.2980220998870209
RSVPLG03,sg,20251028-143116,1.0.1,20251020-085245,722,Experiment,Both,1,Automatic,main,106,20251028-144154,local,local,750,H,H,A,A,A-H.png,A-H.png,hH,hH,mask-1.png,mask-4.png,h,1,0.28876869997475296,h,1,0.09386529994662851,0.04860740003641695,0.04867490008473396,0.10154070006683469,0.09974390000570565,0.7501975999912247
RSVPLG03,sg,20251028-143116,1.0.1,20251020-085245,722,Experiment,Both,1,Automatic,main,107,20251028-144159,global,global,750,H,S,E,E,H-E.png,S-E.png,hH,sS,mask-3.png,mask-2.png,h,1,0.49836349999532104,s,1,0.27502800000365824,0.04751519998535514,0.04768379998859018,0.10069769993424416,0.09971219999715686,0.7502795999171212
RSVPLG03,sg,20251028-143116,1.0.1,20251020-085245,722,Experiment,Both,1,Automatic,main,108,20251028-144204,global,global,300,H,S,A,A,H-A.png,S-A.png,hH,sS,mask-1.png,mask-3.png,h,1,0.38728380005341023,s,1,0.15822559990920126,0.04593000002205372,0.0488988000433892,0.09946560009848326,0.10000060009770095,0.2984948999946937
RSVPLG03,sg,20251028-143116,1.0.1,20251020-085245,722,Experiment,Both,1,Automatic,main,109,20251028-144208,global,global,750,S,S,E,E,S-E.png,S-E.png,sS,sS,mask-3.png,mask-2.png,s,1,0.27011220005806535,s,1,0.1218856000341475,0.04672220000065863,0.046637400053441525,0.10016400006134063,0.09872530004940927,0.7503712000325322
RSVPLG03,sg,20251028-143116,1.0.1,20251020-085245,722,Experiment,Both,1,Automatic,main,110,20251028-144212,local,global,300,S,H,A,E,A-S.png,H-E.png,sS,hH,mask-3.png,mask-4.png,s,1,0.4173375000245869,s,0,0.08562410005833954,0.047530399984680116,0.04833620006684214,0.09945509990211576,0.09886649996042252,0.299894499941729
RSVPLG03,sg,20251028-143116,1.0.1,20251020-085245,722,Experiment,Both,1,Automatic,main,111,20251028-144216,local,local,300,S,S,A,E,A-S.png,E-S.png,sS,sS,mask-4.png,mask-1.png,s,1,0.8237561999121681,s,1,0.24036709999199957,0.04759700002614409,0.04652650002390146,0.09982030000537634,0.09969609999097884,0.3007161000277847
RSVPLG03,sg,20251028-143116,1.0.1,20251020-085245,722,Experiment,Both,1,Automatic,main,112,20251028-144221,local,global,300,S,H,E,A,E-S.png,H-A.png,sS,hH,mask-2.png,mask-4.png,s,1,0.4034145000623539,h,1,0.14729040011297911,0.0471551000373438,0.0477004999993369,0.10034660005476326,0.10088199994061142,0.2990673000458628
RSVPLG03,sg,20251028-143116,1.0.1,20251020-085245,722,Experiment,Both,1,Automatic,main,113,20251028-144225,local,local,750,H,H,A,A,A-H.png,A-H.png,hH,hH,mask-4.png,mask-4.png,h,1,0.44049539999105036,h,1,0.08515189995523542,0.04641299997456372,0.046509900013916194,0.0982619000133127,0.09951240010559559,0.7485751999774948
RSVPLG03,sg,20251028-143116,1.0.1,20251020-085245,722,Experiment,Both,1,Automatic,main,114,20251028-144230,global,local,750,H,S,E,A,H-E.png,A-S.png,hH,sS,mask-1.png,mask-1.png,h,1,0.4320469000376761,h,0,0.07628259994089603,0.04618280008435249,0.0475092000560835,0.09768300002906471,0.10154520010109991,0.7481172999832779
RSVPLG03,sg,20251028-143116,1.0.1,20251020-085245,722,Experiment,Both,1,Automatic,main,115,20251028-144235,global,local,300,H,H,E,A,H-E.png,A-H.png,hH,hH,mask-1.png,mask-2.png,h,1,0.5698947000782937,s,0,0.2578247000928968,0.0475567999528721,0.047363199992105365,0.09958509996067733,0.09989429998677224,0.3002392000053078
RSVPLG03,sg,20251028-143116,1.0.1,20251020-085245,722,Experiment,Both,1,Automatic,main,116,20251028-144239,local,global,750,H,H,A,E,A-H.png,H-E.png,hH,hH,mask-1.png,mask-3.png,h,1,1.0152484000427648,h,1,0.07615380000788718,0.04551320010796189,0.04791909991763532,0.09926170005928725,0.1010729999979958,0.7482537000905722
RSVPLG03,sg,20251028-143116,1.0.1,20251020-085245,722,Experiment,Both,1,Automatic,main,117,20251028-144244,global,local,300,S,S,E,E,S-E.png,E-S.png,sS,sS,mask-4.png,mask-4.png,s,1,0.5052363000577316,s,1,0.16445369995199144,0.04768289998173714,0.04759819991886616,0.09987050003837794,0.0997986999573186,0.3005028000334278
RSVPLG03,sg,20251028-143116,1.0.1,20251020-085245,722,Experiment,Both,1,Automatic,main,118,20251028-144248,local,global,300,H,S,A,E,A-H.png,S-E.png,hH,sS,mask-4.png,mask-4.png,h,1,1.0641745999455452,s,1,0.029828099999576807,0.04835069994442165,0.04654940008185804,0.10028439993038774,0.09967760008294135,0.3000019999453798
RSVPLG03,sg,20251028-143116,1.0.1,20251020-085245,722,Experiment,Both,1,Automatic,main,119,20251028-144253,global,local,750,H,S,A,A,H-A.png,A-S.png,hH,sS,mask-4.png,mask-3.png,h,1,0.5306371999904513,h,0,0.05442719999700785,0.048711300012655556,0.049138100002892315,0.1007052999921143,0.09969199995975941,0.7491809000493959
RSVPLG03,sg,20251028-143116,1.0.1,20251020-085245,722,Experiment,Both,1,Automatic,main,120,20251028-144258,local,local,750,H,H,E,A,E-H.png,A-H.png,hH,hH,mask-4.png,mask-2.png,h,1,0.3083029999397695,h,1,0.05437250004615635,0.047512599965557456,0.047715699998661876,0.09957319998648018,0.09875190001912415,0.7495144999120384
RSVPLG03,sg,20251028-143116,1.0.1,20251020-085245,722,Experiment,Both,1,Automatic,main,121,20251028-144302,local,local,750,H,S,E,E,E-H.png,E-S.png,hH,sS,mask-2.png,mask-2.png,h,1,0.6284538999898359,s,1,0.05232730007264763,0.04750779992900789,0.04749889997765422,0.10059019993059337,0.10049680003430694,0.7494913999689743
RSVPLG03,sg,20251028-143116,1.0.1,20251020-085245,722,Experiment,Both,1,Automatic,main,122,20251028-144307,local,local,750,H,S,A,A,A-H.png,A-S.png,hH,sS,mask-3.png,mask-3.png,h,1,0.4498971001012251,s,1,0.04187289997935295,0.04752059991005808,0.047515599988400936,0.09953109989874065,0.10053100006189197,0.7494371999055147
RSVPLG03,sg,20251028-143116,1.0.1,20251020-085245,722,Experiment,Both,1,Automatic,main,123,20251028-144312,global,local,300,H,H,A,A,H-A.png,A-H.png,hH,hH,mask-1.png,mask-2.png,h,1,1.3982986999908462,s,0,0.1861419000197202,0.046611799974925816,0.047637299983762205,0.09871599997859448,0.09851979999803007,0.30006180005148053
RSVPLG03,sg,20251028-143116,1.0.1,20251020-085245,722,Experiment,Both,1,Automatic,main,124,20251028-144317,local,global,750,S,H,E,E,E-S.png,H-E.png,sS,hH,mask-2.png,mask-3.png,s,1,0.3081928000319749,h,1,0.30457719997502863,0.04769729997497052,0.047599899931810796,0.09897110005840659,0.1017178000183776,0.7481223000213504
RSVPLG03,sg,20251028-143116,1.0.1,20251020-085245,722,Experiment,Both,1,Automatic,main,125,20251028-144322,global,global,750,S,H,E,E,S-E.png,H-E.png,sS,hH,mask-1.png,mask-2.png,s,1,0.4195985000114888,h,1,0.5957086000125855,0.048594399937428534,0.047511399956420064,0.10059539997018874,0.0995880999835208,0.7494200000073761
RSVPLG03,sg,20251028-144351,1.0.1,20251020-085245,722,Experiment,Both,1,Automatic,warmup,1,20251028-144415,global,local,300,S,S,E,E,S-E.png,E-S.png,sS,sS,mask-1.png,mask-1.png,s,1,0.35664739995263517,s,1,0.07395530003122985,0.040123899932950735,0.047702500014565885,0.09397319995332509,0.10173999995458871,0.29456569999456406
RSVPLG03,sg,20251028-144351,1.0.1,20251020-085245,722,Experiment,Both,1,Automatic,warmup,2,20251028-144420,global,global,300,H,H,E,E,H-E.png,H-E.png,hH,hH,mask-2.png,mask-3.png,h,1,0.2754263000097126,h,1,0.07325960008893162,0.046822600066661835,0.0476765000494197,0.09999010001774877,0.09991460002493113,0.30240729998331517
RSVPLG03,sg,20251028-144351,1.0.1,20251020-085245,722,Experiment,Both,1,Automatic,warmup,3,20251028-144424,local,local,750,S,S,E,A,E-S.png,A-S.png,sS,sS,mask-2.png,mask-1.png,s,1,0.7414859000127763,s,1,0.10153949994128197,0.04765870003029704,0.04797860002145171,0.10191189998295158,0.0998999000294134,0.7560514999786392
RSVPLG03,sg,20251028-144351,1.0.1,20251020-085245,722,Experiment,Both,1,Automatic,warmup,4,20251028-144428,local,global,750,H,S,A,A,A-H.png,S-A.png,hH,sS,mask-1.png,mask-3.png,h,1,0.7113540000282228,s,1,0.6519083000021055,0.04761300003156066,0.047487800009548664,0.10063780006021261,0.1015499000204727,0.7547987999860197
RSVPLG03,sg,20251028-144351,1.0.1,20251020-085245,722,Experiment,Both,1,Automatic,warmup,5,20251028-144434,global,local,750,S,H,E,E,S-E.png,E-H.png,sS,hH,mask-1.png,mask-1.png,s,1,0.40386059996671975,s,0,0.10518509999383241,0.048044699942693114,0.047732100007124245,0.10108429996762425,0.10093220009002835,0.7549760999390855
RSVPLG03,sg,20251028-144351,1.0.1,20251020-085245,722,Experiment,Both,1,Automatic,main,6,20251028-144439,global,global,300,H,S,A,E,H-A.png,S-E.png,hH,sS,mask-2.png,mask-2.png,h,1,0.5772144999355078,s,1,0.07913139997981489,0.047545499983243644,0.047696399968117476,0.10075599991250783,0.0997982999542728,0.3033449000213295
RSVPLG03,sg,20251028-144351,1.0.1,20251020-085245,722,Experiment,Both,1,Automatic,main,7,20251028-144443,global,local,750,S,H,A,E,S-A.png,E-H.png,sS,hH,mask-4.png,mask-3.png,s,1,0.6409575999714434,s,0,0.058851499925367534,0.04731459997128695,0.0462796000065282,0.10063829994760454,0.09967220004182309,0.7557780999923125
RSVPLG03,sg,20251028-144351,1.0.1,20251020-085245,722,Experiment,Both,1,Automatic,main,8,20251028-144448,local,global,750,H,H,A,E,A-H.png,H-E.png,hH,hH,mask-3.png,mask-1.png,h,1,0.7909436000045389,h,1,0.08754040009807795,0.047117399983108044,0.048844699980691075,0.10042350005824119,0.10121009999420494,0.7540134000591934
RSVPLG03,sg,20251028-144351,1.0.1,20251020-085245,722,Experiment,Both,1,Automatic,main,9,20251028-144453,global,local,300,H,H,A,A,H-A.png,A-H.png,hH,hH,mask-4.png,mask-4.png,h,1,0.6228920000139624,h,1,0.07458860008046031,0.04672710003796965,0.04825560003519058,0.10072009998839349,0.101048200041987,0.30131200002506375
RSVPLG03,sg,20251028-144351,1.0.1,20251020-085245,722,Experiment,Both,1,Automatic,main,10,20251028-144457,global,global,300,H,S,E,E,H-E.png,S-E.png,hH,sS,mask-3.png,mask-2.png,h,1,0.35387200000695884,s,1,0.11977160000242293,0.04727519990410656,0.04767410003114492,0.10152539995033294,0.1023128000088036,0.3015620999503881
RSVPLG03,sg,20251028-144351,1.0.1,20251020-085245,722,Experiment,Both,1,Automatic,main,11,20251028-144501,global,local,750,S,H,A,E,S-A.png,E-H.png,sS,hH,mask-4.png,mask-3.png,s,1,0.44222299999091774,s,0,0.12248899997211993,0.04793280002195388,0.04787649994250387,0.10136889992281795,0.10034419992007315,0.7552909000078216
RSVPLG03,sg,20251028-144351,1.0.1,20251020-085245,722,Experiment,Both,1,Automatic,main,12,20251028-144506,global,local,300,S,H,A,A,S-A.png,A-H.png,sS,hH,mask-2.png,mask-3.png,s,1,0.41964580002240837,h,1,0.6607305000070482,0.04820820002350956,0.046090800082311034,0.10065290005877614,0.10025140002835542,0.3035876000067219
RSVPLG03,sg,20251028-144351,1.0.1,20251020-085245,722,Experiment,Both,1,Automatic,main,13,20251028-144511,local,local,300,S,S,E,A,E-S.png,A-S.png,sS,sS,mask-1.png,mask-1.png,s,1,0.4139661000808701,s,1,0.0671092999400571,0.046936700004152954,0.04698370001278818,0.09931429999414831,0.1004995999392122,0.3014098999556154
RSVPLG03,sg,20251028-144351,1.0.1,20251020-085245,722,Experiment,Both,1,Automatic,main,14,20251028-144515,local,local,750,S,H,E,E,E-S.png,E-H.png,sS,hH,mask-4.png,mask-1.png,s,1,0.3274221000028774,h,1,0.8425319000380114,0.04920670005958527,0.0466331000206992,0.10250949999317527,0.09920789999887347,0.7565920000197366
RSVPLG03,sg,20251028-144351,1.0.1,20251020-085245,722,Experiment,Both,1,Automatic,main,15,20251028-144520,global,local,300,S,S,E,E,S-E.png,E-S.png,sS,sS,mask-3.png,mask-2.png,s,1,0.4609942000824958,s,1,0.06261430005542934,0.04772849997971207,0.04863050009589642,0.10037180001381785,0.10063420003280044,0.30173239996656775
RSVPLG03,sg,20251028-144351,1.0.1,20251020-085245,722,Experiment,Both,1,Automatic,main,16,20251028-144524,local,local,750,H,H,E,E,E-H.png,E-H.png,hH,hH,mask-1.png,mask-1.png,h,1,0.21587919990997761,h,1,0.06848560005892068,0.046755800023674965,0.048014899948611856,0.10057849995791912,0.10073969990480691,0.7546862000599504
RSVPLG03,sg,20251028-144351,1.0.1,20251020-085245,722,Experiment,Both,1,Automatic,main,17,20251028-144529,global,global,750,S,H,A,A,S-A.png,H-A.png,sS,hH,mask-2.png,mask-2.png,s,1,0.27722260006703436,h,1,0.09687939996365458,0.048241600045003,0.047320200013928115,0.09974279999732971,0.09971720003522933,0.754951799986884
RSVPLG03,sg,20251028-144351,1.0.1,20251020-085245,722,Experiment,Both,1,Automatic,main,18,20251028-144533,local,local,750,H,S,E,E,E-H.png,E-S.png,hH,sS,mask-4.png,mask-4.png,h,1,0.4261707999976352,s,1,0.037589099956676364,0.047413500025868416,0.046060599968768656,0.0996285000583157,0.10111669998150319,0.7552301000105217
RSVPLG03,sg,20251028-144351,1.0.1,20251020-085245,722,Experiment,Both,1,Automatic,main,19,20251028-144538,local,local,300,H,H,E,E,E-H.png,E-H.png,hH,hH,mask-4.png,mask-2.png,h,1,0.5549937000032514,s,0,0.7153626000508666,0.047492300043813884,0.04637750005349517,0.09996519994456321,0.10011700005270541,0.3025081999367103
RSVPLG03,sg,20251028-144351,1.0.1,20251020-085245,722,Experiment,Both,1,Automatic,main,20,20251028-144542,local,local,300,S,H,E,A,E-S.png,A-H.png,sS,hH,mask-4.png,mask-4.png,s,1,0.412635900080204,s,0,0.13342750002630055,0.04717600008007139,0.04836670006625354,0.1008923000190407,0.10163399996235967,0.3016804000362754
RSVPLG03,sg,20251028-144351,1.0.1,20251020-085245,722,Experiment,Both,1,Automatic,main,21,20251028-144547,global,local,750,H,H,A,A,H-A.png,A-H.png,hH,hH,mask-3.png,mask-1.png,h,1,0.3742309999652207,h,1,0.1240381000097841,0.04793600004632026,0.04668540006969124,0.10171750001609325,0.10064059996511787,0.7560739000327885
RSVPLG03,sg,20251028-144351,1.0.1,20251020-085245,722,Experiment,Both,1,Automatic,main,22,20251028-144551,global,local,300,S,S,E,A,S-E.png,A-S.png,sS,sS,mask-3.png,mask-3.png,s,1,1.025602599955164,h,0,0.28324769996106625,0.048277199966832995,0.04636719997506589,0.1008237999631092,0.10006750002503395,0.3024384999880567
RSVPLG03,sg,20251028-144351,1.0.1,20251020-085245,722,Experiment,Both,1,Automatic,main,23,20251028-144556,global,local,750,H,S,E,A,H-E.png,A-S.png,hH,sS,mask-2.png,mask-1.png,h,1,0.5509090000996366,h,0,0.527779099997133,0.047054899972863495,0.04725169995799661,0.09998259996064007,0.09967729996424168,0.7549044999759644
RSVPLG03,sg,20251028-144351,1.0.1,20251020-085245,722,Experiment,Both,1,Automatic,main,24,20251028-144601,global,local,300,S,S,A,E,S-A.png,E-S.png,sS,sS,mask-4.png,mask-3.png,s,1,0.40875429997686297,s,1,0.0881533999927342,0.049250399926677346,0.048656600061804056,0.10043619992211461,0.1012356000719592,0.30203259992413223
RSVPLG03,sg,20251028-144351,1.0.1,20251020-085245,722,Experiment,Both,1,Automatic,main,25,20251028-144606,local,global,750,S,H,A,E,A-S.png,H-E.png,sS,hH,mask-4.png,mask-4.png,s,1,0.46630329999607056,h,1,0.07363550004083663,0.04910629999358207,0.04752709995955229,0.10206229996401817,0.10073089995421469,0.7555500000016764
RSVPLG03,sg,20251028-144351,1.0.1,20251020-085245,722,Experiment,Both,1,Automatic,main,26,20251028-144624,local,global,750,S,H,E,E,E-S.png,H-E.png,sS,hH,mask-4.png,mask-2.png,s,1,0.5809270999161527,h,1,0.6697051000082865,0.04724410001654178,0.04809699999168515,0.10059099993668497,0.10098250000737607,0.7552986999507993
RSVPLG03,sg,20251028-144351,1.0.1,20251020-085245,722,Experiment,Both,1,Automatic,main,27,20251028-144630,local,local,750,S,H,E,E,E-S.png,E-H.png,sS,hH,mask-4.png,mask-1.png,s,1,0.3571066999575123,h,1,0.4773914999095723,0.04917010001372546,0.04833529994357377,0.10187520005274564,0.10096539999358356,0.7553124000551179
RSVPLG03,sg,20251028-144351,1.0.1,20251020-085245,722,Experiment,Both,1,Automatic,main,28,20251028-144635,global,global,300,S,S,E,E,S-E.png,S-E.png,sS,sS,mask-4.png,mask-2.png,s,1,0.41213489999063313,s,1,0.1024184999987483,0.048187099979259074,0.04770670004654676,0.10233469994273037,0.09932779998052865,0.303763399948366
RSVPLG03,sg,20251028-144351,1.0.1,20251020-085245,722,Experiment,Both,1,Automatic,main,29,20251028-144639,local,local,300,S,H,A,A,A-S.png,A-H.png,sS,hH,mask-4.png,mask-3.png,s,1,1.00875429995358,h,1,0.27749860007315874,0.04739889991469681,0.04676850000396371,0.1016861000098288,0.10162209998816252,0.3023115999531001
RSVPLG03,sg,20251028-144351,1.0.1,20251020-085245,722,Experiment,Both,1,Automatic,main,30,20251028-144644,global,global,300,H,H,E,E,H-E.png,H-E.png,hH,hH,mask-4.png,mask-3.png,h,1,0.27565820002928376,h,1,0.07712259993422776,0.0470191000495106,0.04713379999157041,0.09952210006304085,0.10041309997905046,0.30132970004342496
RSVPLG03,sg,20251028-144351,1.0.1,20251020-085245,722,Experiment,Both,1,Automatic,main,31,20251028-144648,local,global,750,S,S,E,A,E-S.png,S-A.png,sS,sS,mask-3.png,mask-1.png,s,1,0.6307049000170082,h,0,0.509441600064747,0.048209400032646954,0.04865880007855594,0.10041229997295886,0.10094999999273568,0.7560629999497905
RSVPLG03,sg,20251028-144351,1.0.1,20251020-085245,722,Experiment,Both,1,Automatic,main,32,20251028-144653,local,local,300,S,H,E,A,E-S.png,A-H.png,sS,hH,mask-4.png,mask-3.png,s,1,1.5225094000343233,h,1,0.4878032000269741,0.04792300006374717,0.04723170003853738,0.10148259997367859,0.099862499977462,0.3026862000115216
RSVPLG03,sg,20251028-144351,1.0.1,20251020-085245,722,Experiment,Both,1,Automatic,main,33,20251028-144659,local,global,750,H,H,A,A,A-H.png,H-A.png,hH,hH,mask-2.png,mask-1.png,h,1,0.6437729999888688,h,1,0.16000300005543977,0.04692869994323701,0.047326300060376525,0.09856449998915195,0.1007246000226587,0.7539429999887943
RSVPLG03,sg,20251028-144351,1.0.1,20251020-085245,722,Experiment,Both,1,Automatic,main,34,20251028-144704,local,local,300,H,S,E,A,E-H.png,A-S.png,hH,sS,mask-4.png,mask-1.png,h,1,0.6260635000653565,s,1,0.6229045999934897,0.04732229991350323,0.04881619999650866,0.10062009992543608,0.10102790000382811,0.30046289996244013
RSVPLG03,sg,20251028-144351,1.0.1,20251020-085245,722,Experiment,Both,1,Automatic,main,35,20251028-144709,global,local,750,S,S,A,E,S-A.png,E-S.png,sS,sS,mask-1.png,mask-3.png,s,1,0.4392764000222087,s,1,0.10390489990822971,0.04721119999885559,0.04734650009777397,0.10008010000456125,0.10160200006794184,0.7553423999343067
RSVPLG03,sg,20251028-144351,1.0.1,20251020-085245,722,Experiment,Both,1,Automatic,main,36,20251028-144714,local,global,300,S,H,A,E,A-S.png,H-E.png,sS,hH,mask-2.png,mask-4.png,s,1,0.8655198999913409,h,1,0.20255669998005033,0.04816690005827695,0.047130699967965484,0.0995844000717625,0.10036629997193813,0.3027455999981612
RSVPLG03,sg,20251028-144351,1.0.1,20251020-085245,722,Experiment,Both,1,Automatic,main,37,20251028-144718,local,local,750,H,S,A,A,A-H.png,A-S.png,hH,sS,mask-4.png,mask-1.png,h,1,0.3749552998924628,s,1,0.05918229999952018,0.04821909999009222,0.04780359996948391,0.10087329999078065,0.10044680000282824,0.7554765000240877
RSVPLG03,sg,20251028-144351,1.0.1,20251020-085245,722,Experiment,Both,1,Automatic,main,38,20251028-144723,global,global,750,H,S,A,E,H-A.png,S-E.png,hH,sS,mask-4.png,mask-1.png,h,1,0.32417279994115233,s,1,0.021017699968069792,0.04920390003826469,0.04684840003028512,0.10091559996362776,0.09965760004706681,0.7557735999580473
RSVPLG03,sg,20251028-144351,1.0.1,20251020-085245,722,Experiment,Both,1,Automatic,main,39,20251028-144728,local,global,300,H,S,E,E,E-H.png,S-E.png,hH,sS,mask-2.png,mask-3.png,h,1,0.7558550999965519,s,1,1.0704179999884218,0.04677849996369332,0.048027200042270124,0.09908449999056756,0.10050649999175221,0.3016178999096155
RSVPLG03,sg,20251028-144351,1.0.1,20251020-085245,722,Experiment,Both,1,Automatic,main,40,20251028-144733,global,local,300,H,S,A,E,H-A.png,E-S.png,hH,sS,mask-1.png,mask-3.png,h,1,0.41478239989373833,s,1,0.15905140002723783,0.046820599935017526,0.04703040001913905,0.10035810002591461,0.09934850002173334,0.3022626999299973
RSVPLG03,sg,20251028-144351,1.0.1,20251020-085245,722,Experiment,Both,1,Automatic,main,41,20251028-144737,global,local,750,S,S,E,A,S-E.png,A-S.png,sS,sS,mask-2.png,mask-1.png,s,1,0.29629620001651347,h,0,0.6940988000715151,0.04838609998114407,0.04705320007633418,0.10070039995480329,0.09902060008607805,0.7569903999101371
RSVPLG03,sg,20251028-144351,1.0.1,20251020-085245,722,Experiment,Both,1,Automatic,main,42,20251028-144743,local,global,300,S,S,E,E,E-S.png,S-E.png,sS,sS,mask-2.png,mask-1.png,s,1,0.5253468999871984,h,0,1.0091355999466032,0.047897899989038706,0.04668130003847182,0.10194610001053661,0.10033399995882064,0.30282480001915246
RSVPLG03,sg,20251028-144351,1.0.1,20251020-085245,722,Experiment,Both,1,Automatic,main,43,20251028-144748,local,global,300,S,H,E,E,E-S.png,H-E.png,sS,hH,mask-1.png,mask-4.png,s,1,0.43684660003054887,h,1,0.5181372000370175,0.047389799961820245,0.046948600094765425,0.09973389992956072,0.09944830008316785,0.30296239990275353
RSVPLG03,sg,20251028-144351,1.0.1,20251020-085245,722,Experiment,Both,1,Automatic,main,44,20251028-144752,global,global,750,S,H,E,E,S-E.png,H-E.png,sS,hH,mask-3.png,mask-2.png,s,1,0.3172164000570774,h,1,0.0939807000104338,0.04690349998418242,0.04773600003682077,0.09953870007302612,0.10029590001795441,0.7552180000348017
RSVPLG03,sg,20251028-144351,1.0.1,20251020-085245,722,Experiment,Both,1,Automatic,main,45,20251028-144757,global,global,300,S,S,A,E,S-A.png,S-E.png,sS,sS,mask-1.png,mask-1.png,s,1,0.3487363000167534,s,1,0.09058960003312677,0.04742319998331368,0.04737559997010976,0.10119049996137619,0.10038419999182224,0.30214970000088215
RSVPLG03,sg,20251028-144351,1.0.1,20251020-085245,722,Experiment,Both,1,Automatic,main,46,20251028-144801,local,local,300,S,H,E,A,E-S.png,A-H.png,sS,hH,mask-3.png,mask-4.png,s,1,0.4184176999842748,h,1,0.11558829993009567,0.04700590006541461,0.04746899998281151,0.10096389998216182,0.09997440001461655,0.30140350002329797
RSVPLG03,sg,20251028-144351,1.0.1,20251020-085245,722,Experiment,Both,1,Automatic,main,47,20251028-144805,local,local,750,S,H,E,A,E-S.png,A-H.png,sS,hH,mask-1.png,mask-3.png,s,1,0.48453140002675354,h,1,0.061401600018143654,0.049213799997232854,0.04825569991953671,0.10144750005565584,0.10044419998303056,0.7557441000826657
RSVPLG03,sg,20251028-144351,1.0.1,20251020-085245,722,Experiment,Both,1,Automatic,main,48,20251028-144810,global,global,750,S,S,A,E,S-A.png,S-E.png,sS,sS,mask-4.png,mask-4.png,s,1,0.4109369000652805,s,1,0.0744117998983711,0.04849419998936355,0.04824839998036623,0.10036599996965379,0.10170510003808886,0.7554702999768779
RSVPLG03,sg,20251028-144351,1.0.1,20251020-085245,722,Experiment,Both,1,Automatic,main,49,20251028-144815,global,global,300,H,H,E,A,H-E.png,H-A.png,hH,hH,mask-1.png,mask-1.png,h,1,0.25279209995642304,h,1,0.05930850002914667,0.0487550999969244,0.04698790004476905,0.10107659990899265,0.10002110002096742,0.30380909994710237
RSVPLG03,sg,20251028-144351,1.0.1,20251020-085245,722,Experiment,Both,1,Automatic,main,50,20251028-144819,local,global,300,S,S,A,E,A-S.png,S-E.png,sS,sS,mask-4.png,mask-1.png,s,1,0.6560225000139326,h,0,2.651101400027983,0.04817160009406507,0.04700680007226765,0.10067890002392232,0.09988150000572205,0.3026868000160903
RSVPLG03,sg,20251028-144351,1.0.1,20251020-085245,722,Experiment,Both,1,Automatic,main,51,20251028-144834,local,local,300,S,S,A,A,A-S.png,A-S.png,sS,sS,mask-1.png,mask-3.png,h,0,2.361042100004852,h,0,0.070981299970299,0.04826200008392334,0.04839060001540929,0.100732900085859,0.10105350008234382,0.30206150002777576
RSVPLG03,sg,20251028-144351,1.0.1,20251020-085245,722,Experiment,Both,1,Automatic,main,52,20251028-144840,local,global,300,S,H,A,A,A-S.png,H-A.png,sS,hH,mask-1.png,mask-4.png,s,1,0.4741970000322908,s,0,0.06443709996528924,0.04581849998794496,0.04816959996242076,0.09994579991325736,0.1012707999907434,0.30088290001731366
RSVPLG03,sg,20251028-144351,1.0.1,20251020-085245,722,Experiment,Both,1,Automatic,main,53,20251028-144844,local,local,750,H,S,E,A,E-H.png,A-S.png,hH,sS,mask-4.png,mask-3.png,h,1,0.38440300000365824,s,1,0.01752430002670735,0.047098000068217516,0.04746439994778484,0.10115590004716069,0.09966089995577931,0.7553537000203505
RSVPLG03,sg,20251028-144351,1.0.1,20251020-085245,722,Experiment,Both,1,Automatic,main,54,20251028-144848,global,global,750,S,H,A,E,S-A.png,H-E.png,sS,hH,mask-3.png,mask-4.png,s,1,0.36697500001173466,h,1,0.045522799948230386,0.04744110000319779,0.04710019996855408,0.10178380005527288,0.09985799994319677,0.7560463000554591
RSVPLG03,sg,20251028-144351,1.0.1,20251020-085245,722,Experiment,Both,1,Automatic,main,55,20251028-144853,global,global,300,H,H,A,A,H-A.png,H-A.png,hH,hH,mask-3.png,mask-2.png,h,1,0.3115529000060633,h,1,0.09095250000245869,0.04958950006403029,0.0484558999305591,0.10266520001459867,0.09978839999530464,0.3037628000602126
RSVPLG03,sg,20251028-144351,1.0.1,20251020-085245,722,Experiment,Both,1,Automatic,main,56,20251028-144857,global,local,300,H,H,A,E,H-A.png,E-H.png,hH,hH,mask-3.png,mask-1.png,h,1,0.39104000001680106,s,0,0.03218029998242855,0.0467894000466913,0.048193000024184585,0.09926699998322874,0.10063340002670884,0.30050360003951937
RSVPLG03,sg,20251028-144351,1.0.1,20251020-085245,722,Experiment,Both,1,Automatic,main,57,20251028-144901,local,global,750,H,H,E,E,E-H.png,H-E.png,hH,hH,mask-1.png,mask-2.png,h,1,0.8128651999868453,h,1,0.10871160007081926,0.0486813000170514,0.04703319992404431,0.10243059997446835,0.10093029995914549,0.7564370000036433
RSVPLG03,sg,20251028-144351,1.0.1,20251020-085245,722,Experiment,Both,1,Automatic,main,58,20251028-144906,local,global,750,H,H,E,A,E-H.png,H-A.png,hH,hH,mask-3.png,mask-2.png,h,1,1.5095137000316754,h,1,0.07376539998222142,0.047875900054350495,0.0503006000071764,0.10080800007563084,0.10204390005674213,0.7545066999737173
RSVPLG03,sg,20251028-144351,1.0.1,20251020-085245,722,Experiment,Both,1,Automatic,main,59,20251028-144912,global,local,750,S,S,E,A,S-E.png,A-S.png,sS,sS,mask-3.png,mask-3.png,s,1,1.4067527999868616,s,1,0.10606830008327961,0.04818220005836338,0.04672260000370443,0.10233510006219149,0.09964959998615086,0.7566507000010461
RSVPLG03,sg,20251028-144351,1.0.1,20251020-085245,722,Experiment,Both,1,Automatic,main,60,20251028-144918,local,local,750,S,S,E,E,E-S.png,E-S.png,sS,sS,mask-2.png,mask-3.png,s,1,0.3147503000218421,s,1,0.07052070007193834,0.04805009998381138,0.04828660003840923,0.10130630002822727,0.09996440005488694,0.7561103999614716
RSVPLG03,sg,20251028-144351,1.0.1,20251020-085245,722,Experiment,Both,1,Automatic,main,61,20251028-144922,global,local,300,S,H,E,E,S-E.png,E-H.png,sS,hH,mask-2.png,mask-1.png,s,1,1.8411636999808252,s,0,0.2280577999772504,0.04710880003403872,0.04745099996216595,0.09992269997019321,0.09932419995311648,0.3028230000054464
RSVPLG03,sg,20251028-144351,1.0.1,20251020-085245,722,Experiment,Both,1,Automatic,main,62,20251028-144928,global,global,750,S,S,E,A,S-E.png,S-A.png,sS,sS,mask-1.png,mask-3.png,s,1,0.5178618999198079,s,1,0.09452649997547269,0.04803519998677075,0.04889439989347011,0.10037769994232804,0.10127729992382228,0.7549394000088796
RSVPLG03,sg,20251028-144351,1.0.1,20251020-085245,722,Experiment,Both,1,Automatic,main,63,20251028-144933,local,global,300,H,H,E,A,E-H.png,H-A.png,hH,hH,mask-3.png,mask-3.png,h,1,0.9078112000133842,h,1,0.37702630006242543,0.04850320005789399,0.04600249999202788,0.09984160005114973,0.09903620008844882,0.3036300999810919
RSVPLG03,sg,20251028-144351,1.0.1,20251020-085245,722,Experiment,Both,1,Automatic,main,64,20251028-144937,local,global,750,S,H,A,A,A-S.png,H-A.png,sS,hH,mask-3.png,mask-4.png,s,1,0.6901886999839917,h,1,0.10211730003356934,0.04676110006403178,0.04861429997254163,0.10135550005361438,0.10046599991619587,0.7553917000768706
RSVPLG03,sg,20251028-144351,1.0.1,20251020-085245,722,Experiment,Both,1,Automatic,main,65,20251028-144942,local,local,750,H,S,E,E,E-H.png,E-S.png,hH,sS,mask-4.png,mask-4.png,s,0,0.5451382999308407,h,0,0.7834423000458628,0.04839489993173629,0.046546699944883585,0.10114399995654821,0.10078460001386702,0.7563699999591336
RSVPLG03,sg,20251028-144351,1.0.1,20251020-085245,722,Experiment,Both,1,Automatic,main,66,20251028-144948,global,local,750,H,H,E,A,H-E.png,A-H.png,hH,hH,mask-1.png,mask-4.png,h,1,0.24149990000296384,h,1,0.054045400000177324,0.04697030002716929,0.04662770009599626,0.10205619991756976,0.09928950003813952,0.7562582999235019
RSVPLG03,sg,20251028-144351,1.0.1,20251020-085245,722,Experiment,Both,1,Automatic,main,67,20251028-144952,global,local,300,H,S,E,A,H-E.png,A-S.png,hH,sS,mask-2.png,mask-3.png,h,1,0.5081971000181511,h,0,0.06017039995640516,0.048078199964948,0.048532300046645105,0.10039079992566258,0.10042989999055862,0.30136509996373206
RSVPLG03,sg,20251028-144351,1.0.1,20251020-085245,722,Experiment,Both,1,Automatic,main,68,20251028-144957,local,local,750,H,H,E,A,E-H.png,A-H.png,hH,hH,mask-1.png,mask-4.png,h,1,0.27167950000148267,h,1,0.10840390005614609,0.049120700103230774,0.04699539998546243,0.10160660010296851,0.0997011000290513,0.7568730000639334
RSVPLG03,sg,20251028-144351,1.0.1,20251020-085245,722,Experiment,Both,1,Automatic,main,69,20251028-145001,local,global,750,S,H,A,E,A-S.png,H-E.png,sS,hH,mask-1.png,mask-1.png,s,1,0.46917029994074255,h,1,0.09248750004917383,0.04867100005503744,0.04689920006785542,0.10032470000442117,0.09938550007063895,0.755976999993436
RSVPLG03,sg,20251028-144351,1.0.1,20251020-085245,722,Experiment,Both,1,Automatic,main,70,20251028-145006,local,local,750,S,H,E,E,E-S.png,E-H.png,sS,hH,mask-1.png,mask-4.png,s,1,0.46732279995922,h,1,0.318778199958615,0.047960099996998906,0.04885770007967949,0.09952960000373423,0.1010536999674514,0.754803100018762
RSVPLG03,sg,20251028-144351,1.0.1,20251020-085245,722,Experiment,Both,1,Automatic,main,71,20251028-145011,local,local,300,S,H,E,E,E-S.png,E-H.png,sS,hH,mask-2.png,mask-4.png,s,1,0.557207899983041,s,0,2.294377600075677,0.04850380006246269,0.04914669995196164,0.10195150005165488,0.10041840001940727,0.30237060005310923
RSVPLG03,sg,20251028-144351,1.0.1,20251020-085245,722,Experiment,Both,1,Automatic,main,72,20251028-145017,global,global,750,H,H,E,A,H-E.png,H-A.png,hH,hH,mask-4.png,mask-3.png,h,1,0.44296580005902797,h,1,0.3574560000561178,0.0476259000133723,0.04811690002679825,0.10118060000240803,0.10056439996697009,0.754434600006789
RSVPLG03,sg,20251028-144351,1.0.1,20251020-085245,722,Experiment,Both,1,Automatic,main,73,20251028-145022,local,global,300,H,H,E,E,E-H.png,H-E.png,hH,hH,mask-4.png,mask-2.png,h,1,2.0595901999622583,s,0,0.17342480004299432,0.04926390002947301,0.04804789996705949,0.10112250002566725,0.100985600030981,0.3019668000051752
RSVPLG03,sg,20251028-144351,1.0.1,20251020-085245,722,Experiment,Both,1,Automatic,main,74,20251028-145028,global,global,300,S,S,A,E,S-A.png,S-E.png,sS,sS,mask-2.png,mask-1.png,s,1,0.6494468000018969,s,1,0.2624093999620527,0.04862350004259497,0.04836369992699474,0.10081680002622306,0.10128189995884895,0.3020343000534922
RSVPLG03,sg,20251028-144351,1.0.1,20251020-085245,722,Experiment,Both,1,Automatic,main,75,20251028-145033,local,global,300,S,H,E,E,E-S.png,H-E.png,sS,hH,mask-2.png,mask-3.png,s,1,0.9319666000083089,h,1,0.3644597999518737,0.0462596999714151,0.04881329997442663,0.09979950007982552,0.10047629999462515,0.3007665000623092
RSVPLG03,sg,20251028-144351,1.0.1,20251020-085245,722,Experiment,Both,1,Automatic,main,76,20251028-145040,global,global,300,H,H,A,A,H-A.png,H-A.png,hH,hH,mask-1.png,mask-1.png,h,1,0.2411145999794826,h,1,0.1216366000007838,0.046268300036899745,0.04927810002118349,0.10005010000895709,0.10121960006654263,0.3007033000467345
RSVPLG03,sg,20251028-144351,1.0.1,20251020-085245,722,Experiment,Both,1,Automatic,main,77,20251028-145044,global,local,750,S,S,A,E,S-A.png,E-S.png,sS,sS,mask-1.png,mask-1.png,s,1,0.3492100000148639,s,1,0.11469160008709878,0.04762869991827756,0.0493385000154376,0.10079910000786185,0.10128369997255504,0.7550573999760672
RSVPLG03,sg,20251028-144351,1.0.1,20251020-085245,722,Experiment,Both,1,Automatic,main,78,20251028-145049,global,global,300,H,S,E,E,H-E.png,S-E.png,hH,sS,mask-3.png,mask-2.png,h,1,0.5064210999989882,s,1,0.05088270001579076,0.04934310005046427,0.04734180006198585,0.1023829000769183,0.10129370004869998,0.3024678999790922
RSVPLG03,sg,20251028-144351,1.0.1,20251020-085245,722,Experiment,Both,1,Automatic,main,79,20251028-145053,global,local,750,S,H,E,E,S-E.png,E-H.png,sS,hH,mask-2.png,mask-1.png,s,1,0.2533109999494627,s,0,0.14117720001377165,0.047508400049991906,0.048182499944232404,0.09951700002420694,0.0996443999465555,0.7549823001027107
RSVPLG03,sg,20251028-144351,1.0.1,20251020-085245,722,Experiment,Both,1,Automatic,main,80,20251028-145058,global,global,750,H,S,A,E,H-A.png,S-E.png,hH,sS,mask-2.png,mask-4.png,h,1,0.4117395000066608,s,1,0.2239268000703305,0.047619199962355196,0.04895339999347925,0.10018479998689145,0.10087189998012036,0.7540978000033647
RSVPLG03,sg,20251028-144351,1.0.1,20251020-085245,722,Experiment,Both,1,Automatic,main,81,20251028-145103,global,local,300,H,H,A,E,H-A.png,E-H.png,hH,hH,mask-3.png,mask-2.png,h,1,0.5737473999615759,h,1,0.31201160000637174,0.04842140001710504,0.04691040003672242,0.10021930001676083,0.10034820006694645,0.30163989996071905
RSVPLG03,sg,20251028-144351,1.0.1,20251020-085245,722,Experiment,Both,1,Automatic,main,82,20251028-145107,global,global,750,S,H,A,A,S-A.png,H-A.png,sS,hH,mask-3.png,mask-1.png,s,1,0.34453859995119274,h,1,0.15110980009194463,0.0460421999450773,0.046864000032655895,0.09848990000318736,0.0988696999847889,0.7549432999221608
RSVPLG03,sg,20251028-144351,1.0.1,20251020-085245,722,Experiment,Both,1,Automatic,main,83,20251028-145112,local,global,300,S,H,E,E,E-S.png,H-E.png,sS,hH,mask-4.png,mask-3.png,s,1,0.48731649992987514,h,1,0.08540290000382811,0.04743899998720735,0.04807989997789264,0.10064820002298802,0.10079789999872446,0.30103009997401386
RSVPLG03,sg,20251028-144351,1.0.1,20251020-085245,722,Experiment,Both,1,Automatic,main,84,20251028-145116,local,local,300,H,S,E,E,E-H.png,E-S.png,hH,sS,mask-1.png,mask-2.png,h,1,0.6848635000642389,h,0,0.912658300017938,0.04855070007033646,0.047135100001469254,0.10105900000780821,0.10067640000488609,0.30333660007454455
RSVPLG03,sg,20251028-144351,1.0.1,20251020-085245,722,Experiment,Both,1,Automatic,main,85,20251028-145122,global,local,300,S,S,A,E,S-A.png,E-S.png,sS,sS,mask-4.png,mask-3.png,s,1,0.9982647000579163,s,1,1.3290762000251561,0.04739879991393536,0.0497979000210762,0.10018019995186478,0.10124830005224794,0.3015854998957366
RSVPLG03,sg,20251028-144351,1.0.1,20251020-085245,722,Experiment,Both,1,Automatic,main,86,20251028-145128,global,local,300,H,H,E,A,H-E.png,A-H.png,hH,hH,mask-1.png,mask-4.png,h,1,0.5306959999725223,h,1,0.41340910003054887,0.048329100012779236,0.0459876999957487,0.10061500000301749,0.09918190003372729,0.30437919998075813
RSVPLG03,sg,20251028-144351,1.0.1,20251020-085245,722,Experiment,Both,1,Automatic,main,87,20251028-145132,local,global,750,S,S,A,E,A-S.png,S-E.png,sS,sS,mask-4.png,mask-1.png,s,1,0.7254261000780389,h,0,0.589675199938938,0.04782640002667904,0.04704870004206896,0.10033839999232441,0.10056010005064309,0.7564810999901965
RSVPLG03,sg,20251028-144351,1.0.1,20251020-085245,722,Experiment,Both,1,Automatic,main,88,20251028-145138,global,global,750,H,S,A,E,H-A.png,S-E.png,hH,sS,mask-1.png,mask-3.png,h,1,0.36780270002782345,s,1,0.061398199992254376,0.0485211000777781,0.04868649994023144,0.10111630009487271,0.10129639995284379,0.7559260000707582
RSVPLG03,sg,20251028-144351,1.0.1,20251020-085245,722,Experiment,Both,1,Automatic,main,89,20251028-145143,local,global,750,S,S,A,E,A-S.png,S-E.png,sS,sS,mask-3.png,mask-4.png,s,1,0.6947285999776796,s,1,1.9774457999737933,0.047468099975958467,0.04689420002978295,0.1004444999853149,0.09943719999864697,0.7558241999940947
RSVPLG03,sg,20251028-144351,1.0.1,20251020-085245,722,Experiment,Both,1,Automatic,main,90,20251028-145149,local,local,300,H,S,A,E,A-H.png,E-S.png,hH,sS,mask-4.png,mask-2.png,h,1,1.523304299917072,h,0,0.3429298000410199,0.04822330002207309,0.047528999974019825,0.1018743000458926,0.09934209997300059,0.3034173999913037
