exp,exp_initials,runtime,ver,modtime,sub,blocktype,targets,cuetype,mode,trialtype,trial,trialtime,t1_level,t2_level,t2_lag,t1,t2,distractor1,distractor2,stimfile1,stimfile2,t1_corr,t2_corr,maskfile1,maskfile2,t1_resp,t1_acc,t1_rt,t2_resp,t2_acc,t2_rt,t1_dur,t2_dur,t1mask_soa,t2mask_soa,t1t2_soa
RSVPLG03,sg,20251021-114114,1.0.1,20251020-085245,706,Introduction,T1,1,Automatic,main,1,20251021-122041,local,global,750,S,S,E,A,E-S.png,S-A.png,sS,sS,mask-4.png,mask-1.png,s,1,13.31199560011737,none,-5,0,0.09681649995036423,0.09718449995853007,0.1991177999880165,0.19934990000911057,0.752704800106585
RSVPLG03,sg,20251021-114114,1.0.1,20251020-085245,706,Introduction,T1,1,Automatic,main,2,20251021-122059,global,global,750,H,H,A,A,H-A.png,H-A.png,hH,hH,mask-4.png,mask-4.png,h,1,2.7864782998804003,none,-5,0,0.09813799988478422,0.099037199979648,0.19949360005557537,0.20135050010867417,0.7520945998840034
RSVPLG03,sg,20251021-114114,1.0.1,20251020-085245,706,Introduction,T1,1,Automatic,main,3,20251021-122106,local,local,750,S,H,E,E,E-S.png,E-H.png,sS,hH,mask-2.png,mask-2.png,s,1,2.6369875001255423,none,-5,0,0.09730010014027357,0.09804320009425282,0.19967000000178814,0.1992407999932766,0.7530461000278592
RSVPLG03,sg,20251021-114114,1.0.1,20251020-085245,706,Introduction,T1,1,Automatic,main,4,20251021-122113,global,local,750,H,H,A,E,H-A.png,E-H.png,hH,hH,mask-2.png,mask-3.png,h,1,1.7171066000591964,none,-5,0,0.09719620016403496,0.09607809991575778,0.2014024001546204,0.19925189996138215,0.7541225000750273
RSVPLG03,sg,20251021-114114,1.0.1,20251020-085245,706,Introduction,T1,1,Automatic,main,5,20251021-122119,local,global,750,H,S,E,A,E-H.png,S-A.png,hH,sS,mask-4.png,mask-4.png,s,0,3.909830699907616,none,-5,0,0.09761439985595644,0.09582570008933544,0.19992389995604753,0.20037259999662638,0.7536919999402016
RSVPLG03,sg,20251021-114114,1.0.1,20251020-085245,706,Introduction,T1,1,Automatic,main,6,20251021-122127,global,global,750,S,S,A,E,S-A.png,S-E.png,sS,sS,mask-2.png,mask-1.png,s,1,2.4020324000157416,none,-5,0,0.09836980002000928,0.09736370015889406,0.20053799985907972,0.20053920010104775,0.7529906998388469
RSVPLG03,sg,20251021-114114,1.0.1,20251020-085245,706,Introduction,T1,1,Automatic,main,7,20251021-122133,global,local,750,S,S,A,A,S-A.png,A-S.png,sS,sS,mask-4.png,mask-3.png,s,1,2.0783884001430124,none,-5,0,0.09625650011003017,0.09717749990522861,0.2004222001414746,0.2014410998672247,0.7520491001196206
RSVPLG03,sg,20251021-114114,1.0.1,20251020-085245,706,Introduction,T1,1,Automatic,main,8,20251021-122140,global,local,750,H,H,A,E,H-A.png,E-H.png,hH,hH,mask-3.png,mask-3.png,h,1,1.474928299896419,none,-5,0,0.09680960001423955,0.09592839982360601,0.20048629981465638,0.20065879984758794,0.7541620000265539
RSVPLG03,sg,20251021-114114,1.0.1,20251020-085245,706,Introduction,T1,1,Automatic,main,9,20251021-122145,local,local,750,H,S,A,A,A-H.png,A-S.png,hH,sS,mask-2.png,mask-4.png,h,1,3.3786983999889344,none,-5,0,0.09722450003027916,0.09738119994290173,0.19943020003847778,0.2006806000135839,0.7518947999924421
RSVPLG03,sg,20251021-114114,1.0.1,20251020-085245,706,Introduction,T1,1,Automatic,main,10,20251021-122153,local,global,750,H,H,E,E,E-H.png,H-E.png,hH,hH,mask-4.png,mask-1.png,h,1,1.2652152997907251,none,-5,0,0.09718809998594224,0.09904849994927645,0.20042389980517328,0.20142329996451735,0.7531489999964833
RSVPLG03,sg,20251021-114114,1.0.1,20251020-085245,706,Introduction,T1,1,Automatic,main,11,20251021-122158,global,local,750,S,H,A,E,S-A.png,E-H.png,sS,hH,mask-4.png,mask-1.png,s,1,1.6378077999688685,none,-5,0,0.096859100041911,0.09813870000652969,0.20047750021331012,0.20056140003725886,0.7520600000862032
RSVPLG03,sg,20251021-114114,1.0.1,20251020-085245,706,Introduction,T1,1,Automatic,main,12,20251021-122204,global,global,750,S,S,E,E,S-E.png,S-E.png,sS,sS,mask-3.png,mask-2.png,s,1,1.0203639999963343,none,-5,0,0.09772950015030801,0.09825120004825294,0.2013505999930203,0.20047800010070205,0.7527282999362797
RSVPLG03,sg,20251021-114114,1.0.1,20251020-085245,706,Introduction,T1,1,Automatic,main,13,20251021-122209,local,global,750,S,H,E,E,E-S.png,H-E.png,sS,hH,mask-4.png,mask-4.png,s,1,1.1471075001172721,none,-5,0,0.09717799979262054,0.09419779991731048,0.20036749984137714,0.19841800001449883,0.755762399872765
RSVPLG03,sg,20251021-114114,1.0.1,20251020-085245,706,Introduction,T1,1,Automatic,main,14,20251021-122214,global,global,750,H,H,E,E,H-E.png,H-E.png,hH,hH,mask-2.png,mask-3.png,h,1,1.5189535999670625,none,-5,0,0.09820140013471246,0.09733670018613338,0.20147960004396737,0.2018307000398636,0.7539542999584228
RSVPLG03,sg,20251021-114114,1.0.1,20251020-085245,706,Introduction,T1,1,Automatic,main,15,20251021-122220,local,local,750,H,S,E,A,E-H.png,A-S.png,hH,sS,mask-1.png,mask-1.png,s,0,2.3442220999859273,none,-5,0,0.09748930018395185,0.0968843000009656,0.19992649997584522,0.20058110007084906,0.7532536999788135
RSVPLG03,sg,20251021-114114,1.0.1,20251020-085245,706,Introduction,T1,1,Automatic,main,16,20251021-122227,local,local,750,H,H,A,A,A-H.png,A-H.png,hH,hH,mask-3.png,mask-2.png,h,1,1.227997099980712,none,-5,0,0.0967977000400424,0.09827170008793473,0.2012436999939382,0.2014927000273019,0.7517951000481844
RSVPLG03,sg,20251021-122314,1.0.1,20251020-085245,706,Practice,T1,1,Automatic,main,1,20251021-122335,global,global,750,S,H,E,A,S-E.png,H-A.png,sS,hH,mask-1.png,mask-4.png,s,1,3.9314019000157714,none,-5,0,0.040983400074765086,0.04725609999150038,0.09386139991693199,0.09987840009853244,0.7433891999535263
RSVPLG03,sg,20251021-122314,1.0.1,20251020-085245,706,Practice,T1,1,Automatic,main,2,20251021-122343,local,local,300,H,S,E,E,E-H.png,E-S.png,hH,sS,mask-4.png,mask-1.png,s,0,1.452304600039497,none,-5,0,0.04745149984955788,0.04692540015093982,0.10167819983325899,0.09991630003787577,0.301041399827227
RSVPLG03,sg,20251021-122314,1.0.1,20251020-085245,706,Practice,T1,1,Automatic,main,3,20251021-122348,global,global,300,H,H,E,A,H-E.png,H-A.png,hH,hH,mask-3.png,mask-3.png,h,1,1.2120032999664545,none,-5,0,0.04868980008177459,0.04772910010069609,0.10084119997918606,0.09987620008178055,0.3008870999328792
RSVPLG03,sg,20251021-122314,1.0.1,20251020-085245,706,Practice,T1,1,Automatic,main,4,20251021-122353,local,global,750,S,S,A,A,A-S.png,S-A.png,sS,sS,mask-1.png,mask-4.png,h,0,1.6048200000077486,none,-5,0,0.048709800001233816,0.04685969999991357,0.09989780001342297,0.09903799998573959,0.7509518000297248
RSVPLG03,sg,20251021-122314,1.0.1,20251020-085245,706,Practice,T1,1,Automatic,main,5,20251021-122359,local,local,300,H,S,E,A,E-H.png,A-S.png,hH,sS,mask-2.png,mask-3.png,h,1,3.6144022999797016,none,-5,0,0.0467938999645412,0.046703000087291,0.09998739999718964,0.10042849997989833,0.29908879986032844
RSVPLG03,sg,20251021-122314,1.0.1,20251020-085245,706,Practice,T1,1,Automatic,main,6,20251021-122406,global,local,750,S,S,A,E,S-A.png,E-S.png,sS,sS,mask-4.png,mask-4.png,s,1,1.2129873000085354,none,-5,0,0.04751199996098876,0.04787790006957948,0.10173740005120635,0.10093430010601878,0.7500702999532223
RSVPLG03,sg,20251021-122314,1.0.1,20251020-085245,706,Practice,T1,1,Automatic,main,7,20251021-122411,global,global,750,H,S,E,A,H-E.png,S-A.png,hH,sS,mask-4.png,mask-1.png,h,1,1.2861764000263065,none,-5,0,0.04859520005993545,0.04717519995756447,0.1014714001212269,0.09902959992177784,0.7511269000824541
RSVPLG03,sg,20251021-122314,1.0.1,20251020-085245,706,Practice,T1,1,Automatic,main,8,20251021-122416,local,global,300,H,S,A,E,A-H.png,S-E.png,hH,sS,mask-2.png,mask-3.png,h,1,1.3478743000887334,none,-5,0,0.048423999920487404,0.04813300003297627,0.09943659999407828,0.10044479998759925,0.2994216999504715
RSVPLG03,sg,20251021-122314,1.0.1,20251020-085245,706,Practice,T1,1,Automatic,main,9,20251021-122421,local,local,750,H,S,A,A,A-H.png,A-S.png,hH,sS,mask-3.png,mask-2.png,h,1,1.2314520999789238,none,-5,0,0.04760609986260533,0.04775379993952811,0.10183239984326065,0.1019975000526756,0.7498615998774767
RSVPLG03,sg,20251021-122314,1.0.1,20251020-085245,706,Practice,T1,1,Automatic,main,10,20251021-122427,global,global,300,H,H,E,A,H-E.png,H-A.png,hH,hH,mask-4.png,mask-4.png,h,1,2.330680600134656,none,-5,0,0.047812300035730004,0.047306699911132455,0.09995930013246834,0.10103129991330206,0.30016180011443794
RSVPLG03,sg,20251021-122314,1.0.1,20251020-085245,706,Practice,T1,1,Automatic,main,11,20251021-122433,global,local,750,H,H,A,A,H-A.png,A-H.png,hH,hH,mask-1.png,mask-1.png,h,1,1.0767932999879122,none,-5,0,0.04767969995737076,0.046670100186020136,0.09979959996417165,0.0998698000330478,0.7501220998819917
RSVPLG03,sg,20251021-122314,1.0.1,20251020-085245,706,Practice,T1,1,Automatic,main,12,20251021-122438,local,local,750,S,H,E,A,E-S.png,A-H.png,sS,hH,mask-4.png,mask-3.png,s,1,1.1860688999295235,none,-5,0,0.047804199857637286,0.04575779987499118,0.09970479994080961,0.09988929983228445,0.7502905000001192
RSVPLG03,sg,20251021-122314,1.0.1,20251020-085245,706,Practice,T1,1,Automatic,main,13,20251021-122443,local,global,750,S,S,E,A,E-S.png,S-A.png,sS,sS,mask-2.png,mask-2.png,s,1,1.2369800999294966,none,-5,0,0.04687299998477101,0.0474864998832345,0.0998293999582529,0.09875629981979728,0.7502951000351459
RSVPLG03,sg,20251021-122314,1.0.1,20251020-085245,706,Practice,T1,1,Automatic,main,14,20251021-122448,global,local,300,H,H,E,A,H-E.png,A-H.png,hH,hH,mask-2.png,mask-4.png,h,1,1.1222805997822434,none,-5,0,0.04732699994929135,0.048517800169065595,0.09831429994665086,0.09962910017929971,0.29868719982914627
RSVPLG03,sg,20251021-122314,1.0.1,20251020-085245,706,Practice,T1,1,Automatic,main,15,20251021-122453,local,global,300,S,H,A,A,A-S.png,H-A.png,sS,hH,mask-4.png,mask-1.png,s,1,1.9309958999510854,none,-5,0,0.047601799946278334,0.048507300205528736,0.09851709986105561,0.09953760006465018,0.29877519980072975
RSVPLG03,sg,20251021-122314,1.0.1,20251020-085245,706,Practice,T1,1,Automatic,main,16,20251021-122458,global,local,300,H,S,A,E,H-A.png,E-S.png,hH,sS,mask-4.png,mask-2.png,h,1,1.2040029000490904,none,-5,0,0.045749399811029434,0.04634820017963648,0.09817369980737567,0.09943030006252229,0.30015419982373714
RSVPLG03,sg,20251021-122634,1.0.1,20251020-085245,706,Introduction,Both,1,Automatic,main,1,20251021-122716,local,local,750,H,H,E,A,E-H.png,A-H.png,hH,hH,mask-1.png,mask-2.png,s,0,3.6996265999041498,s,0,0.8894684000406414,0.09830150008201599,0.09751310013234615,0.2007377000991255,0.20032540010288358,0.7516652999911457
RSVPLG03,sg,20251021-122634,1.0.1,20251020-085245,706,Introduction,Both,1,Automatic,main,2,20251021-122725,local,local,750,H,H,E,E,E-H.png,E-H.png,hH,hH,mask-3.png,mask-4.png,h,1,9.781434600008652,s,0,4.2735234999563545,0.09863700019195676,0.09688620013184845,0.1997788001317531,0.19968309998512268,0.7516153000760823
RSVPLG03,sg,20251021-122634,1.0.1,20251020-085245,706,Introduction,Both,1,Automatic,main,3,20251021-122743,global,local,750,H,H,A,E,H-A.png,E-H.png,hH,hH,mask-2.png,mask-4.png,h,1,4.951625700108707,h,1,1.3813947001472116,0.09640819998458028,0.09845100017264485,0.1999953999184072,0.20177460019476712,0.7497508998494595
RSVPLG03,sg,20251021-122634,1.0.1,20251020-085245,706,Introduction,Both,1,Automatic,main,4,20251021-122754,global,global,750,H,S,A,A,H-A.png,S-A.png,hH,sS,mask-4.png,mask-4.png,h,1,2.139159900136292,s,1,0.8280240998137742,0.09812879981473088,0.09839410008862615,0.20195050002075732,0.2000980000011623,0.7524559998419136
RSVPLG03,sg,20251021-122634,1.0.1,20251020-085245,706,Introduction,Both,1,Automatic,main,5,20251021-122801,local,global,750,S,H,A,A,A-S.png,H-A.png,sS,hH,mask-2.png,mask-2.png,s,1,15.801346899941564,h,1,1.0130264998879284,0.09692010004073381,0.0973711998667568,0.19979889993555844,0.19920210004784167,0.7511591000948101
RSVPLG03,sg,20251021-122634,1.0.1,20251020-085245,706,Introduction,Both,1,Automatic,main,6,20251021-122822,local,local,750,H,S,E,A,E-H.png,A-S.png,hH,sS,mask-2.png,mask-4.png,s,0,3.7124918000772595,s,1,3.240931199863553,0.09668710012920201,0.0967782000079751,0.200656000059098,0.20125259994529188,0.7508882000111043
RSVPLG03,sg,20251021-122634,1.0.1,20251020-085245,706,Introduction,Both,1,Automatic,main,7,20251021-122834,local,global,750,S,H,A,E,A-S.png,H-E.png,sS,hH,mask-2.png,mask-1.png,h,0,2.3516035999637097,h,1,0.21829480002634227,0.09833579999394715,0.09690550016239285,0.200148600153625,0.19993350002914667,0.7517442000098526
RSVPLG03,sg,20251021-122634,1.0.1,20251020-085245,706,Introduction,Both,1,Automatic,main,8,20251021-122841,global,global,750,H,S,E,A,H-E.png,S-A.png,hH,sS,mask-4.png,mask-1.png,h,1,1.3028677999973297,s,1,0.7150415999349207,0.09840489993803203,0.09617189993150532,0.20111349993385375,0.1993897999636829,0.7517889000009745
RSVPLG03,sg,20251021-122634,1.0.1,20251020-085245,706,Introduction,Both,1,Automatic,main,9,20251021-122847,global,global,750,S,S,E,A,S-E.png,S-A.png,sS,sS,mask-3.png,mask-4.png,s,1,1.2104289000853896,s,1,0.11452850000932813,0.09857059991918504,0.09817739995196462,0.20090209995396435,0.1997046999167651,0.7514971001073718
RSVPLG03,sg,20251021-122634,1.0.1,20251020-085245,706,Introduction,Both,1,Automatic,main,10,20251021-122853,local,global,750,S,S,E,A,E-S.png,S-A.png,sS,sS,mask-3.png,mask-2.png,s,1,1.9637403001543134,s,1,0.14403389999642968,0.09875070000998676,0.0959415000397712,0.19999510003253818,0.1992499001789838,0.7530358999501914
RSVPLG03,sg,20251021-122634,1.0.1,20251020-085245,706,Introduction,Both,1,Automatic,main,11,20251021-122859,global,global,750,S,S,A,E,S-A.png,S-E.png,sS,sS,mask-3.png,mask-1.png,s,1,1.162223600083962,s,1,0.34545579995028675,0.09860959998331964,0.09827790013514459,0.20137680019252002,0.20083090011030436,0.7508531999774277
RSVPLG03,sg,20251021-122634,1.0.1,20251020-085245,706,Introduction,Both,1,Automatic,main,12,20251021-122905,local,local,750,H,S,A,E,A-H.png,E-S.png,hH,sS,mask-2.png,mask-3.png,h,1,2.264015099965036,h,0,0.13650180003605783,0.09838209999725223,0.09712809999473393,0.20105210016481578,0.20161619991995394,0.7513646001461893
RSVPLG03,sg,20251021-122634,1.0.1,20251020-085245,706,Introduction,Both,1,Automatic,main,13,20251021-122912,global,local,750,S,H,A,E,S-A.png,E-H.png,sS,hH,mask-2.png,mask-1.png,s,1,1.8283104998990893,h,1,0.7166491001844406,0.097719999961555,0.0968830999918282,0.20190629991702735,0.19997610012069345,0.752717699855566
RSVPLG03,sg,20251021-122634,1.0.1,20251020-085245,706,Introduction,Both,1,Automatic,main,14,20251021-122919,global,local,750,S,S,E,A,S-E.png,A-S.png,sS,sS,mask-1.png,mask-2.png,s,1,1.0857135001569986,h,0,0.5034733000211418,0.09753139992244542,0.09667979995720088,0.20072890003211796,0.19960299995727837,0.7508872000034899
RSVPLG03,sg,20251021-122634,1.0.1,20251020-085245,706,Introduction,Both,1,Automatic,main,15,20251021-122925,global,local,750,S,H,E,A,S-E.png,A-H.png,sS,hH,mask-1.png,mask-1.png,s,1,1.059000700013712,h,1,1.8849529998842627,0.09649550006724894,0.0976925001014024,0.19981510005891323,0.2014453001320362,0.7502256999723613
RSVPLG03,sg,20251021-122634,1.0.1,20251020-085245,706,Introduction,Both,1,Automatic,main,16,20251021-122932,local,global,750,H,S,E,E,E-H.png,S-E.png,hH,sS,mask-3.png,mask-3.png,h,1,1.6395651998464018,s,1,0.33680729987099767,0.0979852001182735,0.09929060004651546,0.2006810000166297,0.20227809995412827,0.7494225001428276
RSVPLG03,sg,20251021-123037,1.0.1,20251020-085245,706,Practice,Both,1,Automatic,main,1,20251021-123107,global,local,300,H,S,A,A,H-A.png,A-S.png,hH,sS,mask-4.png,mask-3.png,h,1,2.6436264999210835,s,1,0.26851839991286397,0.042826700024306774,0.048609300050884485,0.09532180009409785,0.101146399974823,0.2958496999926865
RSVPLG03,sg,20251021-123037,1.0.1,20251020-085245,706,Practice,Both,1,Automatic,main,2,20251021-123113,global,local,300,S,S,E,E,S-E.png,E-S.png,sS,sS,mask-2.png,mask-3.png,s,1,5.29126840014942,h,0,0.314655999885872,0.04966969997622073,0.047283400082960725,0.10223630000837147,0.10025650006718934,0.3005284999962896
RSVPLG03,sg,20251021-123037,1.0.1,20251020-085245,706,Practice,Both,1,Automatic,main,3,20251021-123123,global,global,750,S,H,E,A,S-E.png,H-A.png,sS,hH,mask-1.png,mask-4.png,s,1,1.0213049999438226,s,0,1.1464984000194818,0.04648380004800856,0.048801499884575605,0.09902850002981722,0.1008581998758018,0.7471617001574486
RSVPLG03,sg,20251021-123037,1.0.1,20251020-085245,706,Practice,Both,1,Automatic,main,4,20251021-123129,global,global,750,H,H,A,E,H-A.png,H-E.png,hH,hH,mask-4.png,mask-3.png,h,1,0.6901841000653803,h,1,0.5195617000572383,0.046719100093469024,0.04828700004145503,0.09928980004042387,0.10076589998789132,0.7478753000032157
RSVPLG03,sg,20251021-123037,1.0.1,20251020-085245,706,Practice,Both,1,Automatic,main,5,20251021-123135,global,global,300,H,H,A,A,H-A.png,H-A.png,hH,hH,mask-4.png,mask-2.png,h,1,1.0907305001746863,h,1,0.1134901000186801,0.047612200025469065,0.04823679989203811,0.1008500000461936,0.09992379997856915,0.29934810008853674
RSVPLG03,sg,20251021-123037,1.0.1,20251020-085245,706,Practice,Both,1,Automatic,main,6,20251021-123139,global,local,750,H,H,A,A,H-A.png,A-H.png,hH,hH,mask-4.png,mask-2.png,h,1,0.75092520006001,h,1,0.19992220005951822,0.04702860000543296,0.04718340002000332,0.09955010004341602,0.09947849996387959,0.7484985000919551
RSVPLG03,sg,20251021-123037,1.0.1,20251020-085245,706,Practice,Both,1,Automatic,main,7,20251021-123145,local,local,300,H,H,A,E,A-H.png,E-H.png,hH,hH,mask-2.png,mask-4.png,h,1,0.9429303000215441,s,0,1.1394032998941839,0.04571640002541244,0.04895359999500215,0.09942310000769794,0.10023690015077591,0.29726579994894564
RSVPLG03,sg,20251021-123037,1.0.1,20251020-085245,706,Practice,Both,1,Automatic,main,8,20251021-123151,global,local,750,H,H,E,A,H-E.png,A-H.png,hH,hH,mask-4.png,mask-3.png,h,1,0.6429371999111027,h,1,0.17715719994157553,0.04649679991416633,0.04725589998997748,0.09940409986302257,0.09899550001136959,0.7491605998948216
RSVPLG03,sg,20251021-123037,1.0.1,20251020-085245,706,Practice,Both,1,Automatic,main,9,20251021-123156,local,local,750,S,H,A,A,A-S.png,A-H.png,sS,hH,mask-1.png,mask-3.png,h,0,0.4681647999677807,h,1,0.11334029980935156,0.04852269985713065,0.048286200035363436,0.1004855998326093,0.10133690014481544,0.7487009998876601
RSVPLG03,sg,20251021-123037,1.0.1,20251020-085245,706,Practice,Both,1,Automatic,main,10,20251021-123200,local,global,750,H,H,E,A,E-H.png,H-A.png,hH,hH,mask-4.png,mask-3.png,h,1,1.7053423998877406,h,1,0.09061850002035499,0.04866680013947189,0.04765389999374747,0.09987260005436838,0.09983780002221465,0.7491431999951601
RSVPLG03,sg,20251021-123037,1.0.1,20251020-085245,706,Practice,Both,1,Automatic,main,11,20251021-123206,local,local,300,H,S,E,E,E-H.png,E-S.png,hH,sS,mask-2.png,mask-1.png,h,1,0.8551313001662493,s,1,0.015265699941664934,0.04752729996107519,0.04720179992727935,0.09988939994946122,0.10147719993256032,0.2988142999820411
RSVPLG03,sg,20251021-123037,1.0.1,20251020-085245,706,Practice,Both,1,Automatic,main,12,20251021-123211,local,global,300,S,H,A,E,A-S.png,H-E.png,sS,hH,mask-1.png,mask-1.png,h,0,0.9500166999641806,s,0,0.03819290013052523,0.0473144999705255,0.04749880009330809,0.09829279989935458,0.10152500006370246,0.2978765999432653
RSVPLG03,sg,20251021-123037,1.0.1,20251020-085245,706,Practice,Both,1,Automatic,main,13,20251021-123216,local,global,750,S,H,A,A,A-S.png,H-A.png,sS,hH,mask-1.png,mask-3.png,h,0,0.6207687999121845,h,1,0.12957220012322068,0.04698450001887977,0.048022700008004904,0.09969489998184144,0.10055059986189008,0.7473107001278549
RSVPLG03,sg,20251021-123037,1.0.1,20251020-085245,706,Practice,Both,1,Automatic,main,14,20251021-123221,local,global,300,S,H,E,E,E-S.png,H-E.png,sS,hH,mask-2.png,mask-1.png,s,1,0.7522456001024693,h,1,0.05872309999540448,0.04743629996664822,0.047475900035351515,0.09952659998089075,0.09865429997444153,0.29976890003308654
RSVPLG03,sg,20251021-123037,1.0.1,20251020-085245,706,Practice,Both,1,Automatic,main,15,20251021-123225,local,local,750,S,S,A,A,A-S.png,A-S.png,sS,sS,mask-3.png,mask-4.png,s,1,1.803069300018251,h,0,0.6000998001545668,0.04560630000196397,0.04753739992156625,0.09884830005466938,0.10051399981603026,0.7482953001745045
RSVPLG03,sg,20251021-123037,1.0.1,20251020-085245,706,Practice,Both,1,Automatic,main,16,20251021-123232,global,global,300,H,S,A,A,H-A.png,S-A.png,hH,sS,mask-1.png,mask-1.png,h,1,0.9242479000240564,s,1,0.01985949999652803,0.048482000129297376,0.04646330000832677,0.09948480012826622,0.09945770003832877,0.3003772001247853
RSVPLG03,sg,20251021-123503,1.0.1,20251020-085245,706,Experiment,Both,1,Automatic,warmup,1,20251021-123606,global,local,750,H,H,E,A,H-E.png,A-H.png,hH,hH,mask-2.png,mask-3.png,s,0,3.9880888999905437,h,1,2.8751427000388503,0.04474269994534552,0.04718019999563694,0.09582369984127581,0.10089919995516539,0.7470182999968529
RSVPLG03,sg,20251021-123503,1.0.1,20251020-085245,706,Experiment,Both,1,Automatic,warmup,2,20251021-123617,local,global,300,H,H,E,E,E-H.png,H-E.png,hH,hH,mask-2.png,mask-2.png,s,0,2.890567700145766,h,1,1.1677431999705732,0.048939800122752786,0.04793010000139475,0.10196310002356768,0.10118470015004277,0.3007159000262618
RSVPLG03,sg,20251021-123503,1.0.1,20251020-085245,706,Experiment,Both,1,Automatic,warmup,3,20251021-123625,local,local,300,S,S,A,E,A-S.png,E-S.png,sS,sS,mask-1.png,mask-3.png,h,0,2.6772886998951435,s,1,1.119648100109771,0.04574909992516041,0.048475599847733974,0.09931219997815788,0.10103949997574091,0.2987100000027567
RSVPLG03,sg,20251021-123503,1.0.1,20251020-085245,706,Experiment,Both,1,Automatic,warmup,4,20251021-123632,global,global,750,S,S,E,E,S-E.png,S-E.png,sS,sS,mask-3.png,mask-1.png,s,1,1.509361500153318,s,1,0.12646189983934164,0.04834749992005527,0.04792150016874075,0.10159169998951256,0.10107780015096068,0.750739999813959
RSVPLG03,sg,20251021-123503,1.0.1,20251020-085245,706,Experiment,Both,1,Automatic,warmup,5,20251021-123638,local,local,750,H,H,E,A,E-H.png,A-H.png,hH,hH,mask-1.png,mask-3.png,h,1,1.6848549998831004,h,1,0.1024428999517113,0.04894499992951751,0.04688109993003309,0.10086079989559948,0.1003095000050962,0.7519765999168158
RSVPLG03,sg,20251021-123503,1.0.1,20251020-085245,706,Experiment,Both,1,Automatic,main,6,20251021-123644,local,local,750,S,S,E,E,E-S.png,E-S.png,sS,sS,mask-2.png,mask-1.png,s,1,1.2496372000314295,s,1,0.12317919987253845,0.04701279988512397,0.049065800150856376,0.09954810002818704,0.10153370001353323,0.7498190999031067
RSVPLG03,sg,20251021-123503,1.0.1,20251020-085245,706,Experiment,Both,1,Automatic,main,7,20251021-123649,local,global,750,S,H,A,A,A-S.png,H-A.png,sS,hH,mask-4.png,mask-3.png,s,1,1.1521151999477297,h,1,1.6188614999409765,0.047266999958083034,0.048195399809628725,0.10107850003987551,0.10191429988481104,0.7503466000780463
RSVPLG03,sg,20251021-123503,1.0.1,20251020-085245,706,Experiment,Both,1,Automatic,main,8,20251021-123656,global,global,300,S,S,A,A,S-A.png,S-A.png,sS,sS,mask-2.png,mask-2.png,s,1,1.3611006999853998,s,1,0.07060199999250472,0.04627459985204041,0.04464400000870228,0.0995815999340266,0.09848910011351109,0.30188829987309873
RSVPLG03,sg,20251021-123503,1.0.1,20251020-085245,706,Experiment,Both,1,Automatic,main,9,20251021-123701,local,local,300,H,S,A,E,A-H.png,E-S.png,hH,sS,mask-1.png,mask-1.png,h,1,1.5432512001134455,s,1,0.5796807000879198,0.04714650008827448,0.04698080010712147,0.09956900007091463,0.10103260003961623,0.2999940998852253
RSVPLG03,sg,20251021-123503,1.0.1,20251020-085245,706,Experiment,Both,1,Automatic,main,10,20251021-123707,local,local,300,H,H,A,E,A-H.png,E-H.png,hH,hH,mask-1.png,mask-2.png,h,1,1.5372243002057076,s,0,0.6020110000390559,0.045992600033059716,0.048362699802964926,0.09887860016897321,0.0997098998632282,0.2999987001530826
RSVPLG03,sg,20251021-123503,1.0.1,20251020-085245,706,Experiment,Both,1,Automatic,main,11,20251021-123713,local,local,300,S,H,A,E,A-S.png,E-H.png,sS,hH,mask-1.png,mask-4.png,s,1,1.3539872001856565,h,1,1.1577232000418007,0.04723839997313917,0.04723410005681217,0.09920489997602999,0.09910820005461574,0.30085999984294176
RSVPLG03,sg,20251021-123503,1.0.1,20251020-085245,706,Experiment,Both,1,Automatic,main,12,20251021-123719,global,local,750,S,S,E,E,S-E.png,E-S.png,sS,sS,mask-2.png,mask-4.png,s,1,1.1410586999263614,s,1,0.14335789997130632,0.04810160002671182,0.04684640001505613,0.1005853998940438,0.09894769988022745,0.7513546000700444
RSVPLG03,sg,20251021-123503,1.0.1,20251020-085245,706,Experiment,Both,1,Automatic,main,13,20251021-123725,local,local,750,H,S,E,A,E-H.png,A-S.png,hH,sS,mask-3.png,mask-2.png,h,1,1.438807399943471,s,1,0.5450923999305815,0.048379800049588084,0.04819969995878637,0.10168369999155402,0.10085549997165799,0.7520433000754565
RSVPLG03,sg,20251021-123503,1.0.1,20251020-085245,706,Experiment,Both,1,Automatic,main,14,20251021-123731,local,global,750,H,H,E,A,E-H.png,H-A.png,hH,hH,mask-1.png,mask-3.png,s,0,1.501812499947846,h,1,0.7930789000820369,0.048023900017142296,0.0464625998865813,0.10039540007710457,0.0994949999731034,0.7525518001057208
RSVPLG03,sg,20251021-123503,1.0.1,20251020-085245,706,Experiment,Both,1,Automatic,main,15,20251021-123737,local,local,300,S,H,A,E,A-S.png,E-H.png,sS,hH,mask-1.png,mask-1.png,h,0,1.2864262000657618,s,0,0.4980456999037415,0.0485062999650836,0.04715960007160902,0.09997069998644292,0.09992080018855631,0.301095699891448
RSVPLG03,sg,20251021-123503,1.0.1,20251020-085245,706,Experiment,Both,1,Automatic,main,16,20251021-123743,global,global,750,H,S,E,E,H-E.png,S-E.png,hH,sS,mask-3.png,mask-1.png,h,1,1.3136252998374403,s,1,0.37461000005714595,0.04731309995986521,0.04750699992291629,0.10071919998154044,0.09878710005432367,0.7520479999948293
RSVPLG03,sg,20251021-123503,1.0.1,20251020-085245,706,Experiment,Both,1,Automatic,main,17,20251021-123748,local,global,750,H,S,E,A,E-H.png,S-A.png,hH,sS,mask-4.png,mask-2.png,h,1,1.0278986999765038,s,1,0.3477006000466645,0.04936669999733567,0.047960299998521805,0.1016330998390913,0.10069329990074039,0.7516061998903751
RSVPLG03,sg,20251021-123503,1.0.1,20251020-085245,706,Experiment,Both,1,Automatic,main,18,20251021-123754,global,local,300,H,S,A,E,H-A.png,E-S.png,hH,sS,mask-1.png,mask-3.png,h,1,1.0162488999776542,s,1,0.5182912999298424,0.046660799998790026,0.04803370009176433,0.09889929997734725,0.10155989998020232,0.2992153998930007
RSVPLG03,sg,20251021-123503,1.0.1,20251020-085245,706,Experiment,Both,1,Automatic,main,19,20251021-123759,global,local,300,H,S,A,E,H-A.png,E-S.png,hH,sS,mask-3.png,mask-2.png,h,1,1.3680838998407125,s,1,0.6472167000174522,0.04678249987773597,0.04619959997944534,0.09935919987037778,0.09888510010205209,0.3005756998900324
RSVPLG03,sg,20251021-123503,1.0.1,20251020-085245,706,Experiment,Both,1,Automatic,main,20,20251021-123805,global,local,750,H,S,E,E,H-E.png,E-S.png,hH,sS,mask-3.png,mask-4.png,h,1,1.1436711000278592,s,1,0.5060768001712859,0.04673130018636584,0.04848279990255833,0.09942700015380979,0.10024719987995923,0.7499085001181811
RSVPLG03,sg,20251021-123503,1.0.1,20251020-085245,706,Experiment,Both,1,Automatic,main,21,20251021-123810,global,global,750,H,S,E,A,H-E.png,S-A.png,hH,sS,mask-2.png,mask-3.png,h,1,0.937832800205797,s,1,0.5410947999916971,0.048377799801528454,0.04669809993356466,0.10066969995386899,0.09969679987989366,0.7525975999888033
RSVPLG03,sg,20251021-123503,1.0.1,20251020-085245,706,Experiment,Both,1,Automatic,main,22,20251021-123816,local,local,300,S,H,A,E,A-S.png,E-H.png,sS,hH,mask-2.png,mask-4.png,s,1,1.2831365999300033,h,1,0.49690030002966523,0.048706799978390336,0.04716409998945892,0.10032989992760122,0.09953689994290471,0.3005186999216676
RSVPLG03,sg,20251021-123503,1.0.1,20251020-085245,706,Experiment,Both,1,Automatic,main,23,20251021-123821,global,local,750,S,H,E,A,S-E.png,A-H.png,sS,hH,mask-4.png,mask-1.png,s,1,1.2642764998599887,s,0,1.6569083000067621,0.04738200013525784,0.049051000038161874,0.09922210010699928,0.10026019997894764,0.7503097001463175
RSVPLG03,sg,20251021-123503,1.0.1,20251020-085245,706,Experiment,Both,1,Automatic,main,24,20251021-123828,global,global,300,H,H,E,E,H-E.png,H-E.png,hH,hH,mask-2.png,mask-2.png,h,1,1.1109805000014603,s,0,0.37865049997344613,0.0470229999627918,0.04846530011855066,0.09939510002732277,0.10134549997746944,0.29850579984486103
RSVPLG03,sg,20251021-123503,1.0.1,20251020-085245,706,Experiment,Both,1,Automatic,main,25,20251021-123834,local,global,750,H,H,E,A,E-H.png,H-A.png,hH,hH,mask-3.png,mask-1.png,s,0,1.0868080998770893,s,0,1.2282386999577284,0.04683560016565025,0.04752809996716678,0.09974660002626479,0.09882689989171922,0.7508869001176208
RSVPLG03,sg,20251021-123503,1.0.1,20251020-085245,706,Experiment,Both,1,Automatic,main,26,20251021-123903,global,local,750,H,S,E,E,H-E.png,E-S.png,hH,sS,mask-1.png,mask-1.png,s,0,2.2287817001342773,s,1,0.1068216001149267,0.047188600059598684,0.04595149983651936,0.09963369998149574,0.09904759982600808,0.7514822001103312
RSVPLG03,sg,20251021-123503,1.0.1,20251020-085245,706,Experiment,Both,1,Automatic,main,27,20251021-123910,global,global,750,H,H,E,A,H-E.png,H-A.png,hH,hH,mask-4.png,mask-1.png,h,1,1.036749899853021,h,1,0.0727997999638319,0.047686100006103516,0.04831259977072477,0.10008749994449317,0.09959569992497563,0.7508797000627965
RSVPLG03,sg,20251021-123503,1.0.1,20251020-085245,706,Experiment,Both,1,Automatic,main,28,20251021-123915,local,local,300,S,S,A,E,A-S.png,E-S.png,sS,sS,mask-4.png,mask-3.png,s,1,1.289937499910593,s,1,0.10044039995409548,0.04867859999649227,0.045930600026622415,0.10069879982620478,0.09851210005581379,0.30128089990466833
RSVPLG03,sg,20251021-123503,1.0.1,20251020-085245,706,Experiment,Both,1,Automatic,main,29,20251021-123920,global,local,300,S,H,E,A,S-E.png,A-H.png,sS,hH,mask-4.png,mask-1.png,s,1,1.1070594999473542,h,1,0.5568413001019508,0.04777129995636642,0.046799799893051386,0.10052799992263317,0.10040110000409186,0.30089690000750124
RSVPLG03,sg,20251021-123503,1.0.1,20251020-085245,706,Experiment,Both,1,Automatic,main,30,20251021-123925,global,local,750,S,H,E,E,S-E.png,E-H.png,sS,hH,mask-3.png,mask-1.png,s,1,1.0390789001248777,s,0,0.09217160008847713,0.048296399880200624,0.04578269994817674,0.1012941999360919,0.09795550000853837,0.7519707998726517
RSVPLG03,sg,20251021-123503,1.0.1,20251020-085245,706,Experiment,Both,1,Automatic,main,31,20251021-123930,local,global,300,H,H,E,E,E-H.png,H-E.png,hH,hH,mask-2.png,mask-2.png,h,1,1.0506901000626385,h,1,0.23611439997330308,0.047361900098621845,0.04864900000393391,0.09904740005731583,0.10016710008494556,0.299315300071612
RSVPLG03,sg,20251021-123503,1.0.1,20251020-085245,706,Experiment,Both,1,Automatic,main,32,20251021-123935,global,local,300,H,H,A,A,H-A.png,A-H.png,hH,hH,mask-2.png,mask-3.png,h,1,1.557255599880591,h,1,0.07755319983698428,0.046667999820783734,0.04752329993061721,0.10027279984205961,0.10112460004165769,0.2992563999723643
RSVPLG03,sg,20251021-123503,1.0.1,20251020-085245,706,Experiment,Both,1,Automatic,main,33,20251021-123941,global,local,750,H,H,A,E,H-A.png,E-H.png,hH,hH,mask-1.png,mask-2.png,h,1,1.5140808001160622,h,1,0.06293389992788434,0.04694020003080368,0.047200199915096164,0.09923200006596744,0.1002121998462826,0.750690600136295
RSVPLG03,sg,20251021-123503,1.0.1,20251020-085245,706,Experiment,Both,1,Automatic,main,34,20251021-123946,global,global,300,S,S,A,E,S-A.png,S-E.png,sS,sS,mask-2.png,mask-3.png,h,0,1.3400883998256177,h,0,0.11916140001267195,0.0485532998573035,0.04872550000436604,0.10036369995214045,0.09924799995496869,0.30052249995060265
RSVPLG03,sg,20251021-123503,1.0.1,20251020-085245,706,Experiment,Both,1,Automatic,main,35,20251021-123951,global,local,300,S,S,A,E,S-A.png,E-S.png,sS,sS,mask-3.png,mask-1.png,s,1,1.8180545999202877,h,0,0.47216160013340414,0.04646449978463352,0.04743780009448528,0.10052699991501868,0.10035820002667606,0.2996993998531252
RSVPLG03,sg,20251021-123503,1.0.1,20251020-085245,706,Experiment,Both,1,Automatic,main,36,20251021-123957,global,global,750,S,S,A,A,S-A.png,S-A.png,sS,sS,mask-3.png,mask-2.png,s,1,1.0459652999415994,s,1,0.07167250011116266,0.04676380008459091,0.04578740010038018,0.09933599992655218,0.09839519998058677,0.7519543999806046
RSVPLG03,sg,20251021-123503,1.0.1,20251020-085245,706,Experiment,Both,1,Automatic,main,37,20251021-124002,local,local,300,H,S,E,A,E-H.png,A-S.png,hH,sS,mask-2.png,mask-3.png,h,1,2.0592660000547767,s,1,0.46220339997671545,0.049428500002250075,0.049269599840044975,0.10169890010729432,0.10173860006034374,0.3003593001049012
RSVPLG03,sg,20251021-123503,1.0.1,20251020-085245,706,Experiment,Both,1,Automatic,main,38,20251021-124009,global,local,300,S,S,E,A,S-E.png,A-S.png,sS,sS,mask-3.png,mask-1.png,s,1,1.749650500016287,s,1,0.11815210012719035,0.046887399861589074,0.04604519996792078,0.09894249984063208,0.09941519983112812,0.3005528999492526
RSVPLG03,sg,20251021-123503,1.0.1,20251020-085245,706,Experiment,Both,1,Automatic,main,39,20251021-124014,global,local,300,S,S,E,E,S-E.png,E-S.png,sS,sS,mask-1.png,mask-4.png,s,1,1.3811999999452382,h,0,0.6460913999471813,0.04873590008355677,0.04644090007059276,0.10105850012041628,0.09864350012503564,0.3021593999583274
RSVPLG03,sg,20251021-123503,1.0.1,20251020-085245,706,Experiment,Both,1,Automatic,main,40,20251021-124020,global,local,300,H,H,E,A,H-E.png,A-H.png,hH,hH,mask-2.png,mask-3.png,h,1,1.5693741999566555,s,0,0.24817749997600913,0.04736560001038015,0.04750330001115799,0.09932580008171499,0.10034010000526905,0.30005210009403527
RSVPLG03,sg,20251021-123503,1.0.1,20251020-085245,706,Experiment,Both,1,Automatic,main,41,20251021-124025,local,local,750,S,H,E,A,E-S.png,A-H.png,sS,hH,mask-3.png,mask-3.png,s,1,1.1304158999118954,s,0,0.26734059979207814,0.04651829996146262,0.04736689990386367,0.10076569998636842,0.09980229986831546,0.7517928001470864
RSVPLG03,sg,20251021-123503,1.0.1,20251020-085245,706,Experiment,Both,1,Automatic,main,42,20251021-124031,global,local,300,H,S,A,A,H-A.png,A-S.png,hH,sS,mask-4.png,mask-2.png,h,1,1.1626575000118464,s,1,0.8165821000002325,0.04788489989005029,0.048308199970051646,0.10049390001222491,0.09995770012028515,0.3004985998850316
RSVPLG03,sg,20251021-123503,1.0.1,20251020-085245,706,Experiment,Both,1,Automatic,main,43,20251021-124037,local,global,300,S,H,E,A,E-S.png,H-A.png,sS,hH,mask-1.png,mask-1.png,s,1,1.1602594000287354,h,1,0.6209986999165267,0.04872830002568662,0.04729099990800023,0.10129370004869998,0.10007539996877313,0.30146160000003874
RSVPLG03,sg,20251021-123503,1.0.1,20251020-085245,706,Experiment,Both,1,Automatic,main,44,20251021-124042,global,local,300,S,S,E,E,S-E.png,E-S.png,sS,sS,mask-3.png,mask-1.png,s,1,1.0292956000193954,h,0,0.4111806000582874,0.04840560001321137,0.04701879993081093,0.10036920011043549,0.09980480000376701,0.3012023000046611
RSVPLG03,sg,20251021-123503,1.0.1,20251020-085245,706,Experiment,Both,1,Automatic,main,45,20251021-124047,local,local,750,S,H,E,A,E-S.png,A-H.png,sS,hH,mask-2.png,mask-2.png,s,1,1.1627736000809819,h,1,0.5673953001387417,0.046729099936783314,0.048134799813851714,0.09974429989233613,0.09887369978241622,0.7515018000267446
RSVPLG03,sg,20251021-123503,1.0.1,20251020-085245,706,Experiment,Both,1,Automatic,main,46,20251021-124053,global,global,750,S,S,A,E,S-A.png,S-E.png,sS,sS,mask-2.png,mask-1.png,s,1,1.151031699962914,h,0,0.49302149983122945,0.04786440008319914,0.04592099995352328,0.09993010014295578,0.09954750002361834,0.7516392001416534
RSVPLG03,sg,20251021-123503,1.0.1,20251020-085245,706,Experiment,Both,1,Automatic,main,47,20251021-124059,local,global,750,H,H,E,A,E-H.png,H-A.png,hH,hH,mask-2.png,mask-1.png,h,1,1.3856702998746186,s,0,0.4912638000678271,0.04721880005672574,0.047266799956560135,0.10145259997807443,0.10092339990660548,0.7513699000701308
RSVPLG03,sg,20251021-123503,1.0.1,20251020-085245,706,Experiment,Both,1,Automatic,main,48,20251021-124105,global,global,300,S,H,A,E,S-A.png,H-E.png,sS,hH,mask-4.png,mask-4.png,s,1,1.7497360000852495,h,1,0.7326008998788893,0.04861399997025728,0.04862449993379414,0.10133019997738302,0.10130529990419745,0.29999820003286004
RSVPLG03,sg,20251021-123503,1.0.1,20251020-085245,706,Experiment,Both,1,Automatic,main,49,20251021-124111,local,global,750,S,H,A,E,A-S.png,H-E.png,sS,hH,mask-4.png,mask-2.png,s,1,1.1714260999578983,h,1,0.45959069998934865,0.048541200114414096,0.04760099994018674,0.09896819991990924,0.10033950000070035,0.7508179000578821
RSVPLG03,sg,20251021-123503,1.0.1,20251020-085245,706,Experiment,Both,1,Automatic,main,50,20251021-124117,local,local,750,S,S,E,A,E-S.png,A-S.png,sS,sS,mask-4.png,mask-4.png,s,1,1.5074131998699158,h,0,0.8881348997820169,0.047810700023546815,0.048521799966692924,0.10017020022496581,0.10105800000019372,0.749854400055483
RSVPLG03,sg,20251021-123503,1.0.1,20251020-085245,706,Experiment,Both,1,Automatic,main,51,20251021-124126,local,local,300,S,S,A,A,A-S.png,A-S.png,sS,sS,mask-3.png,mask-1.png,s,1,1.315381599823013,h,0,0.7182210998144001,0.04714959999546409,0.04778030002489686,0.10032750014215708,0.10019030002877116,0.299384200014174
RSVPLG03,sg,20251021-123503,1.0.1,20251020-085245,706,Experiment,Both,1,Automatic,main,52,20251021-124132,global,global,300,S,H,E,E,S-E.png,H-E.png,sS,hH,mask-2.png,mask-4.png,s,1,1.743246000027284,h,1,0.680358299985528,0.04586950014345348,0.047377899987623096,0.09957069996744394,0.09944960009306669,0.3003227000590414
RSVPLG03,sg,20251021-123503,1.0.1,20251020-085245,706,Experiment,Both,1,Automatic,main,53,20251021-124138,global,local,750,H,H,A,A,H-A.png,A-H.png,hH,hH,mask-4.png,mask-1.png,h,1,1.3033729000017047,s,0,0.6568428999744356,0.0472870001103729,0.047081900062039495,0.09966449998319149,0.09969890001229942,0.751432100078091
RSVPLG03,sg,20251021-123503,1.0.1,20251020-085245,706,Experiment,Both,1,Automatic,main,54,20251021-124144,local,local,300,S,S,A,E,A-S.png,E-S.png,sS,sS,mask-2.png,mask-1.png,h,0,1.4259401001036167,s,1,0.5755621001590043,0.04710539989173412,0.04697389993816614,0.09947329992428422,0.09960630000568926,0.2999267999548465
RSVPLG03,sg,20251021-123503,1.0.1,20251020-085245,706,Experiment,Both,1,Automatic,main,55,20251021-124150,global,global,750,S,H,A,E,S-A.png,H-E.png,sS,hH,mask-4.png,mask-2.png,s,1,1.308057599933818,h,1,0.5915669999085367,0.04943239991553128,0.047799100168049335,0.10144809982739389,0.10058900015428662,0.7514445998240262
RSVPLG03,sg,20251021-123503,1.0.1,20251020-085245,706,Experiment,Both,1,Automatic,main,56,20251021-124156,local,global,300,H,S,A,A,A-H.png,S-A.png,hH,sS,mask-1.png,mask-4.png,h,1,1.2554595998954028,s,1,0.6417513999622315,0.04806269984692335,0.04850460006855428,0.10095759993419051,0.10021229996345937,0.29996489989571273
RSVPLG03,sg,20251021-123503,1.0.1,20251020-085245,706,Experiment,Both,1,Automatic,main,57,20251021-124202,local,global,750,S,H,A,A,A-S.png,H-A.png,sS,hH,mask-4.png,mask-2.png,s,1,1.8812581000383943,h,1,0.6652067999821156,0.04937130003236234,0.046286100056022406,0.10160099994391203,0.09963369998149574,0.7523211999796331
RSVPLG03,sg,20251021-123503,1.0.1,20251020-085245,706,Experiment,Both,1,Automatic,main,58,20251021-124208,local,local,300,S,H,E,E,E-S.png,E-H.png,sS,hH,mask-2.png,mask-4.png,s,1,1.7395355999469757,h,1,0.7903255999553949,0.04711980000138283,0.0473000998608768,0.09971350012347102,0.10062629985623062,0.3000158001668751
RSVPLG03,sg,20251021-123503,1.0.1,20251020-085245,706,Experiment,Both,1,Automatic,main,59,20251021-124215,local,local,300,S,S,E,E,E-S.png,E-S.png,sS,sS,mask-1.png,mask-1.png,s,1,1.1567373999860138,h,0,0.579337399918586,0.04750370001420379,0.04721570014953613,0.10135930008254945,0.10115230013616383,0.30020419997163117
RSVPLG03,sg,20251021-123503,1.0.1,20251020-085245,706,Experiment,Both,1,Automatic,main,60,20251021-124220,local,local,300,S,H,E,E,E-S.png,E-H.png,sS,hH,mask-1.png,mask-2.png,s,1,1.1764150999952108,h,1,0.5838709999807179,0.04670180007815361,0.046674700221046805,0.10054300003685057,0.09926590020768344,0.3007254998665303
RSVPLG03,sg,20251021-123503,1.0.1,20251020-085245,706,Experiment,Both,1,Automatic,main,61,20251021-124225,global,local,300,S,S,E,E,S-E.png,E-S.png,sS,sS,mask-2.png,mask-3.png,s,1,1.2329231000039726,h,0,0.4562514000572264,0.04778680019080639,0.047063699923455715,0.10003970004618168,0.09831640007905662,0.3014629001263529
RSVPLG03,sg,20251021-123503,1.0.1,20251020-085245,706,Experiment,Both,1,Automatic,main,62,20251021-124231,local,global,300,H,S,A,A,A-H.png,S-A.png,hH,sS,mask-1.png,mask-2.png,s,0,1.2600767000112683,h,0,0.5542244000826031,0.04958579991944134,0.04713000007905066,0.100690099876374,0.10045350017026067,0.3010437998455018
RSVPLG03,sg,20251021-123503,1.0.1,20251020-085245,706,Experiment,Both,1,Automatic,main,63,20251021-124236,global,global,300,H,H,A,E,H-A.png,H-E.png,hH,hH,mask-4.png,mask-4.png,h,1,1.0446499998215586,h,1,0.956280899932608,0.04631080012768507,0.04748840001411736,0.09868820011615753,0.09939360013231635,0.3006154999602586
RSVPLG03,sg,20251021-123503,1.0.1,20251020-085245,706,Experiment,Both,1,Automatic,main,64,20251021-124242,global,local,300,H,S,A,E,H-A.png,E-S.png,hH,sS,mask-2.png,mask-1.png,h,1,1.2335423999466002,h,0,0.12624310003593564,0.048855199944227934,0.04838739987462759,0.1017499000299722,0.10075280000455678,0.3003006000071764
RSVPLG03,sg,20251021-123503,1.0.1,20251020-085245,706,Experiment,Both,1,Automatic,main,65,20251021-124247,global,local,750,H,H,E,A,H-E.png,A-H.png,hH,hH,mask-4.png,mask-2.png,h,1,0.6173072000965476,h,1,0.3030836000107229,0.04628699994646013,0.046591500053182244,0.09855480003170669,0.09938010014593601,0.7503789998590946
RSVPLG03,sg,20251021-123503,1.0.1,20251020-085245,706,Experiment,Both,1,Automatic,main,66,20251021-124252,local,local,750,H,H,E,A,E-H.png,A-H.png,hH,hH,mask-4.png,mask-1.png,h,1,1.109950999962166,h,1,2.0158726000227034,0.048044699942693114,0.04769559996202588,0.10009490000084043,0.10193359991535544,0.7506260999944061
RSVPLG03,sg,20251021-123503,1.0.1,20251020-085245,706,Experiment,Both,1,Automatic,main,67,20251021-124259,global,global,300,S,S,E,A,S-E.png,S-A.png,sS,sS,mask-1.png,mask-3.png,h,0,2.4121199999935925,s,1,0.9057827000506222,0.04611540003679693,0.04709730017930269,0.09861900005489588,0.09921560017392039,0.29998139990493655
RSVPLG03,sg,20251021-123503,1.0.1,20251020-085245,706,Experiment,Both,1,Automatic,main,68,20251021-124306,local,local,300,H,S,A,E,A-H.png,E-S.png,hH,sS,mask-2.png,mask-1.png,s,0,1.950115199899301,s,1,0.0857893000356853,0.047913300106301904,0.04951689997687936,0.10146789997816086,0.10153959994204342,0.3002328001894057
RSVPLG03,sg,20251021-123503,1.0.1,20251020-085245,706,Experiment,Both,1,Automatic,main,69,20251021-124312,global,global,300,S,S,A,A,S-A.png,S-A.png,sS,sS,mask-2.png,mask-4.png,s,1,1.1822647999506444,h,0,0.8754626999143511,0.048447499983012676,0.047024899860844016,0.1007957998663187,0.09961199993267655,0.301067000022158
RSVPLG03,sg,20251021-123503,1.0.1,20251020-085245,706,Experiment,Both,1,Automatic,main,70,20251021-124318,local,global,300,H,S,E,A,E-H.png,S-A.png,hH,sS,mask-2.png,mask-2.png,s,0,1.5174264998640865,h,0,11.928032499970868,0.048115700017660856,0.047543499851599336,0.10232799989171326,0.10074709984473884,0.3010895000770688
RSVPLG03,sg,20251021-123503,1.0.1,20251020-085245,706,Experiment,Both,1,Automatic,main,71,20251021-124335,local,local,750,H,H,A,E,A-H.png,E-H.png,hH,hH,mask-4.png,mask-2.png,s,0,1.3861185999121517,h,1,1.2589284998830408,0.04744510003365576,0.047988800099119544,0.0997403000947088,0.10126150003634393,0.7511670999228954
RSVPLG03,sg,20251021-123503,1.0.1,20251020-085245,706,Experiment,Both,1,Automatic,main,72,20251021-124342,local,global,750,H,S,E,E,E-H.png,S-E.png,hH,sS,mask-2.png,mask-2.png,s,0,1.6111256999429315,h,0,1.3173559999559075,0.04591899993829429,0.04698609979823232,0.09928129985928535,0.09984379983507097,0.7499293000437319
RSVPLG03,sg,20251021-123503,1.0.1,20251020-085245,706,Experiment,Both,1,Automatic,main,73,20251021-124349,local,global,300,S,H,A,E,A-S.png,H-E.png,sS,hH,mask-1.png,mask-4.png,s,1,1.3142553998623043,h,1,0.8713062000460923,0.04837279999628663,0.048360600136220455,0.09973109979182482,0.1003703000023961,0.3004357998725027
RSVPLG03,sg,20251021-123503,1.0.1,20251020-085245,706,Experiment,Both,1,Automatic,main,74,20251021-124355,global,local,750,H,H,E,A,H-E.png,A-H.png,hH,hH,mask-1.png,mask-2.png,h,1,1.0271506002172828,h,1,0.08538850001059473,0.048175200121477246,0.04652179987169802,0.10134850000031292,0.09841129998676479,0.752722900127992
RSVPLG03,sg,20251021-123503,1.0.1,20251020-085245,706,Experiment,Both,1,Automatic,main,75,20251021-124400,local,global,750,S,H,A,A,A-S.png,H-A.png,sS,hH,mask-4.png,mask-2.png,s,1,1.3533048999961466,h,1,0.5024401999544352,0.04748379997909069,0.0468083000741899,0.10044619999825954,0.09945049998350441,0.7510281000286341
RSVPLG03,sg,20251021-123503,1.0.1,20251020-085245,706,Experiment,Both,1,Automatic,main,76,20251021-124409,local,global,750,S,S,E,A,E-S.png,S-A.png,sS,sS,mask-3.png,mask-3.png,s,1,1.2148413001559675,s,1,0.14326949999667704,0.046641199849545956,0.049260699888691306,0.09990469994954765,0.10203749989159405,0.749448399990797
RSVPLG03,sg,20251021-123503,1.0.1,20251020-085245,706,Experiment,Both,1,Automatic,main,77,20251021-124415,global,global,750,S,H,A,E,S-A.png,H-E.png,sS,hH,mask-2.png,mask-3.png,s,1,1.2025913000106812,h,1,0.7698100998532027,0.046428600093349814,0.0468660001643002,0.1001408000010997,0.09939680015668273,0.7507581999525428
RSVPLG03,sg,20251021-123503,1.0.1,20251020-085245,706,Experiment,Both,1,Automatic,main,78,20251021-124421,global,local,300,H,H,A,A,H-A.png,A-H.png,hH,hH,mask-1.png,mask-4.png,h,1,1.2383838000241667,h,1,0.09724649996496737,0.04828329989686608,0.046536599984392524,0.09997569979168475,0.09863710007630289,0.30092179984785616
RSVPLG03,sg,20251021-123503,1.0.1,20251020-085245,706,Experiment,Both,1,Automatic,main,79,20251021-124426,global,global,300,S,H,A,A,S-A.png,H-A.png,sS,hH,mask-4.png,mask-1.png,s,1,1.209510600194335,h,1,0.7475097998976707,0.047173500061035156,0.046801700023934245,0.09948879992589355,0.09929440007545054,0.30098429997451603
RSVPLG03,sg,20251021-123503,1.0.1,20251020-085245,706,Experiment,Both,1,Automatic,main,80,20251021-124431,global,local,750,H,S,E,A,H-E.png,A-S.png,hH,sS,mask-2.png,mask-2.png,h,1,1.058574500028044,h,0,0.13967849989421666,0.04695319989696145,0.04775779996998608,0.09983520000241697,0.10078109987080097,0.7500108999665827
RSVPLG03,sg,20251021-123503,1.0.1,20251020-085245,706,Experiment,Both,1,Automatic,main,81,20251021-124437,local,global,300,S,H,E,A,E-S.png,H-A.png,sS,hH,mask-4.png,mask-3.png,s,1,1.2922978999558836,h,1,0.6566712001804262,0.04726479994133115,0.04876710008829832,0.0992904999293387,0.1007164001930505,0.2993885998148471
RSVPLG03,sg,20251021-123503,1.0.1,20251020-085245,706,Experiment,Both,1,Automatic,main,82,20251021-124442,global,global,750,H,S,E,E,H-E.png,S-E.png,hH,sS,mask-4.png,mask-1.png,s,0,1.4306059000082314,s,1,0.1193627999164164,0.04656879999674857,0.047786599956452847,0.0997629000339657,0.09904390014708042,0.7502959999255836
RSVPLG03,sg,20251021-123503,1.0.1,20251020-085245,706,Experiment,Both,1,Automatic,main,83,20251021-124448,global,global,300,S,S,A,A,S-A.png,S-A.png,sS,sS,mask-4.png,mask-4.png,s,1,1.1154457000084221,s,1,0.1112554999999702,0.047557299956679344,0.0481708999723196,0.09953110013157129,0.10003639990463853,0.29975630016997457
RSVPLG03,sg,20251021-123503,1.0.1,20251020-085245,706,Experiment,Both,1,Automatic,main,84,20251021-124453,local,local,750,S,H,A,E,A-S.png,E-H.png,sS,hH,mask-3.png,mask-1.png,s,1,1.1926993001252413,h,1,0.6660962000023574,0.04705349984578788,0.04715640004724264,0.09966499987058342,0.10171880014240742,0.7505178998690099
RSVPLG03,sg,20251021-123503,1.0.1,20251020-085245,706,Experiment,Both,1,Automatic,main,85,20251021-124459,global,global,750,H,S,A,A,H-A.png,S-A.png,hH,sS,mask-1.png,mask-4.png,s,0,1.2090126001276076,s,1,1.1136443999130279,0.0461584001313895,0.046829399885609746,0.10022100014612079,0.10073180007748306,0.7507420000620186
RSVPLG03,sg,20251021-123503,1.0.1,20251020-085245,706,Experiment,Both,1,Automatic,main,86,20251021-124505,global,local,750,H,H,A,A,H-A.png,A-H.png,hH,hH,mask-2.png,mask-1.png,h,1,1.302079499932006,h,1,1.9364161000121385,0.046794400084763765,0.04762619989924133,0.09943030006252229,0.09898509993217885,0.7511683001648635
RSVPLG03,sg,20251021-123503,1.0.1,20251020-085245,706,Experiment,Both,1,Automatic,main,87,20251021-124513,local,global,300,H,H,A,A,A-H.png,H-A.png,hH,hH,mask-2.png,mask-2.png,h,1,1.5791847999207675,s,0,0.47931239986792207,0.04842619993723929,0.04757599998265505,0.1014384999871254,0.0999474001582712,0.3008520998992026
RSVPLG03,sg,20251021-123503,1.0.1,20251020-085245,706,Experiment,Both,1,Automatic,main,88,20251021-124519,global,global,300,S,H,A,E,S-A.png,H-E.png,sS,hH,mask-1.png,mask-2.png,s,1,1.821898200083524,h,1,0.8635509999003261,0.04644499998539686,0.04781599994748831,0.09987609996460378,0.10045369993895292,0.29967580013908446
RSVPLG03,sg,20251021-123503,1.0.1,20251020-085245,706,Experiment,Both,1,Automatic,main,89,20251021-124525,global,global,750,S,S,E,E,S-E.png,S-E.png,sS,sS,mask-3.png,mask-4.png,s,1,1.1252921998966485,s,1,0.08745340001769364,0.04607959999702871,0.04807070014066994,0.1003375998698175,0.10199630004353821,0.7493280998896807
RSVPLG03,sg,20251021-123503,1.0.1,20251020-085245,706,Experiment,Both,1,Automatic,main,90,20251021-124531,local,local,300,H,H,A,A,A-H.png,A-H.png,hH,hH,mask-3.png,mask-4.png,s,0,1.4113300999160856,h,1,0.7913305000402033,0.049113300163298845,0.04602880007587373,0.10071170004084706,0.09950140002183616,0.3017017000820488
RSVPLG03,sg,20251021-123503,1.0.1,20251020-085245,706,Experiment,Both,1,Automatic,main,91,20251021-124536,local,local,750,S,H,E,E,E-S.png,E-H.png,sS,hH,mask-4.png,mask-1.png,s,1,1.388330299872905,h,1,0.682449100073427,0.0486546999309212,0.0478986999951303,0.10087059997022152,0.10020490013994277,0.7515258998610079
RSVPLG03,sg,20251021-123503,1.0.1,20251020-085245,706,Experiment,Both,1,Automatic,main,92,20251021-124543,local,local,750,S,H,E,A,E-S.png,A-H.png,sS,hH,mask-3.png,mask-4.png,s,1,0.9741642000153661,h,1,0.5283186000306159,0.04694300005212426,0.04617269989103079,0.10035080020315945,0.09937499999068677,0.7507906001992524
RSVPLG03,sg,20251021-123503,1.0.1,20251020-085245,706,Experiment,Both,1,Automatic,main,93,20251021-124548,global,global,300,H,S,E,E,H-E.png,S-E.png,hH,sS,mask-4.png,mask-1.png,s,0,1.2992581001017243,h,0,0.6747210000175983,0.04726150003261864,0.04869329999201,0.10093769989907742,0.10065330006182194,0.30088429991155863
RSVPLG03,sg,20251021-123503,1.0.1,20251020-085245,706,Experiment,Both,1,Automatic,main,94,20251021-124554,global,local,750,S,S,E,A,S-E.png,A-S.png,sS,sS,mask-2.png,mask-3.png,s,1,1.0623002999927849,h,0,0.5679090998601168,0.047517200000584126,0.047189699951559305,0.10038750013336539,0.09989829990081489,0.7512070001102984
RSVPLG03,sg,20251021-123503,1.0.1,20251020-085245,706,Experiment,Both,1,Automatic,main,95,20251021-124600,global,local,750,H,S,E,E,H-E.png,E-S.png,hH,sS,mask-4.png,mask-2.png,s,0,1.040238899877295,s,1,0.12614469998516142,0.04863100009970367,0.047314299969002604,0.10100960009731352,0.09901400003582239,0.7523321001790464
RSVPLG03,sg,20251021-123503,1.0.1,20251020-085245,706,Experiment,Both,1,Automatic,main,96,20251021-124605,global,global,300,S,S,E,E,S-E.png,S-E.png,sS,sS,mask-1.png,mask-4.png,s,1,2.5693618999794126,s,1,0.1888135001063347,0.04756600013934076,0.047136399894952774,0.1002806001342833,0.09868910000659525,0.30138760013505816
RSVPLG03,sg,20251021-123503,1.0.1,20251020-085245,706,Experiment,Both,1,Automatic,main,97,20251021-124612,local,global,300,H,S,A,A,A-H.png,S-A.png,hH,sS,mask-1.png,mask-1.png,h,1,2.4305513000581414,s,1,1.0723278999794275,0.04790190001949668,0.04583570011891425,0.0997021000366658,0.09845330007374287,0.30131560005247593
RSVPLG03,sg,20251021-123503,1.0.1,20251020-085245,706,Experiment,Both,1,Automatic,main,98,20251021-124619,local,global,300,S,S,E,A,E-S.png,S-A.png,sS,sS,mask-4.png,mask-2.png,h,0,1.25997079978697,s,1,0.5576122999191284,0.04794050008058548,0.047991300001740456,0.09949350007809699,0.10058160009793937,0.3002400000113994
RSVPLG03,sg,20251021-123503,1.0.1,20251020-085245,706,Experiment,Both,1,Automatic,main,99,20251021-124624,local,global,300,S,H,E,A,E-S.png,H-A.png,sS,hH,mask-3.png,mask-2.png,s,1,1.0253436998464167,h,1,0.7163190999999642,0.046859499998390675,0.04968590009957552,0.10021999990567565,0.10209230007603765,0.29888979997485876
RSVPLG03,sg,20251021-123503,1.0.1,20251020-085245,706,Experiment,Both,1,Automatic,main,100,20251021-124630,global,local,300,H,S,A,E,H-A.png,E-S.png,hH,sS,mask-2.png,mask-4.png,h,1,1.3907329000066966,s,1,0.5969287999905646,0.04595759999938309,0.04791870014742017,0.09967719996348023,0.09872790006920695,0.30050849984399974
RSVPLG03,sg,20251021-123503,1.0.1,20251020-085245,706,Experiment,Both,1,Automatic,main,101,20251021-124639,global,global,750,H,S,A,A,H-A.png,S-A.png,hH,sS,mask-3.png,mask-2.png,h,1,1.1647173000965267,s,1,0.3630335999187082,0.04657160001806915,0.04802810004912317,0.1004802999086678,0.09982400014996529,0.7510158999357373
RSVPLG03,sg,20251021-123503,1.0.1,20251020-085245,706,Experiment,Both,1,Automatic,main,102,20251021-124645,local,global,300,S,H,A,E,A-S.png,H-E.png,sS,hH,mask-2.png,mask-1.png,s,1,1.16135110007599,h,1,0.6351721999235451,0.04824370006099343,0.047933200141415,0.09991910005919635,0.10045250016264617,0.2994399999734014
RSVPLG03,sg,20251021-123503,1.0.1,20251020-085245,706,Experiment,Both,1,Automatic,main,103,20251021-124651,local,global,300,H,H,E,A,E-H.png,H-A.png,hH,hH,mask-1.png,mask-4.png,h,1,1.3303052000701427,s,0,0.5222199999261647,0.04837129986844957,0.04709000000730157,0.10061999992467463,0.10013949987478554,0.30064340005628765
RSVPLG03,sg,20251021-123503,1.0.1,20251020-085245,706,Experiment,Both,1,Automatic,main,104,20251021-124656,global,global,750,S,H,A,A,S-A.png,H-A.png,sS,hH,mask-2.png,mask-4.png,s,1,1.4138651001267135,h,1,0.7434419998899102,0.05003380007110536,0.04712469992227852,0.10175040015019476,0.09952290006913245,0.7522257000673562
RSVPLG03,sg,20251021-123503,1.0.1,20251020-085245,706,Experiment,Both,1,Automatic,main,105,20251021-124702,global,global,750,S,S,E,E,S-E.png,S-E.png,sS,sS,mask-4.png,mask-4.png,s,1,1.0345085998997092,s,1,0.08933370001614094,0.04908959986642003,0.04758629994466901,0.10228240001015365,0.10076970001682639,0.7516634999774396
RSVPLG03,sg,20251021-123503,1.0.1,20251020-085245,706,Experiment,Both,1,Automatic,main,106,20251021-124708,local,local,750,S,S,E,A,E-S.png,A-S.png,sS,sS,mask-4.png,mask-4.png,s,1,1.0690117001067847,s,1,0.07342849997803569,0.0482920000795275,0.047500599874183536,0.1006735002156347,0.09929829998873174,0.7532406002283096
RSVPLG03,sg,20251021-123503,1.0.1,20251020-085245,706,Experiment,Both,1,Automatic,main,107,20251021-124713,global,local,750,H,S,A,E,H-A.png,E-S.png,hH,sS,mask-1.png,mask-4.png,s,0,1.2764181999955326,h,0,0.8804706998635083,0.046954400138929486,0.049336700001731515,0.0995803999248892,0.10036000004038215,0.74950490007177
RSVPLG03,sg,20251021-123503,1.0.1,20251020-085245,706,Experiment,Both,1,Automatic,main,108,20251021-124719,global,global,300,H,S,A,A,H-A.png,S-A.png,hH,sS,mask-1.png,mask-2.png,h,1,1.4966993001289666,s,1,0.5269953000824898,0.047786499839276075,0.04677890008315444,0.09987769997678697,0.10021480009891093,0.30033749993890524
RSVPLG03,sg,20251021-123503,1.0.1,20251020-085245,706,Experiment,Both,1,Automatic,main,109,20251021-124725,global,local,300,S,S,E,A,S-E.png,A-S.png,sS,sS,mask-4.png,mask-4.png,s,1,1.2294486998580396,s,1,0.09678740007802844,0.04799790005199611,0.04749089991673827,0.10053139994852245,0.09928840002976358,0.3003851000685245
RSVPLG03,sg,20251021-123503,1.0.1,20251020-085245,706,Experiment,Both,1,Automatic,main,110,20251021-124730,global,global,750,S,S,E,A,S-E.png,S-A.png,sS,sS,mask-3.png,mask-4.png,h,0,2.1041856999509037,h,0,0.10628659999929368,0.047363199992105365,0.04761580005288124,0.09935909998603165,0.09959480003453791,0.7507750999648124
RSVPLG03,sg,20251021-123503,1.0.1,20251020-085245,706,Experiment,Both,1,Automatic,main,111,20251021-124736,local,local,750,S,H,E,E,E-S.png,E-H.png,sS,hH,mask-4.png,mask-2.png,s,1,1.1153337999712676,s,0,0.07162990001961589,0.047147300094366074,0.047619499964639544,0.09987800009548664,0.10018639988265932,0.7512856000103056
RSVPLG03,sg,20251021-123503,1.0.1,20251020-085245,706,Experiment,Both,1,Automatic,main,112,20251021-124741,local,global,750,S,H,A,A,A-S.png,H-A.png,sS,hH,mask-3.png,mask-4.png,s,1,1.0248823000583798,h,1,0.7592484999913722,0.04667690000496805,0.047061799792572856,0.09879530011676252,0.10012029996141791,0.7494974001310766
RSVPLG03,sg,20251021-123503,1.0.1,20251020-085245,706,Experiment,Both,1,Automatic,main,113,20251021-124747,local,global,750,S,H,A,E,A-S.png,H-E.png,sS,hH,mask-1.png,mask-1.png,s,1,1.0839146000798792,h,1,0.7270783998537809,0.046523400116711855,0.0477352999150753,0.09856990003027022,0.09898719983175397,0.750850000185892
RSVPLG03,sg,20251021-123503,1.0.1,20251020-085245,706,Experiment,Both,1,Automatic,main,114,20251021-124753,local,global,750,S,S,A,A,A-S.png,S-A.png,sS,sS,mask-4.png,mask-1.png,s,1,0.9910758999176323,h,0,0.6208763001486659,0.0456884999293834,0.04843359999358654,0.09993389993906021,0.10142390010878444,0.7489899999927729
RSVPLG03,sg,20251021-123503,1.0.1,20251020-085245,706,Experiment,Both,1,Automatic,main,115,20251021-124759,global,global,300,S,H,E,E,S-E.png,H-E.png,sS,hH,mask-4.png,mask-3.png,h,0,4.179618800058961,s,0,1.4637164999730885,0.047072599874809384,0.046343799913302064,0.10005939984694123,0.09901859983801842,0.3007424999959767
RSVPLG03,sg,20251021-123503,1.0.1,20251020-085245,706,Experiment,Both,1,Automatic,main,116,20251021-124808,local,local,750,S,H,A,E,A-S.png,E-H.png,sS,hH,mask-3.png,mask-3.png,h,0,1.3765765000134706,s,0,0.5894629000686109,0.04868669994175434,0.04718440002761781,0.10145620000548661,0.10062629985623062,0.7521083001047373
RSVPLG03,sg,20251021-123503,1.0.1,20251020-085245,706,Experiment,Both,1,Automatic,main,117,20251021-124814,local,local,750,S,H,E,A,E-S.png,A-H.png,sS,hH,mask-4.png,mask-4.png,s,1,1.0610261999536306,s,0,0.09093940001912415,0.0489766001701355,0.04750879993662238,0.10005270014517009,0.09933379990980029,0.7514765001833439
RSVPLG03,sg,20251021-123503,1.0.1,20251020-085245,706,Experiment,Both,1,Automatic,main,118,20251021-124820,local,global,750,S,S,E,A,E-S.png,S-A.png,sS,sS,mask-3.png,mask-1.png,s,1,1.1601845000404865,s,1,0.3095803000032902,0.048502800054848194,0.0476645000744611,0.0992900999262929,0.09976190002635121,0.752006399910897
RSVPLG03,sg,20251021-123503,1.0.1,20251020-085245,706,Experiment,Both,1,Automatic,main,119,20251021-124825,global,local,750,S,S,E,A,S-E.png,A-S.png,sS,sS,mask-2.png,mask-2.png,s,1,1.3825711000245064,h,0,0.6996552001219243,0.047383599914610386,0.04833130002953112,0.09970899997279048,0.10050119995139539,0.7499307000543922
RSVPLG03,sg,20251021-123503,1.0.1,20251020-085245,706,Experiment,Both,1,Automatic,main,120,20251021-124831,global,global,750,S,H,A,E,S-A.png,H-E.png,sS,hH,mask-4.png,mask-1.png,s,1,1.3555518998764455,h,1,2.0942788999527693,0.04849880002439022,0.04683350003324449,0.10096609988249838,0.09890040010213852,0.7518747998401523
RSVPLG03,sg,20251021-123503,1.0.1,20251020-085245,706,Experiment,Both,1,Automatic,main,121,20251021-124839,local,global,300,H,H,A,E,A-H.png,H-E.png,hH,hH,mask-4.png,mask-2.png,h,1,1.4799827998504043,h,1,0.09499199991114438,0.04739490011706948,0.04694280005060136,0.10030900011770427,0.09945519990287721,0.30073080002330244
RSVPLG03,sg,20251021-123503,1.0.1,20251020-085245,706,Experiment,Both,1,Automatic,main,122,20251021-124844,local,global,750,H,S,A,A,A-H.png,S-A.png,hH,sS,mask-3.png,mask-1.png,h,1,0.9308780001010746,s,1,0.4318595000077039,0.04648840008303523,0.04711330006830394,0.09906579996459186,0.10167329991236329,0.7497046000789851
RSVPLG03,sg,20251021-123503,1.0.1,20251020-085245,706,Experiment,Both,1,Automatic,main,123,20251021-124850,local,global,300,S,S,A,A,A-S.png,S-A.png,sS,sS,mask-2.png,mask-3.png,h,0,1.386311599984765,s,1,0.6957178001757711,0.048348400043323636,0.04850510018877685,0.09949369984678924,0.1015968001447618,0.2997881998308003
RSVPLG03,sg,20251021-123503,1.0.1,20251020-085245,706,Experiment,Both,1,Automatic,main,124,20251021-124856,local,local,300,S,S,E,E,E-S.png,E-S.png,sS,sS,mask-3.png,mask-4.png,h,0,2.1533898001071066,s,1,0.6257277000695467,0.048785499995574355,0.045438299886882305,0.10090399999171495,0.09794780006632209,0.3016770000103861
RSVPLG03,sg,20251021-123503,1.0.1,20251020-085245,706,Experiment,Both,1,Automatic,main,125,20251021-124902,local,local,750,H,S,E,E,E-H.png,E-S.png,hH,sS,mask-4.png,mask-2.png,h,1,1.3735766001045704,s,1,0.5712726998608559,0.047668399987742305,0.048252500128000975,0.10113189998082817,0.09940479998476803,0.7511962000280619
RSVPLG03,sg,20251021-125017,1.0.1,20251020-085245,706,Experiment,Both,1,Automatic,warmup,1,20251021-125049,global,global,300,S,H,A,A,S-A.png,H-A.png,sS,hH,mask-4.png,mask-2.png,s,1,3.0460278000682592,h,1,1.0986907999031246,0.044064899906516075,0.04904059995897114,0.09796810010448098,0.10135259991511703,0.29619110003113747
RSVPLG03,sg,20251021-125017,1.0.1,20251020-085245,706,Experiment,Both,1,Automatic,warmup,2,20251021-125057,local,local,300,S,S,E,A,E-S.png,A-S.png,sS,sS,mask-1.png,mask-1.png,s,1,1.2105054999701679,h,0,1.181924399919808,0.046861100010573864,0.04819500003941357,0.09932720009237528,0.09983339998871088,0.2986526000313461
RSVPLG03,sg,20251021-125017,1.0.1,20251020-085245,706,Experiment,Both,1,Automatic,warmup,3,20251021-125103,global,global,750,H,H,A,A,H-A.png,H-A.png,hH,hH,mask-3.png,mask-1.png,h,1,1.2057630000635982,h,1,0.08908380009233952,0.04696430009789765,0.04859349993057549,0.10131360008381307,0.09978819987736642,0.7511893000919372
RSVPLG03,sg,20251021-125017,1.0.1,20251020-085245,706,Experiment,Both,1,Automatic,warmup,4,20251021-125108,local,global,750,S,H,E,A,E-S.png,H-A.png,sS,hH,mask-1.png,mask-3.png,s,1,1.2066887998953462,h,1,0.6069002000149339,0.04708839999511838,0.04788949992507696,0.09955039992928505,0.10124280001036823,0.7488983001094311
RSVPLG03,sg,20251021-125017,1.0.1,20251020-085245,706,Experiment,Both,1,Automatic,warmup,5,20251021-125114,global,local,300,H,S,E,E,H-E.png,E-S.png,hH,sS,mask-2.png,mask-1.png,h,1,1.0728573000524193,h,0,0.09379400010220706,0.0471665000077337,0.04904419998638332,0.10080130002461374,0.10193799994885921,0.2993039998691529
RSVPLG03,sg,20251021-125017,1.0.1,20251020-085245,706,Experiment,Both,1,Automatic,main,6,20251021-125119,local,local,300,S,S,A,E,A-S.png,E-S.png,sS,sS,mask-1.png,mask-1.png,h,0,1.4236278999596834,s,1,1.100710399914533,0.04712260002270341,0.04728959989733994,0.10001130006276071,0.0999984999652952,0.3011370000895113
RSVPLG03,sg,20251021-125017,1.0.1,20251020-085245,706,Experiment,Both,1,Automatic,main,7,20251021-125125,global,global,750,H,S,E,A,H-E.png,S-A.png,hH,sS,mask-3.png,mask-1.png,h,1,1.3769743000157177,s,1,0.7451438999269158,0.047489400021731853,0.04882489982992411,0.09841440012678504,0.10050359996967018,0.7488832001108676
RSVPLG03,sg,20251021-125017,1.0.1,20251020-085245,706,Experiment,Both,1,Automatic,main,8,20251021-125132,global,local,750,S,S,A,E,S-A.png,E-S.png,sS,sS,mask-1.png,mask-4.png,h,0,1.3380899999756366,s,1,0.8779663001187146,0.046675499994307756,0.046997199999168515,0.09808719996362925,0.10089519992470741,0.7487910001073033
RSVPLG03,sg,20251021-125017,1.0.1,20251020-085245,706,Experiment,Both,1,Automatic,main,9,20251021-125138,global,local,300,H,S,A,E,H-A.png,E-S.png,hH,sS,mask-2.png,mask-1.png,h,1,1.272873300127685,s,1,0.8441783001180738,0.048640099819749594,0.04690259997732937,0.10180549998767674,0.09979010000824928,0.30029669986106455
RSVPLG03,sg,20251021-125017,1.0.1,20251020-085245,706,Experiment,Both,1,Automatic,main,10,20251021-125144,local,local,300,S,S,A,A,A-S.png,A-S.png,sS,sS,mask-4.png,mask-3.png,h,0,1.2458365000784397,s,1,0.6784548999276012,0.048758799908682704,0.047540999948978424,0.10033519985154271,0.10127220000140369,0.30010330001823604
RSVPLG03,sg,20251021-125017,1.0.1,20251020-085245,706,Experiment,Both,1,Automatic,main,11,20251021-125149,local,global,750,S,H,A,A,A-S.png,H-A.png,sS,hH,mask-2.png,mask-4.png,h,0,1.529494599904865,s,0,0.5558191000018269,0.04649129998870194,0.04743769997730851,0.100160300033167,0.0979887000285089,0.7511690000537783
RSVPLG03,sg,20251021-125017,1.0.1,20251020-085245,706,Experiment,Both,1,Automatic,main,12,20251021-125155,local,global,300,S,S,A,E,A-S.png,S-E.png,sS,sS,mask-1.png,mask-2.png,s,1,1.9901139000430703,s,1,0.16355930012650788,0.04722960013896227,0.04663429991342127,0.1007605001796037,0.098390799947083,0.30157660017721355
RSVPLG03,sg,20251021-125017,1.0.1,20251020-085245,706,Experiment,Both,1,Automatic,main,13,20251021-125201,global,global,750,S,H,A,A,S-A.png,H-A.png,sS,hH,mask-4.png,mask-3.png,s,1,1.2811382999643683,h,1,0.8051380000542849,0.047485999995842576,0.047573399962857366,0.09990619984455407,0.09886169992387295,0.7503969999961555
RSVPLG03,sg,20251021-125017,1.0.1,20251020-085245,706,Experiment,Both,1,Automatic,main,14,20251021-125207,global,global,300,H,H,A,A,H-A.png,H-A.png,hH,hH,mask-1.png,mask-3.png,s,0,1.5378711000084877,h,1,0.6752517998684198,0.04738190001808107,0.04655610001645982,0.10068050003610551,0.09998989989981055,0.30121050006709993
RSVPLG03,sg,20251021-125017,1.0.1,20251020-085245,706,Experiment,Both,1,Automatic,main,15,20251021-125213,local,local,750,H,S,A,E,A-H.png,E-S.png,hH,sS,mask-3.png,mask-1.png,s,0,1.2990801001433283,h,0,0.5578258000314236,0.046720500104129314,0.046254799934104085,0.09799790009856224,0.09773999988101423,0.7507647001184523
RSVPLG03,sg,20251021-125017,1.0.1,20251020-085245,706,Experiment,Both,1,Automatic,main,16,20251021-125219,global,global,300,H,S,A,A,H-A.png,S-A.png,hH,sS,mask-1.png,mask-3.png,s,0,1.4533921999391168,h,0,0.493804199853912,0.047272600000724196,0.04792789998464286,0.10007099993526936,0.09913569991476834,0.3001898000948131
RSVPLG03,sg,20251021-125017,1.0.1,20251020-085245,706,Experiment,Both,1,Automatic,main,17,20251021-125225,global,global,300,S,S,E,E,S-E.png,S-E.png,sS,sS,mask-4.png,mask-3.png,h,0,1.1745182999875396,h,0,0.09096139995381236,0.04799089999869466,0.04700570018030703,0.10092990007251501,0.09949960000813007,0.29992059990763664
RSVPLG03,sg,20251021-125017,1.0.1,20251020-085245,706,Experiment,Both,1,Automatic,main,18,20251021-125230,global,global,750,H,H,E,A,H-E.png,H-A.png,hH,hH,mask-3.png,mask-1.png,s,0,1.2468155999667943,h,1,0.5317083999980241,0.04800509987398982,0.0476610001642257,0.10048540006391704,0.1001659999601543,0.7505977998953313
RSVPLG03,sg,20251021-125017,1.0.1,20251020-085245,706,Experiment,Both,1,Automatic,main,19,20251021-125235,global,global,300,S,H,A,E,S-A.png,H-E.png,sS,hH,mask-4.png,mask-2.png,s,1,1.4093549998942763,h,1,0.6409472001250833,0.04841900011524558,0.04711219994351268,0.10072390013374388,0.099663499975577,0.30029620020650327
RSVPLG03,sg,20251021-125017,1.0.1,20251020-085245,706,Experiment,Both,1,Automatic,main,20,20251021-125241,global,global,750,S,S,A,A,S-A.png,S-A.png,sS,sS,mask-3.png,mask-1.png,s,1,1.1282044001854956,h,0,0.7142211999744177,0.04749249992892146,0.04840090009383857,0.10004379996098578,0.10065539996139705,0.7490975998807698
RSVPLG03,sg,20251021-125017,1.0.1,20251020-085245,706,Experiment,Both,1,Automatic,main,21,20251021-125247,global,local,300,H,H,E,A,H-E.png,A-H.png,hH,hH,mask-1.png,mask-1.png,s,0,1.7624941999092698,h,1,0.7396524001378566,0.047560299979522824,0.04765289998613298,0.10057260002940893,0.10084019997157156,0.3010016998741776
RSVPLG03,sg,20251021-125017,1.0.1,20251020-085245,706,Experiment,Both,1,Automatic,main,22,20251021-125253,local,global,750,H,S,A,E,A-H.png,S-E.png,hH,sS,mask-1.png,mask-3.png,h,1,1.4677832000888884,h,0,0.08439790015108883,0.047686600126326084,0.048821100033819675,0.10106860008090734,0.10107189998961985,0.7495878001209348
RSVPLG03,sg,20251021-125017,1.0.1,20251020-085245,706,Experiment,Both,1,Automatic,main,23,20251021-125259,global,local,300,S,H,A,E,S-A.png,E-H.png,sS,hH,mask-1.png,mask-3.png,s,1,1.2810752999503165,s,0,0.09164989995770156,0.046497799921780825,0.047498200088739395,0.10020689992234111,0.10049620014615357,0.29960149992257357
RSVPLG03,sg,20251021-125017,1.0.1,20251020-085245,706,Experiment,Both,1,Automatic,main,24,20251021-125304,local,local,750,S,S,E,E,E-S.png,E-S.png,sS,sS,mask-4.png,mask-3.png,s,1,0.9013938999269158,s,1,0.10872640018351376,0.047470200108364224,0.04750939994119108,0.0998700000345707,0.09960839990526438,0.7506391000933945
RSVPLG03,sg,20251021-125017,1.0.1,20251020-085245,706,Experiment,Both,1,Automatic,main,25,20251021-125309,local,local,300,H,S,E,A,E-H.png,A-S.png,hH,sS,mask-3.png,mask-3.png,h,1,1.1324758001137525,s,1,0.5853597999084741,0.04750009998679161,0.04750810004770756,0.09950340003706515,0.10050040017813444,0.2997586999554187
RSVPLG03,sg,20251021-125017,1.0.1,20251020-085245,706,Experiment,Both,1,Automatic,main,26,20251021-125317,global,local,300,S,S,E,E,S-E.png,E-S.png,sS,sS,mask-4.png,mask-3.png,s,1,1.1770554000977427,s,1,0.22095569991506636,0.04781379993073642,0.04783270019106567,0.10120889986865222,0.10102900001220405,0.300596899818629
RSVPLG03,sg,20251021-125017,1.0.1,20251020-085245,706,Experiment,Both,1,Automatic,main,27,20251021-125322,global,local,750,H,H,E,A,H-E.png,A-H.png,hH,hH,mask-2.png,mask-3.png,h,1,1.214465499855578,h,1,0.1225948000792414,0.04962019994854927,0.04852489987388253,0.10077059990726411,0.10064519988372922,0.7513878000900149
RSVPLG03,sg,20251021-125017,1.0.1,20251020-085245,706,Experiment,Both,1,Automatic,main,28,20251021-125327,local,local,750,S,S,E,A,E-S.png,A-S.png,sS,sS,mask-1.png,mask-3.png,s,1,1.5826652999967337,s,1,0.2596314998809248,0.048738199984654784,0.04880549991503358,0.10193059989251196,0.10095089999958873,0.7505985000170767
RSVPLG03,sg,20251021-125017,1.0.1,20251020-085245,706,Experiment,Both,1,Automatic,main,29,20251021-125333,local,global,750,S,S,E,E,E-S.png,S-E.png,sS,sS,mask-1.png,mask-3.png,s,1,0.8723943000659347,h,0,0.2192714000120759,0.04567789984866977,0.04769699997268617,0.09991019987501204,0.09988859994336963,0.7495824999641627
RSVPLG03,sg,20251021-125017,1.0.1,20251020-085245,706,Experiment,Both,1,Automatic,main,30,20251021-125338,global,global,300,H,H,E,E,H-E.png,H-E.png,hH,hH,mask-4.png,mask-1.png,h,1,0.9862319999374449,h,1,0.0889980997890234,0.04669620003551245,0.047563900006935,0.09987949999049306,0.0997960998211056,0.29942150018177927
RSVPLG03,sg,20251021-125017,1.0.1,20251020-085245,706,Experiment,Both,1,Automatic,main,31,20251021-125343,local,global,300,S,S,E,E,E-S.png,S-E.png,sS,sS,mask-1.png,mask-4.png,s,1,1.367191300028935,h,0,0.47866380005143583,0.04729750007390976,0.047425600001588464,0.0991132000926882,0.09941640007309616,0.299509400036186
RSVPLG03,sg,20251021-125017,1.0.1,20251020-085245,706,Experiment,Both,1,Automatic,main,32,20251021-125349,local,global,750,H,S,A,E,A-H.png,S-E.png,hH,sS,mask-1.png,mask-4.png,s,0,1.573989100055769,h,0,0.3577866000123322,0.048672599950805306,0.04775860020890832,0.09967450005933642,0.09866750007495284,0.7516280999407172
RSVPLG03,sg,20251021-125017,1.0.1,20251020-085245,706,Experiment,Both,1,Automatic,main,33,20251021-125355,global,local,300,H,S,E,A,H-E.png,A-S.png,hH,sS,mask-2.png,mask-2.png,h,1,1.0527915998827666,h,0,0.18688860000111163,0.047585299937054515,0.0475014999974519,0.10094240005128086,0.10069140000268817,0.3002271999139339
RSVPLG03,sg,20251021-125017,1.0.1,20251020-085245,706,Experiment,Both,1,Automatic,main,34,20251021-125400,global,global,750,H,H,A,E,H-A.png,H-E.png,hH,hH,mask-4.png,mask-2.png,h,1,0.9774158000946045,h,1,0.12254270003177226,0.047548200003802776,0.047551099909469485,0.09959289990365505,0.09843529993668199,0.7513635000213981
RSVPLG03,sg,20251021-125017,1.0.1,20251020-085245,706,Experiment,Both,1,Automatic,main,35,20251021-125405,global,global,750,H,S,E,E,H-E.png,S-E.png,hH,sS,mask-2.png,mask-3.png,h,1,0.8604844999499619,s,1,0.4926086999475956,0.047475799918174744,0.04744710004888475,0.09947029990144074,0.10021140007302165,0.7495299999136478
RSVPLG03,sg,20251021-125017,1.0.1,20251020-085245,706,Experiment,Both,1,Automatic,main,36,20251021-125410,global,local,300,S,H,E,A,S-E.png,A-H.png,sS,hH,mask-1.png,mask-2.png,s,1,2.593808399979025,h,1,0.2970217999536544,0.047524900175631046,0.04650190006941557,0.09943250007927418,0.10005509993061423,0.301733500091359
RSVPLG03,sg,20251021-125017,1.0.1,20251020-085245,706,Experiment,Both,1,Automatic,main,37,20251021-125417,local,local,750,S,H,E,A,E-S.png,A-H.png,sS,hH,mask-3.png,mask-1.png,s,1,0.5026131998747587,h,1,0.0022324000019580126,0.04770220001228154,0.0465599000453949,0.09969990001991391,0.09865959989838302,0.750747499987483
RSVPLG03,sg,20251021-125017,1.0.1,20251020-085245,706,Experiment,Both,1,Automatic,main,38,20251021-125422,local,global,750,H,H,A,E,A-H.png,H-E.png,hH,hH,mask-4.png,mask-1.png,h,1,0.414411700097844,h,1,0.07339449995197356,0.046440199948847294,0.04768089996650815,0.09953369991853833,0.09975599986501038,0.7494137999601662
RSVPLG03,sg,20251021-125017,1.0.1,20251020-085245,706,Experiment,Both,1,Automatic,main,39,20251021-125426,local,global,750,S,H,A,A,A-S.png,H-A.png,sS,hH,mask-3.png,mask-4.png,s,1,0.8240026000421494,h,1,0.09766840003430843,0.04946560016833246,0.0464393999427557,0.1003713000100106,0.0986399999819696,0.7524520000442863
RSVPLG03,sg,20251021-125017,1.0.1,20251020-085245,706,Experiment,Both,1,Automatic,main,40,20251021-125432,local,global,300,H,H,A,E,A-H.png,H-E.png,hH,hH,mask-1.png,mask-4.png,h,1,0.7786233001388609,s,0,0.923054900020361,0.04878670000471175,0.04668230004608631,0.10102869989350438,0.0986538000870496,0.30165169993415475
RSVPLG03,sg,20251021-125017,1.0.1,20251020-085245,706,Experiment,Both,1,Automatic,main,41,20251021-125436,local,global,300,H,H,A,A,A-H.png,H-A.png,hH,hH,mask-4.png,mask-2.png,h,1,0.6707782000303268,s,0,0.07054889993742108,0.04872069996781647,0.04770759982056916,0.09994260012172163,0.09991159988567233,0.2999967001378536
RSVPLG03,sg,20251021-125017,1.0.1,20251020-085245,706,Experiment,Both,1,Automatic,main,42,20251021-125441,global,global,750,S,S,E,A,S-E.png,S-A.png,sS,sS,mask-1.png,mask-4.png,h,0,1.1209034000057727,s,1,0.15565109997987747,0.04656290006823838,0.04753219988197088,0.1006624000146985,0.09963099984452128,0.7505954001098871
RSVPLG03,sg,20251021-125017,1.0.1,20251020-085245,706,Experiment,Both,1,Automatic,main,43,20251021-125446,global,global,300,H,S,A,E,H-A.png,S-E.png,hH,sS,mask-3.png,mask-1.png,s,0,0.5916909000370651,h,0,0.07620480004698038,0.04772349982522428,0.04652510001324117,0.09904349991120398,0.09968079999089241,0.3000585997942835
RSVPLG03,sg,20251021-125017,1.0.1,20251020-085245,706,Experiment,Both,1,Automatic,main,44,20251021-125450,local,local,300,S,S,A,A,A-S.png,A-S.png,sS,sS,mask-2.png,mask-1.png,h,0,0.7568067000247538,s,1,0.03784200013615191,0.04857330000959337,0.04850320005789399,0.10064770001918077,0.09969580010510981,0.3004499999806285
RSVPLG03,sg,20251021-125017,1.0.1,20251020-085245,706,Experiment,Both,1,Automatic,main,45,20251021-125455,global,global,300,S,S,E,E,S-E.png,S-E.png,sS,sS,mask-1.png,mask-2.png,s,1,0.5659360999707133,s,1,0.2953484000172466,0.047591499984264374,0.0479808000382036,0.10001510009169579,0.10122289997525513,0.30060190008953214
RSVPLG03,sg,20251021-125017,1.0.1,20251020-085245,706,Experiment,Both,1,Automatic,main,46,20251021-125500,local,local,300,S,S,A,A,A-S.png,A-S.png,sS,sS,mask-4.png,mask-2.png,s,1,1.5342894999776036,h,0,0.32604960002936423,0.046532300068065524,0.04766310006380081,0.09975209995172918,0.09962149988859892,0.2993771000765264
RSVPLG03,sg,20251021-125017,1.0.1,20251020-085245,706,Experiment,Both,1,Automatic,main,47,20251021-125505,local,local,750,S,H,A,E,A-S.png,E-H.png,sS,hH,mask-2.png,mask-1.png,s,1,0.5739810999948531,h,1,0.2974323001690209,0.04869000008329749,0.04770889994688332,0.0999115000013262,0.09989369986578822,0.7500513000413775
RSVPLG03,sg,20251021-125017,1.0.1,20251020-085245,706,Experiment,Both,1,Automatic,main,48,20251021-125510,local,local,750,H,H,E,A,E-H.png,A-H.png,hH,hH,mask-1.png,mask-1.png,h,1,0.4383988999761641,h,1,0.45249819988384843,0.04672340000979602,0.04898970015347004,0.09876650013029575,0.10206690011546016,0.7486660999711603
RSVPLG03,sg,20251021-125017,1.0.1,20251020-085245,706,Experiment,Both,1,Automatic,main,49,20251021-125515,local,local,750,H,H,E,A,E-H.png,A-H.png,hH,hH,mask-1.png,mask-4.png,s,0,0.8807930001057684,h,1,0.24479739996604621,0.04761909996159375,0.04765910003334284,0.09954779990948737,0.10085800010710955,0.7499213998671621
RSVPLG03,sg,20251021-125017,1.0.1,20251020-085245,706,Experiment,Both,1,Automatic,main,50,20251021-125521,local,local,300,H,S,E,E,E-H.png,E-S.png,hH,sS,mask-1.png,mask-3.png,h,1,1.0405669999308884,s,1,0.010843799915164709,0.047757199965417385,0.047632299829274416,0.10000599990598857,0.09965879982337356,0.29980899998918176
RSVPLG03,sg,20251021-125017,1.0.1,20251020-085245,706,Experiment,Both,1,Automatic,main,51,20251021-125528,global,global,300,S,S,A,E,S-A.png,S-E.png,sS,sS,mask-2.png,mask-3.png,s,1,0.49012760003097355,s,1,0.2582944999448955,0.04863570001907647,0.048530600033700466,0.1016667999792844,0.09961279993876815,0.3008276999462396
RSVPLG03,sg,20251021-125017,1.0.1,20251020-085245,706,Experiment,Both,1,Automatic,main,52,20251021-125532,global,local,750,H,H,E,E,H-E.png,E-H.png,hH,hH,mask-4.png,mask-3.png,h,1,0.6662130998447537,h,1,0.10150570003315806,0.04754060017876327,0.046536299865692854,0.09856520011089742,0.09959549992345273,0.750731100095436
RSVPLG03,sg,20251021-125017,1.0.1,20251020-085245,706,Experiment,Both,1,Automatic,main,53,20251021-125537,local,local,300,S,H,E,A,E-S.png,A-H.png,sS,hH,mask-3.png,mask-2.png,s,1,0.3932251001242548,h,1,0.09210279979743063,0.04768959991633892,0.047500599874183536,0.10084749991074204,0.09970470005646348,0.300432899966836
RSVPLG03,sg,20251021-125017,1.0.1,20251020-085245,706,Experiment,Both,1,Automatic,main,54,20251021-125541,local,local,300,S,S,A,E,A-S.png,E-S.png,sS,sS,mask-4.png,mask-3.png,s,1,0.3839953001588583,s,1,0.1404621999245137,0.046649100026115775,0.047043300000950694,0.09958710009232163,0.1003139999229461,0.2995237000286579
RSVPLG03,sg,20251021-125017,1.0.1,20251020-085245,706,Experiment,Both,1,Automatic,main,55,20251021-125546,local,global,750,S,S,E,E,E-S.png,S-E.png,sS,sS,mask-3.png,mask-2.png,s,1,0.5133432999718934,s,1,0.10908570000901818,0.04653559997677803,0.04664790001697838,0.09920540009625256,0.09885009983554482,0.7502258000895381
RSVPLG03,sg,20251021-125017,1.0.1,20251020-085245,706,Experiment,Both,1,Automatic,main,56,20251021-125550,global,local,300,S,S,A,A,S-A.png,A-S.png,sS,sS,mask-1.png,mask-1.png,s,1,0.49797650007531047,s,1,0.10761659988202155,0.04660229990258813,0.04757889988832176,0.09961859998293221,0.10077909985557199,0.300135700032115
RSVPLG03,sg,20251021-125017,1.0.1,20251020-085245,706,Experiment,Both,1,Automatic,main,57,20251021-125555,local,local,300,S,S,A,A,A-S.png,A-S.png,sS,sS,mask-1.png,mask-3.png,s,1,0.688271600054577,s,1,0.10658579994924366,0.04651629994623363,0.047615000046789646,0.09967459994368255,0.09971010009758174,0.2996386999730021
RSVPLG03,sg,20251021-125017,1.0.1,20251020-085245,706,Experiment,Both,1,Automatic,main,58,20251021-125559,global,global,750,S,H,A,A,S-A.png,H-A.png,sS,hH,mask-3.png,mask-1.png,s,1,0.5539714000187814,h,1,0.0402195998467505,0.047550300136208534,0.04754630010575056,0.10161660006269813,0.10055900015868247,0.7503688000142574
RSVPLG03,sg,20251021-125017,1.0.1,20251020-085245,706,Experiment,Both,1,Automatic,main,59,20251021-125604,local,global,300,S,S,A,A,A-S.png,S-A.png,sS,sS,mask-2.png,mask-4.png,h,0,1.0428090998902917,s,1,1.106706199934706,0.047101500211283565,0.04648360004648566,0.10012670001015067,0.0994252001401037,0.29995330004021525
RSVPLG03,sg,20251021-125017,1.0.1,20251020-085245,706,Experiment,Both,1,Automatic,main,60,20251021-125609,local,global,300,S,H,E,E,E-S.png,H-E.png,sS,hH,mask-3.png,mask-2.png,s,1,0.38238450000062585,h,1,0.07114779995754361,0.04747550003230572,0.047497799852862954,0.10050230007618666,0.09950209991075099,0.30074220011010766
RSVPLG03,sg,20251021-125017,1.0.1,20251020-085245,706,Experiment,Both,1,Automatic,main,61,20251021-125613,global,global,300,S,S,A,A,S-A.png,S-A.png,sS,sS,mask-4.png,mask-4.png,s,1,0.38529930007644,h,0,0.561315800063312,0.047509900061413646,0.047524499939754605,0.10048569994978607,0.10057269991375506,0.29972190014086664
RSVPLG03,sg,20251021-125017,1.0.1,20251020-085245,706,Experiment,Both,1,Automatic,main,62,20251021-125617,local,global,300,S,S,E,A,E-S.png,S-A.png,sS,sS,mask-3.png,mask-3.png,s,1,0.37593359989114106,h,0,0.038967999862506986,0.047422900097444654,0.04666930017992854,0.10049839993007481,0.09978920011781156,0.30022819992154837
RSVPLG03,sg,20251021-125017,1.0.1,20251020-085245,706,Experiment,Both,1,Automatic,main,63,20251021-125621,global,local,300,H,H,E,E,H-E.png,E-H.png,hH,hH,mask-4.png,mask-3.png,h,1,0.5128202999476343,s,0,0.6991932999808341,0.04673400009050965,0.04776139999739826,0.10007299995049834,0.1000161999836564,0.2998147001489997
RSVPLG03,sg,20251021-125017,1.0.1,20251020-085245,706,Experiment,Both,1,Automatic,main,64,20251021-125626,local,local,750,S,S,A,A,A-S.png,A-S.png,sS,sS,mask-3.png,mask-3.png,h,0,0.604215599829331,s,1,0.8451903001405299,0.04665539995767176,0.04799690004438162,0.10098710004240274,0.0995960000436753,0.7503378000110388
RSVPLG03,sg,20251021-125017,1.0.1,20251020-085245,706,Experiment,Both,1,Automatic,main,65,20251021-125632,local,global,750,S,H,A,E,A-S.png,H-E.png,sS,hH,mask-2.png,mask-2.png,s,1,0.9178267000243068,h,1,0.026245399843901396,0.04753169999457896,0.04850449995137751,0.09954790002666414,0.10151059995405376,0.7494657000061125
RSVPLG03,sg,20251021-125017,1.0.1,20251020-085245,706,Experiment,Both,1,Automatic,main,66,20251021-125637,local,local,750,S,H,E,E,E-S.png,E-H.png,sS,hH,mask-4.png,mask-1.png,s,1,0.5005446001887321,h,1,0.01023950008675456,0.047675699926912785,0.046666699927300215,0.09992519998922944,0.09991610003635287,0.7506939999293536
RSVPLG03,sg,20251021-125017,1.0.1,20251020-085245,706,Experiment,Both,1,Automatic,main,67,20251021-125642,local,local,300,S,H,A,E,A-S.png,E-H.png,sS,hH,mask-2.png,mask-3.png,s,1,0.5183323000092059,h,1,0.04360360000282526,0.04850489995442331,0.048485699808225036,0.10055859992280602,0.09951969981193542,0.30080870003439486
RSVPLG03,sg,20251021-125017,1.0.1,20251020-085245,706,Experiment,Both,1,Automatic,main,68,20251021-125646,global,global,750,H,H,A,A,H-A.png,H-A.png,hH,hH,mask-1.png,mask-2.png,s,0,0.6719974998850375,h,1,0.41940790018998086,0.04753379989415407,0.04842330003157258,0.0996439999435097,0.1002434000838548,0.7495491998270154
RSVPLG03,sg,20251021-125017,1.0.1,20251020-085245,706,Experiment,Both,1,Automatic,main,69,20251021-125652,global,local,750,S,H,A,A,S-A.png,A-H.png,sS,hH,mask-2.png,mask-4.png,s,1,0.5925654999446124,h,1,0.09738690010271966,0.047499499982222915,0.04666320001706481,0.09961869986727834,0.09984180005267262,0.7519488998223096
RSVPLG03,sg,20251021-125017,1.0.1,20251020-085245,706,Experiment,Both,1,Automatic,main,70,20251021-125657,global,global,300,S,S,E,A,S-E.png,S-A.png,sS,sS,mask-1.png,mask-1.png,s,1,0.37340599996969104,h,0,0.1806681000161916,0.04665249981917441,0.04848819994367659,0.09858809993602335,0.10045500006526709,0.2996551999822259
RSVPLG03,sg,20251021-125017,1.0.1,20251020-085245,706,Experiment,Both,1,Automatic,main,71,20251021-125701,local,global,300,H,S,E,A,E-H.png,S-A.png,hH,sS,mask-3.png,mask-4.png,h,1,0.7706654998473823,s,1,0.05591090000234544,0.04670009994879365,0.0477462001144886,0.09982130001299083,0.09996400005184114,0.2995505998842418
RSVPLG03,sg,20251021-125017,1.0.1,20251020-085245,706,Experiment,Both,1,Automatic,main,72,20251021-125706,global,global,750,H,H,A,E,H-A.png,H-E.png,hH,hH,mask-4.png,mask-1.png,h,1,0.656535099959001,h,1,0.09937680000439286,0.0476649000775069,0.04567770007997751,0.10085990000516176,0.09994009998627007,0.7521520000882447
RSVPLG03,sg,20251021-125017,1.0.1,20251020-085245,706,Experiment,Both,1,Automatic,main,73,20251021-125711,local,global,300,H,S,A,E,A-H.png,S-E.png,hH,sS,mask-2.png,mask-2.png,h,1,0.3811401999555528,s,1,0.05756559991277754,0.047712399857118726,0.048585700104013085,0.09891729988157749,0.09976870007812977,0.2995129998307675
RSVPLG03,sg,20251021-125017,1.0.1,20251020-085245,706,Experiment,Both,1,Automatic,main,74,20251021-125715,local,local,750,H,H,A,A,A-H.png,A-H.png,hH,hH,mask-3.png,mask-1.png,h,1,0.376456200145185,h,1,0.5472935000434518,0.047681199852377176,0.04766739998012781,0.09986359998583794,0.09996469994075596,0.7504680999554694
RSVPLG03,sg,20251021-125017,1.0.1,20251020-085245,706,Experiment,Both,1,Automatic,main,75,20251021-125720,local,local,300,H,S,A,E,A-H.png,E-S.png,hH,sS,mask-2.png,mask-3.png,h,1,0.3055851999670267,s,1,0.4818311999551952,0.048603199888020754,0.047297499841079116,0.10096129984594882,0.10065039992332458,0.30064380005933344
RSVPLG03,sg,20251021-125017,1.0.1,20251020-085245,706,Experiment,Both,1,Automatic,main,76,20251021-125726,local,local,300,H,S,A,E,A-H.png,E-S.png,hH,sS,mask-2.png,mask-1.png,h,1,0.46105200005695224,s,1,0.026662299875169992,0.04745570011436939,0.04859759984537959,0.10055510001257062,0.09979379992000759,0.3002142000477761
RSVPLG03,sg,20251021-125017,1.0.1,20251020-085245,706,Experiment,Both,1,Automatic,main,77,20251021-125730,local,global,300,H,S,E,A,E-H.png,S-A.png,hH,sS,mask-1.png,mask-3.png,h,1,0.39897369989193976,s,1,0.007390000158920884,0.0458895000629127,0.04848059988580644,0.0998893000651151,0.10133480001240969,0.29916619998402894
RSVPLG03,sg,20251021-125017,1.0.1,20251020-085245,706,Experiment,Both,1,Automatic,main,78,20251021-125734,global,local,750,S,H,A,A,S-A.png,A-H.png,sS,hH,mask-3.png,mask-3.png,s,1,0.4288479001261294,h,1,0.04377519991248846,0.04751230007968843,0.04769110004417598,0.10134649998508394,0.10080510005354881,0.7505506000015885
RSVPLG03,sg,20251021-125017,1.0.1,20251020-085245,706,Experiment,Both,1,Automatic,main,79,20251021-125739,global,global,750,S,H,A,E,S-A.png,H-E.png,sS,hH,mask-1.png,mask-1.png,s,1,0.3479901999235153,h,1,0.023483100114390254,0.04749480006285012,0.04868610017001629,0.100499999942258,0.10162520012818277,0.7501530998852104
RSVPLG03,sg,20251021-125017,1.0.1,20251020-085245,706,Experiment,Both,1,Automatic,main,80,20251021-125743,global,local,300,H,H,A,E,H-A.png,E-H.png,hH,hH,mask-3.png,mask-3.png,s,0,0.43519899994134903,h,1,0.5474896999076009,0.046585500007495284,0.047585299937054515,0.09901640005409718,0.10057089990004897,0.2993974001146853
RSVPLG03,sg,20251021-125017,1.0.1,20251020-085245,706,Experiment,Both,1,Automatic,main,81,20251021-125747,global,local,750,H,H,E,E,H-E.png,E-H.png,hH,hH,mask-4.png,mask-1.png,h,1,0.6665074999909848,s,0,0.794565899996087,0.04754319996573031,0.047547100111842155,0.10154840000905097,0.09861159999854863,0.751721799839288
RSVPLG03,sg,20251021-125017,1.0.1,20251020-085245,706,Experiment,Both,1,Automatic,main,82,20251021-125752,global,local,750,S,H,E,A,S-E.png,A-H.png,sS,hH,mask-4.png,mask-3.png,s,1,0.4001662000082433,h,1,0.4966185998637229,0.04658109997399151,0.04755389993079007,0.09887340012937784,0.09956400003284216,0.749981600092724
RSVPLG03,sg,20251021-125017,1.0.1,20251020-085245,706,Experiment,Both,1,Automatic,main,83,20251021-125757,local,local,300,S,H,E,A,E-S.png,A-H.png,sS,hH,mask-1.png,mask-4.png,s,1,0.48327880003489554,h,1,0.09619189985096455,0.04669549991376698,0.047552800038829446,0.09836729988455772,0.09846949996426702,0.2998672998510301
RSVPLG03,sg,20251021-125017,1.0.1,20251020-085245,706,Experiment,Both,1,Automatic,main,84,20251021-125801,global,local,300,S,H,E,A,S-E.png,A-H.png,sS,hH,mask-4.png,mask-3.png,s,1,0.3599094001110643,h,1,0.07177189993672073,0.046491899993270636,0.048557099886238575,0.09976179990917444,0.10161679983139038,0.2993030999787152
RSVPLG03,sg,20251021-125017,1.0.1,20251020-085245,706,Experiment,Both,1,Automatic,main,85,20251021-125805,local,local,300,H,H,E,A,E-H.png,A-H.png,hH,hH,mask-2.png,mask-2.png,s,0,0.7356078000739217,h,1,0.0018180999904870987,0.04755420004948974,0.04751980002038181,0.09965300001204014,0.09958310006186366,0.300048999954015
RSVPLG03,sg,20251021-125017,1.0.1,20251020-085245,706,Experiment,Both,1,Automatic,main,86,20251021-125810,global,global,300,H,S,A,A,H-A.png,S-A.png,hH,sS,mask-4.png,mask-3.png,h,1,0.56697339983657,s,1,0.03827819996513426,0.04847769998013973,0.046501100063323975,0.09982990007847548,0.0984525999519974,0.3011728001292795
RSVPLG03,sg,20251021-125017,1.0.1,20251020-085245,706,Experiment,Both,1,Automatic,main,87,20251021-125814,global,local,750,S,S,E,E,S-E.png,E-S.png,sS,sS,mask-2.png,mask-3.png,h,0,0.6068833000026643,s,1,0.0025130000431090593,0.04714439995586872,0.04755090014077723,0.09925639978609979,0.10042389994487166,0.7492310998495668
RSVPLG03,sg,20251021-125017,1.0.1,20251020-085245,706,Experiment,Both,1,Automatic,main,88,20251021-125819,local,global,300,S,H,E,E,E-S.png,H-E.png,sS,hH,mask-1.png,mask-4.png,h,0,0.6208399999886751,s,0,0.9024968000594527,0.04765590000897646,0.046798900002613664,0.09981460007838905,0.09932680008932948,0.3004056999925524
RSVPLG03,sg,20251021-125017,1.0.1,20251020-085245,706,Experiment,Both,1,Automatic,main,89,20251021-125824,global,local,300,S,H,E,E,S-E.png,E-H.png,sS,hH,mask-4.png,mask-2.png,s,1,0.33042720006778836,h,1,0.23701699986122549,0.04753020009957254,0.047231600154191256,0.10087590012699366,0.1002223000396043,0.2999444999732077
RSVPLG03,sg,20251021-125017,1.0.1,20251020-085245,706,Experiment,Both,1,Automatic,main,90,20251021-125829,local,local,750,H,S,E,A,E-H.png,A-S.png,hH,sS,mask-3.png,mask-1.png,s,0,0.7949973999056965,h,0,0.023783600190654397,0.04749969998374581,0.04705219995230436,0.09858119999989867,0.1004769999999553,0.7493042000569403
RSVPLG03,sg,20251021-125017,1.0.1,20251020-085245,706,Experiment,Both,1,Automatic,main,91,20251021-125834,global,local,300,S,S,A,A,S-A.png,A-S.png,sS,sS,mask-4.png,mask-4.png,s,1,0.5482878999318928,s,1,0.5715868999250233,0.04760669986717403,0.04739790013991296,0.09968849993310869,0.09960850002244115,0.30002619978040457
RSVPLG03,sg,20251021-125017,1.0.1,20251020-085245,706,Experiment,Both,1,Automatic,main,92,20251021-125839,global,global,750,H,S,E,E,H-E.png,S-E.png,hH,sS,mask-4.png,mask-1.png,s,0,1.9424825001042336,s,1,0.04325300012715161,0.047542299842461944,0.046589399920776486,0.09977999981492758,0.09912590007297695,0.7505049998871982
RSVPLG03,sg,20251021-125017,1.0.1,20251020-085245,706,Experiment,Both,1,Automatic,main,93,20251021-125845,global,local,750,S,S,A,E,S-A.png,E-S.png,sS,sS,mask-3.png,mask-3.png,s,1,0.5360663998872042,s,1,0.07640669983811677,0.047024899860844016,0.04747329978272319,0.09825949999503791,0.09969759988598526,0.7496036000084132
RSVPLG03,sg,20251021-125017,1.0.1,20251020-085245,706,Experiment,Both,1,Automatic,main,94,20251021-125849,global,global,750,H,H,A,A,H-A.png,H-A.png,hH,hH,mask-4.png,mask-2.png,s,0,0.47055709990672767,h,1,0.2420181999914348,0.048440200043842196,0.046618200140073895,0.10105309984646738,0.0990894001442939,0.752062999876216
RSVPLG03,sg,20251021-125017,1.0.1,20251020-085245,706,Experiment,Both,1,Automatic,main,95,20251021-125854,local,global,300,S,S,E,A,E-S.png,S-A.png,sS,sS,mask-4.png,mask-2.png,s,1,0.42047659982927144,h,0,0.6899940001312643,0.04655359988100827,0.04754800000227988,0.09854119992814958,0.1006006000097841,0.300037199864164
RSVPLG03,sg,20251021-125017,1.0.1,20251020-085245,706,Experiment,Both,1,Automatic,main,96,20251021-125859,local,global,300,H,H,A,A,A-H.png,H-A.png,hH,hH,mask-3.png,mask-3.png,s,0,0.28184790001250803,h,1,0.21994400001130998,0.047693399945273995,0.04851110000163317,0.09960549999959767,0.1014384999871254,0.29999840003438294
RSVPLG03,sg,20251021-125017,1.0.1,20251020-085245,706,Experiment,Both,1,Automatic,main,97,20251021-125904,local,local,750,H,S,A,A,A-H.png,A-S.png,hH,sS,mask-4.png,mask-3.png,s,0,0.526411599945277,h,0,0.19627550011500716,0.04850640008226037,0.0467932999599725,0.1005156000610441,0.09987380006350577,0.7510337000712752
RSVPLG03,sg,20251021-125017,1.0.1,20251020-085245,706,Experiment,Both,1,Automatic,main,98,20251021-125909,global,local,750,H,S,E,E,H-E.png,E-S.png,hH,sS,mask-4.png,mask-4.png,h,1,0.37755730003118515,s,1,0.11622729990631342,0.047484599985182285,0.047521199798211455,0.10050659999251366,0.09955179993994534,0.7502757001202554
RSVPLG03,sg,20251021-125017,1.0.1,20251020-085245,706,Experiment,Both,1,Automatic,main,99,20251021-125914,global,local,750,S,S,A,E,S-A.png,E-S.png,sS,sS,mask-2.png,mask-2.png,s,1,0.5207505999132991,s,1,0.08055110019631684,0.04860839992761612,0.048732800176367164,0.10039820009842515,0.10098580014891922,0.7515197999309748
RSVPLG03,sg,20251021-125017,1.0.1,20251020-085245,706,Experiment,Both,1,Automatic,main,100,20251021-125918,local,global,750,H,S,E,A,E-H.png,S-A.png,hH,sS,mask-3.png,mask-2.png,s,0,0.41273889993317425,s,1,0.06874200003221631,0.0485874000005424,0.047684699995443225,0.10056370007805526,0.10113219986669719,0.7504208001773804
RSVPLG03,sg,20251021-125017,1.0.1,20251020-085245,706,Experiment,Both,1,Automatic,main,101,20251021-125924,global,local,300,S,S,E,E,S-E.png,E-S.png,sS,sS,mask-3.png,mask-2.png,s,1,0.33873690012842417,s,1,0.09041030006483197,0.04758900008164346,0.04601209983229637,0.09966660011559725,0.09860309981741011,0.29999330011196434
RSVPLG03,sg,20251021-125017,1.0.1,20251020-085245,706,Experiment,Both,1,Automatic,main,102,20251021-125928,local,global,300,H,H,A,E,A-H.png,H-E.png,hH,hH,mask-4.png,mask-2.png,s,0,0.2692780999932438,h,1,0.006464099977165461,0.04864519997499883,0.04773560003377497,0.100802400149405,0.09990530018694699,0.30066419998183846
RSVPLG03,sg,20251021-125017,1.0.1,20251020-085245,706,Experiment,Both,1,Automatic,main,103,20251021-125932,local,global,750,S,S,A,A,A-S.png,S-A.png,sS,sS,mask-3.png,mask-1.png,h,0,0.8571371000725776,s,1,0.025659299921244383,0.04781430005095899,0.048595399828627706,0.1009408999234438,0.10067999991588295,0.7500376000534743
RSVPLG03,sg,20251021-125017,1.0.1,20251020-085245,706,Experiment,Both,1,Automatic,main,104,20251021-125938,global,local,300,S,S,A,A,S-A.png,A-S.png,sS,sS,mask-1.png,mask-2.png,s,1,0.4967161000240594,h,0,0.09102710010483861,0.04769759997725487,0.04668559995479882,0.10082060005515814,0.09889389993622899,0.30147740012034774
RSVPLG03,sg,20251021-125017,1.0.1,20251020-085245,706,Experiment,Both,1,Automatic,main,105,20251021-125942,global,local,300,S,S,A,E,S-A.png,E-S.png,sS,sS,mask-1.png,mask-1.png,s,1,0.3607562999241054,s,1,0.0885294999461621,0.04609429999254644,0.04752760007977486,0.09918899997137487,0.10147530003450811,0.2991929000709206
RSVPLG03,sg,20251021-125017,1.0.1,20251020-085245,706,Experiment,Both,1,Automatic,main,106,20251021-125946,global,local,750,S,S,A,E,S-A.png,E-S.png,sS,sS,mask-1.png,mask-4.png,s,1,0.3390709001105279,s,1,0.0834463001228869,0.04767480003647506,0.04749170015566051,0.09886390017345548,0.10167030012235045,0.7488975999876857
RSVPLG03,sg,20251021-125017,1.0.1,20251020-085245,706,Experiment,Both,1,Automatic,main,107,20251021-125951,local,global,750,S,S,A,A,A-S.png,S-A.png,sS,sS,mask-1.png,mask-3.png,s,1,0.3339679001364857,s,1,0.07339629996567965,0.0477314000017941,0.048647599993273616,0.09891100018285215,0.10060620005242527,0.7490801000967622
RSVPLG03,sg,20251021-125017,1.0.1,20251020-085245,706,Experiment,Both,1,Automatic,main,108,20251021-125955,global,global,300,S,S,A,E,S-A.png,S-E.png,sS,sS,mask-2.png,mask-2.png,s,1,1.271409000037238,s,1,0.060023600002750754,0.04742359998635948,0.047184100141748786,0.10059090005233884,0.10036410018801689,0.2997872999403626
RSVPLG03,sg,20251021-125017,1.0.1,20251020-085245,706,Experiment,Both,1,Automatic,main,109,20251021-130000,local,local,750,H,H,A,E,A-H.png,E-H.png,hH,hH,mask-1.png,mask-2.png,s,0,0.39774239994585514,s,0,0.06926329992711544,0.047539299819618464,0.04624899988994002,0.10055009997449815,0.09818600001744926,0.7510150999296457
RSVPLG03,sg,20251021-125017,1.0.1,20251020-085245,706,Experiment,Both,1,Automatic,main,110,20251021-130005,local,global,750,S,H,E,E,E-S.png,H-E.png,sS,hH,mask-4.png,mask-1.png,s,1,0.33145439997315407,h,1,0.49298610002733767,0.047577999997884035,0.04754739999771118,0.09991439990699291,0.10060269990935922,0.7516171999741346
RSVPLG03,sg,20251021-125017,1.0.1,20251020-085245,706,Experiment,Both,1,Automatic,main,111,20251021-130010,global,global,750,S,H,E,E,S-E.png,H-E.png,sS,hH,mask-3.png,mask-2.png,s,1,0.3149127000942826,h,1,0.6600168000441045,0.04751889989711344,0.04653270007111132,0.10059529985301197,0.09960340010002255,0.7511976999230683
RSVPLG03,sg,20251021-125017,1.0.1,20251020-085245,706,Experiment,Both,1,Automatic,main,112,20251021-130015,local,local,300,H,S,A,E,A-H.png,E-S.png,hH,sS,mask-2.png,mask-3.png,h,1,0.3961638000328094,s,1,0.524237799923867,0.04757840000092983,0.04754689987748861,0.10076529998332262,0.09966899990104139,0.30012609995901585
RSVPLG03,sg,20251021-125017,1.0.1,20251020-085245,706,Experiment,Both,1,Automatic,main,113,20251021-130019,global,local,750,S,H,A,E,S-A.png,E-H.png,sS,hH,mask-3.png,mask-4.png,s,1,0.2959326000418514,s,0,0.1222728998400271,0.04853449994698167,0.047526200069114566,0.10060880007222295,0.10053830011747777,0.7499374998733401
RSVPLG03,sg,20251021-125017,1.0.1,20251020-085245,706,Experiment,Both,1,Automatic,main,114,20251021-130024,local,global,750,S,H,E,E,E-S.png,H-E.png,sS,hH,mask-2.png,mask-2.png,s,1,0.2979874999728054,h,1,0.08442789991386235,0.047674200031906366,0.046492099994793534,0.09988199989311397,0.10017820005305111,0.7496432999614626
RSVPLG03,sg,20251021-125017,1.0.1,20251020-085245,706,Experiment,Both,1,Automatic,main,115,20251021-130029,local,local,750,S,S,A,E,A-S.png,E-S.png,sS,sS,mask-3.png,mask-4.png,h,0,0.4366468999069184,s,1,0.036946000065654516,0.046539200004190207,0.0477206998039037,0.10025799996219575,0.10036469995975494,0.7500740000978112
RSVPLG03,sg,20251021-125017,1.0.1,20251020-085245,706,Experiment,Both,1,Automatic,main,116,20251021-130033,global,global,750,H,H,E,E,H-E.png,H-E.png,hH,hH,mask-2.png,mask-4.png,h,1,0.39990630000829697,h,1,0.09242390003055334,0.04770180000923574,0.04766569985076785,0.09978469996713102,0.09998809988610446,0.7497545999940485
RSVPLG03,sg,20251021-125017,1.0.1,20251020-085245,706,Experiment,Both,1,Automatic,main,117,20251021-130038,local,local,750,H,H,E,E,E-H.png,E-H.png,hH,hH,mask-2.png,mask-3.png,h,1,0.44461230002343655,h,1,0.09221119992434978,0.04667449998669326,0.04665590007789433,0.09979659994132817,0.09970739996060729,0.7499809998553246
RSVPLG03,sg,20251021-125017,1.0.1,20251020-085245,706,Experiment,Both,1,Automatic,main,118,20251021-130043,global,global,300,S,S,E,E,S-E.png,S-E.png,sS,sS,mask-2.png,mask-3.png,h,0,0.5141704000998288,h,0,0.06534289987757802,0.0488173000048846,0.04649440012872219,0.1000718001741916,0.09916410013101995,0.30196169996634126
RSVPLG03,sg,20251021-125017,1.0.1,20251020-085245,706,Experiment,Both,1,Automatic,main,119,20251021-130047,local,global,750,S,H,E,E,E-S.png,H-E.png,sS,hH,mask-4.png,mask-1.png,s,1,0.385414200136438,h,1,0.07079779985360801,0.04650719999335706,0.04754330008290708,0.0994098000228405,0.10041210008785129,0.7488281999249011
RSVPLG03,sg,20251021-125017,1.0.1,20251020-085245,706,Experiment,Both,1,Automatic,main,120,20251021-130052,global,global,300,H,S,A,E,H-A.png,S-E.png,hH,sS,mask-3.png,mask-3.png,s,0,2.783864999888465,s,1,0.093137500109151,0.04726139991544187,0.046165799954906106,0.10026609990745783,0.10017420002259314,0.3000985998660326
RSVPLG03,sg,20251021-125017,1.0.1,20251020-085245,706,Experiment,Both,1,Automatic,main,121,20251021-130058,local,global,300,S,S,E,A,E-S.png,S-A.png,sS,sS,mask-4.png,mask-3.png,s,1,0.3975439998321235,h,0,0.0008016000501811504,0.04870230006054044,0.046945400070399046,0.10088069993071258,0.09948810003697872,0.3004373998846859
RSVPLG03,sg,20251021-125017,1.0.1,20251020-085245,706,Experiment,Both,1,Automatic,main,122,20251021-130103,global,local,750,S,S,E,E,S-E.png,E-S.png,sS,sS,mask-2.png,mask-3.png,s,1,0.5961099998094141,s,1,0.3322825999930501,0.047548600006848574,0.047527800081297755,0.10057860007509589,0.10056240018457174,0.7502945999149233
