exp,exp_initials,runtime,ver,modtime,sub,blocktype,targets,cuetype,mode,trialtype,trial,trialtime,t1_level,t2_level,t2_lag,t1,t2,distractor1,distractor2,stimfile1,stimfile2,t1_corr,t2_corr,maskfile1,maskfile2,t1_resp,t1_acc,t1_rt,t2_resp,t2_acc,t2_rt,t1_dur,t2_dur,t1mask_soa,t2mask_soa,t1t2_soa
RSVPLG03,si,20260305-170631,1.0.2,20260219-152011,791,Introduction,T1,1,Automatic,main,1,20260305-170657,local,local,750,S,H,E,E,E-S.png,E-H.png,sS,hH,mask-1.png,mask-2.png,s,1,2.758292500016978,none,-5,0,0.09647809999296442,0.10081430000718683,0.19532940001226962,0.20092609999119304,0.7471000000077765
RSVPLG03,si,20260305-170631,1.0.2,20260219-152011,791,Introduction,T1,1,Automatic,main,2,20260305-170704,global,global,750,H,H,A,E,H-A.png,H-E.png,hH,hH,mask-1.png,mask-1.png,h,1,0.7642120000091381,none,-5,0,0.1015999999945052,0.10038499999791384,0.19988519998150878,0.20046319998800755,0.7521059999999125
RSVPLG03,si,20260305-170631,1.0.2,20260219-152011,791,Introduction,T1,1,Automatic,main,3,20260305-170709,global,global,750,H,H,A,E,H-A.png,H-E.png,hH,hH,mask-4.png,mask-1.png,h,1,0.6509109999751672,none,-5,0,0.09863370002130978,0.09936650001327507,0.19998360000317916,0.20158870000159368,0.7503063000040129
RSVPLG03,si,20260305-170631,1.0.2,20260219-152011,791,Introduction,T1,1,Automatic,main,4,20260305-170713,global,global,750,S,H,A,E,S-A.png,H-E.png,sS,hH,mask-1.png,mask-2.png,s,1,0.4782771000172943,none,-5,0,0.09996780002256855,0.10012279998045415,0.1988322000252083,0.19958729998324998,0.7509477000276092
RSVPLG03,si,20260305-170631,1.0.2,20260219-152011,791,Introduction,T1,1,Automatic,main,5,20260305-170718,local,local,750,S,S,A,E,A-S.png,E-S.png,sS,sS,mask-3.png,mask-4.png,s,1,1.7269263000052888,none,-5,0,0.09968310000840575,0.09965849999571219,0.19977720000315458,0.20027100000879727,0.7509297000069637
RSVPLG03,si,20260305-170631,1.0.2,20260219-152011,791,Introduction,T1,1,Automatic,main,6,20260305-170724,local,local,750,S,H,A,A,A-S.png,A-H.png,sS,hH,mask-3.png,mask-1.png,h,0,0.3910677000239957,none,-5,0,0.09940460001234896,0.09980060000088997,0.19970890000695363,0.200320300005842,0.7502926000161096
RSVPLG03,si,20260305-170631,1.0.2,20260219-152011,791,Introduction,T1,1,Automatic,main,7,20260305-170728,local,global,750,S,S,A,A,A-S.png,S-A.png,sS,sS,mask-3.png,mask-2.png,s,1,2.0740727999946102,none,-5,0,0.09901380000519566,0.10052780000842176,0.2011023000231944,0.19950660000904463,0.7512580000038724
RSVPLG03,si,20260305-170631,1.0.2,20260219-152011,791,Introduction,T1,1,Automatic,main,8,20260305-170734,local,global,750,H,S,E,E,E-H.png,S-E.png,hH,sS,mask-2.png,mask-4.png,h,1,0.3494660999858752,none,-5,0,0.09805440000491217,0.10201649999362417,0.19850580001366325,0.2022139999899082,0.7497349000186659
RSVPLG03,si,20260305-170631,1.0.2,20260219-152011,791,Introduction,T1,1,Automatic,main,9,20260305-170739,global,local,750,S,S,E,A,S-E.png,A-S.png,sS,sS,mask-3.png,mask-4.png,s,1,0.42599660000996664,none,-5,0,0.09929260000353679,0.0996824000030756,0.20125929999630898,0.20002399999066256,0.750648600020213
RSVPLG03,si,20260305-170631,1.0.2,20260219-152011,791,Introduction,T1,1,Automatic,main,10,20260305-170744,global,local,750,S,S,A,A,S-A.png,A-S.png,sS,sS,mask-1.png,mask-4.png,s,1,1.191374599991832,none,-5,0,0.09947390001616441,0.10081129998434335,0.20129130000714213,0.19970899997861125,0.7510691000206862
RSVPLG03,si,20260305-170631,1.0.2,20260219-152011,791,Introduction,T1,1,Automatic,main,11,20260305-170749,local,global,750,S,H,E,A,E-S.png,H-A.png,sS,hH,mask-3.png,mask-1.png,h,0,0.4263445000106003,none,-5,0,0.1007963000156451,0.10014720002072863,0.20078480002121069,0.200417500018375,0.7519033999997191
RSVPLG03,si,20260305-170631,1.0.2,20260219-152011,791,Introduction,T1,1,Automatic,main,12,20260305-170753,local,global,750,H,H,A,A,A-H.png,H-A.png,hH,hH,mask-1.png,mask-3.png,h,1,0.28347900000517257,none,-5,0,0.09971449998556636,0.09977439997601323,0.2015096000104677,0.20066669999505393,0.7512935000122525
RSVPLG03,si,20260305-170631,1.0.2,20260219-152011,791,Introduction,T1,1,Automatic,main,13,20260305-170758,global,global,750,S,H,A,A,S-A.png,H-A.png,sS,hH,mask-2.png,mask-4.png,s,1,0.8296260999923106,none,-5,0,0.10163740001735277,0.09885600002598949,0.20112390001304448,0.19987790001323447,0.7529622000001837
RSVPLG03,si,20260305-170631,1.0.2,20260219-152011,791,Introduction,T1,1,Automatic,main,14,20260305-170803,global,local,750,S,H,A,E,S-A.png,E-H.png,sS,hH,mask-3.png,mask-3.png,s,1,0.7885409999871626,none,-5,0,0.09975069999927655,0.10009249998256564,0.2005666999903042,0.20104339998215437,0.7507915000023786
RSVPLG03,si,20260305-170631,1.0.2,20260219-152011,791,Introduction,T1,1,Automatic,main,15,20260305-170808,local,local,750,S,S,E,A,E-S.png,A-S.png,sS,sS,mask-4.png,mask-1.png,s,1,1.2999000999843702,none,-5,0,0.10021500001312234,0.09905279998201877,0.19993969998904504,0.20078600000124425,0.7498097000061534
RSVPLG03,si,20260305-170631,1.0.2,20260219-152011,791,Introduction,T1,1,Automatic,main,16,20260305-170813,global,local,750,H,S,A,A,H-A.png,A-S.png,hH,sS,mask-3.png,mask-1.png,h,1,0.4370905999967363,none,-5,0,0.09966619999613613,0.09970739998971112,0.2005236000113655,0.20063430001027882,0.7521109000081196
RSVPLG03,si,20260305-170833,1.0.2,20260219-152011,791,Practice,T1,1,Automatic,main,1,20260305-170853,global,local,300,H,S,E,A,H-E.png,A-S.png,hH,sS,mask-1.png,mask-1.png,h,1,0.8104414000117686,none,-5,0,0.04835939998156391,0.05042149999644607,0.09944249998079613,0.10029100000974722,0.2990370999905281
RSVPLG03,si,20260305-170833,1.0.2,20260219-152011,791,Practice,T1,1,Automatic,main,2,20260305-170857,local,local,750,H,H,E,E,E-H.png,E-H.png,hH,hH,mask-1.png,mask-4.png,h,1,0.6156649999902584,none,-5,0,0.04979960000491701,0.04893879999872297,0.09995790000539273,0.09914259999641217,0.7498979000083636
RSVPLG03,si,20260305-170833,1.0.2,20260219-152011,791,Practice,T1,1,Automatic,main,3,20260305-170901,global,local,750,S,H,E,A,S-E.png,A-H.png,sS,hH,mask-2.png,mask-2.png,s,1,1.1481548000010662,none,-5,0,0.05089749998296611,0.04986319999443367,0.1009360000025481,0.09996009999304079,0.7506617000035476
RSVPLG03,si,20260305-170833,1.0.2,20260219-152011,791,Practice,T1,1,Automatic,main,4,20260305-170907,global,global,750,S,S,A,A,S-A.png,S-A.png,sS,sS,mask-1.png,mask-1.png,s,1,1.2418373000109568,none,-5,0,0.050298199988901615,0.04850459998124279,0.1009446999814827,0.09850179997738451,0.7526415000029374
RSVPLG03,si,20260305-170833,1.0.2,20260219-152011,791,Practice,T1,1,Automatic,main,5,20260305-170912,global,global,750,S,S,A,E,S-A.png,S-E.png,sS,sS,mask-4.png,mask-4.png,s,1,0.8113473000121303,none,-5,0,0.04992400002083741,0.04988269999739714,0.09890700000687502,0.0995833000051789,0.750169700011611
RSVPLG03,si,20260305-170833,1.0.2,20260219-152011,791,Practice,T1,1,Automatic,main,6,20260305-170917,local,global,750,H,H,A,A,A-H.png,H-A.png,hH,hH,mask-3.png,mask-1.png,h,1,0.5299097999813966,none,-5,0,0.05064020000281744,0.050682100001722574,0.10040390002541244,0.10047830000985414,0.7500113999994937
RSVPLG03,si,20260305-170833,1.0.2,20260219-152011,791,Practice,T1,1,Automatic,main,7,20260305-170921,local,local,750,S,S,A,E,A-S.png,E-S.png,sS,sS,mask-1.png,mask-2.png,s,1,0.3703471000189893,none,-5,0,0.05085729999700561,0.0490873999951873,0.10176660001161508,0.0983583000197541,0.7520824999955948
RSVPLG03,si,20260305-170833,1.0.2,20260219-152011,791,Practice,T1,1,Automatic,main,8,20260305-170925,global,local,300,H,S,A,A,H-A.png,A-S.png,hH,sS,mask-3.png,mask-3.png,h,1,1.5779479999910109,none,-5,0,0.04906440002378076,0.04995109999435954,0.0992761000234168,0.10029139998368919,0.29938950002542697
RSVPLG03,si,20260305-170833,1.0.2,20260219-152011,791,Practice,T1,1,Automatic,main,9,20260305-170930,local,global,300,S,S,E,E,E-S.png,S-E.png,sS,sS,mask-3.png,mask-3.png,s,1,1.3100933999812696,none,-5,0,0.04956000001402572,0.04980310000246391,0.10099390000686981,0.09971069998573512,0.3008447000174783
RSVPLG03,si,20260305-170833,1.0.2,20260219-152011,791,Practice,T1,1,Automatic,main,10,20260305-170935,local,local,300,H,H,A,E,A-H.png,E-H.png,hH,hH,mask-4.png,mask-2.png,h,1,0.504030399984913,none,-5,0,0.04953889999887906,0.05060829999274574,0.09992659999988973,0.1011687999998685,0.29904830001760274
RSVPLG03,si,20260305-170833,1.0.2,20260219-152011,791,Practice,T1,1,Automatic,main,11,20260305-170939,global,global,300,S,H,E,E,S-E.png,H-E.png,sS,hH,mask-4.png,mask-2.png,s,1,0.733344100008253,none,-5,0,0.0491526999976486,0.04899809998460114,0.09887719998368993,0.09910279998439364,0.30010769999353215
RSVPLG03,si,20260305-170833,1.0.2,20260219-152011,791,Practice,T1,1,Automatic,main,12,20260305-170944,local,global,300,H,H,E,E,E-H.png,H-E.png,hH,hH,mask-1.png,mask-2.png,h,1,0.3185469000018202,none,-5,0,0.05085060000419617,0.04966370001784526,0.10054020001552999,0.09960260000661947,0.301560599997174
RSVPLG03,si,20260305-170833,1.0.2,20260219-152011,791,Practice,T1,1,Automatic,main,13,20260305-170947,global,local,750,H,H,E,A,H-E.png,A-H.png,hH,hH,mask-1.png,mask-4.png,h,1,0.7091889999865089,none,-5,0,0.05018220000783913,0.04924510000273585,0.10012180000194348,0.10013229999458417,0.7505000999954063
RSVPLG03,si,20260305-170833,1.0.2,20260219-152011,791,Practice,T1,1,Automatic,main,14,20260305-170952,local,global,750,S,S,A,A,A-S.png,S-A.png,sS,sS,mask-3.png,mask-4.png,s,1,1.5597034000093117,none,-5,0,0.04959519999101758,0.04970469998079352,0.09821589998318814,0.098838199977763,0.7499920999980532
RSVPLG03,si,20260305-170833,1.0.2,20260219-152011,791,Practice,T1,1,Automatic,main,15,20260305-170958,global,global,300,H,S,A,A,H-A.png,S-A.png,hH,sS,mask-4.png,mask-3.png,h,1,0.8324851999932434,none,-5,0,0.04852799998479895,0.04971629998181015,0.09990559998550452,0.10006249998696148,0.2988015000009909
RSVPLG03,si,20260305-170833,1.0.2,20260219-152011,791,Practice,T1,1,Automatic,main,16,20260305-171002,local,local,300,H,H,A,E,A-H.png,E-H.png,hH,hH,mask-2.png,mask-4.png,h,1,2.1343749000225216,none,-5,0,0.05078900000080466,0.04902199999196455,0.09954229998402297,0.09932999999728054,0.30021230000420474
RSVPLG03,si,20260305-171057,1.0.2,20260219-152011,791,Introduction,Both,1,Automatic,main,1,20260305-171120,local,global,750,S,S,A,E,A-S.png,S-E.png,sS,sS,mask-2.png,mask-1.png,s,1,1.7619836000085343,h,0,2.026018299977295,0.0968216999899596,0.10065030000987463,0.19648509999387898,0.19945849999203347,0.7467848999949638
RSVPLG03,si,20260305-171057,1.0.2,20260219-152011,791,Introduction,Both,1,Automatic,main,2,20260305-171128,global,global,750,H,S,A,E,H-A.png,S-E.png,hH,sS,mask-2.png,mask-1.png,h,1,1.5282802000001539,s,1,0.5291683999821544,0.10184909999952652,0.10030009999172762,0.20065310000791214,0.20055670000147074,0.7496561000007205
RSVPLG03,si,20260305-171057,1.0.2,20260219-152011,791,Introduction,Both,1,Automatic,main,3,20260305-171134,local,local,750,H,S,A,E,A-H.png,E-S.png,hH,sS,mask-3.png,mask-2.png,h,1,2.163702799996827,s,1,0.02569559999392368,0.1006063999957405,0.09976579999784008,0.20066940001561306,0.20069189998321235,0.7505293000140227
RSVPLG03,si,20260305-171057,1.0.2,20260219-152011,791,Introduction,Both,1,Automatic,main,4,20260305-171141,global,local,750,H,S,E,E,H-E.png,E-S.png,hH,sS,mask-1.png,mask-1.png,h,1,3.714020299987169,h,0,0.9533039999951143,0.09937350000836886,0.10108539997600019,0.19828690000576898,0.20038510000449605,0.748107000021264
RSVPLG03,si,20260305-171057,1.0.2,20260219-152011,791,Introduction,Both,1,Automatic,main,5,20260305-171150,local,global,750,S,S,E,E,E-S.png,S-E.png,sS,sS,mask-1.png,mask-4.png,s,1,0.6571526000043377,s,1,0.7770819999859668,0.09986449999269098,0.09883420000551268,0.19849039998371154,0.19884990001446567,0.7495588999881875
RSVPLG03,si,20260305-171057,1.0.2,20260219-152011,791,Introduction,Both,1,Automatic,main,6,20260305-171156,global,local,750,H,S,E,A,H-E.png,A-S.png,hH,sS,mask-2.png,mask-3.png,h,1,1.823193899996113,s,1,1.28057189998799,0.1000509999867063,0.10075799998594448,0.1989385999913793,0.20036389998858795,0.7489910000003874
RSVPLG03,si,20260305-171057,1.0.2,20260219-152011,791,Introduction,Both,1,Automatic,main,7,20260305-171203,local,local,750,S,S,A,A,A-S.png,A-S.png,sS,sS,mask-1.png,mask-2.png,s,1,1.3611712999991141,s,1,0.1529242999968119,0.10069299998576753,0.09877259997301735,0.1997382999979891,0.19862019998254254,0.7508465000137221
RSVPLG03,si,20260305-171057,1.0.2,20260219-152011,791,Introduction,Both,1,Automatic,main,8,20260305-171209,local,global,750,S,S,A,A,A-S.png,S-A.png,sS,sS,mask-4.png,mask-3.png,s,1,1.3116676000063308,s,1,0.19289729997399263,0.10028610000154004,0.10354310000548139,0.20037690000026487,0.1996895000047516,0.7501023999939207
RSVPLG03,si,20260305-171057,1.0.2,20260219-152011,791,Introduction,Both,1,Automatic,main,9,20260305-171215,local,local,750,S,S,A,A,A-S.png,A-S.png,sS,sS,mask-3.png,mask-4.png,s,1,0.7925855999928899,s,1,0.12933049999992363,0.10008689999813214,0.09928350002155639,0.19958409998798743,0.1984736000013072,0.751491899980465
RSVPLG03,si,20260305-171057,1.0.2,20260219-152011,791,Introduction,Both,1,Automatic,main,10,20260305-171220,global,local,750,H,H,A,E,H-A.png,E-H.png,hH,hH,mask-1.png,mask-2.png,h,1,0.7999986999784596,h,1,0.16115410000202246,0.10024120000889525,0.10184769998886622,0.1998920000041835,0.20011579999118112,0.7500470000086352
RSVPLG03,si,20260305-171057,1.0.2,20260219-152011,791,Introduction,Both,1,Automatic,main,11,20260305-171225,global,global,750,H,S,A,E,H-A.png,S-E.png,hH,sS,mask-1.png,mask-4.png,h,1,1.5351561999996193,s,1,0.15350250000483356,0.09870430000592023,0.09972399999969639,0.198881899996195,0.19943810001132078,0.7500489999947604
RSVPLG03,si,20260305-171057,1.0.2,20260219-152011,791,Introduction,Both,1,Automatic,main,12,20260305-171231,global,global,750,S,S,E,A,S-E.png,S-A.png,sS,sS,mask-3.png,mask-2.png,s,1,1.5258833999978378,h,0,0.2806640999915544,0.09983150000334717,0.10138899998855777,0.2005801000050269,0.20117539999773726,0.7502494000073057
RSVPLG03,si,20260305-171057,1.0.2,20260219-152011,791,Introduction,Both,1,Automatic,main,13,20260305-171237,global,local,750,S,H,E,E,S-E.png,E-H.png,sS,hH,mask-3.png,mask-3.png,s,1,1.5716081999999005,h,1,0.0007449999975506216,0.09958589999587275,0.10012730001471937,0.20053969998843968,0.2006569000077434,0.7500017999846023
RSVPLG03,si,20260305-171057,1.0.2,20260219-152011,791,Introduction,Both,1,Automatic,main,14,20260305-171243,local,global,750,H,H,A,A,A-H.png,H-A.png,hH,hH,mask-4.png,mask-3.png,h,1,0.8880660999857355,h,1,0.1463940000103321,0.09802189999027178,0.09973170000012033,0.199182699987432,0.19987740000942722,0.7493426000000909
RSVPLG03,si,20260305-171057,1.0.2,20260219-152011,791,Introduction,Both,1,Automatic,main,15,20260305-171249,local,local,750,S,S,E,E,E-S.png,E-S.png,sS,sS,mask-4.png,mask-2.png,s,1,1.1542234000226017,s,1,0.09605960000772029,0.09963159999460913,0.1003834999864921,0.20083210000302643,0.20056329999351874,0.7497864000033587
RSVPLG03,si,20260305-171057,1.0.2,20260219-152011,791,Introduction,Both,1,Automatic,main,16,20260305-171254,global,global,750,H,H,E,E,H-E.png,H-E.png,hH,hH,mask-3.png,mask-3.png,h,1,0.33563970000250265,h,1,0.16966210000100546,0.09954429999925196,0.09881540000787936,0.1999155000085011,0.1998191000020597,0.75027570000384
RSVPLG03,si,20260305-171328,1.0.2,20260219-152011,791,Experiment,Both,1,Automatic,warmup,1,20260305-171403,global,local,300,H,H,E,E,H-E.png,E-H.png,hH,hH,mask-4.png,mask-1.png,h,1,1.1156597999797668,s,0,0.6966701000055764,0.044965799985220656,0.05036719999043271,0.09638939998694696,0.10133269999641925,0.2947105999919586
RSVPLG03,si,20260305-171328,1.0.2,20260219-152011,791,Experiment,Both,1,Automatic,warmup,2,20260305-171409,global,global,750,S,S,E,E,S-E.png,S-E.png,sS,sS,mask-2.png,mask-4.png,s,1,1.3261463999806438,s,1,0.280765400006203,0.05154099999344908,0.04932120000012219,0.10054310000850819,0.0998152999964077,0.7504607000155374
RSVPLG03,si,20260305-171328,1.0.2,20260219-152011,791,Experiment,Both,1,Automatic,warmup,3,20260305-171415,global,local,750,H,S,E,E,H-E.png,E-S.png,hH,sS,mask-4.png,mask-1.png,h,1,0.8765239999920595,s,1,0.09027899999637157,0.050519100012024865,0.05007500000647269,0.10077210000599734,0.09896709999884479,0.7508832000021357
RSVPLG03,si,20260305-171328,1.0.2,20260219-152011,791,Experiment,Both,1,Automatic,warmup,4,20260305-171420,local,local,750,S,H,A,A,A-S.png,A-H.png,sS,hH,mask-2.png,mask-2.png,s,1,0.4723897000076249,h,1,0.3294914999860339,0.049404799996409565,0.04964849998941645,0.09980689999065362,0.09835039998870343,0.7512294999905862
RSVPLG03,si,20260305-171328,1.0.2,20260219-152011,791,Experiment,Both,1,Automatic,main,5,20260305-171425,global,local,750,H,H,E,E,H-E.png,E-H.png,hH,hH,mask-1.png,mask-1.png,h,1,0.5052705999987666,h,1,0.12221060000592843,0.050358800013782457,0.049549899995326996,0.10128709999844432,0.09932939999271184,0.7515949000080582
RSVPLG03,si,20260305-171328,1.0.2,20260219-152011,791,Experiment,Both,1,Automatic,main,6,20260305-171429,global,global,300,S,H,A,A,S-A.png,H-A.png,sS,hH,mask-3.png,mask-2.png,s,1,2.685757500003092,s,0,0.18579260000842623,0.04988710000179708,0.050880399998277426,0.10190249999868684,0.09990500001003966,0.3009042000048794
RSVPLG03,si,20260305-171328,1.0.2,20260219-152011,791,Experiment,Both,1,Automatic,main,7,20260305-171436,local,local,750,S,H,A,E,A-S.png,E-H.png,sS,hH,mask-4.png,mask-4.png,s,1,0.5459078999992926,h,1,0.0792057000217028,0.04974359998595901,0.050043399998685345,0.09960719998343848,0.10087890000431798,0.7506310999742709
RSVPLG03,si,20260305-171328,1.0.2,20260219-152011,791,Experiment,Both,1,Automatic,main,8,20260305-171441,global,global,750,S,S,A,E,S-A.png,S-E.png,sS,sS,mask-2.png,mask-1.png,s,1,2.7356883000175003,s,1,0.0886056000017561,0.050566299993079156,0.05025030000251718,0.09977749999961816,0.10076380000100471,0.7506251999875531
RSVPLG03,si,20260305-171328,1.0.2,20260219-152011,791,Experiment,Both,1,Automatic,main,9,20260305-171448,global,global,300,H,S,A,E,H-A.png,S-E.png,hH,sS,mask-4.png,mask-3.png,h,1,0.5982800999772735,s,1,0.07279510001535527,0.04977749998215586,0.050843300006818026,0.10073939998983406,0.1003002000215929,0.2996664999809582
RSVPLG03,si,20260305-171328,1.0.2,20260219-152011,791,Experiment,Both,1,Automatic,main,10,20260305-171452,global,local,300,H,S,E,E,H-E.png,E-S.png,hH,sS,mask-3.png,mask-4.png,h,1,0.4626648999983445,s,1,0.02548090001801029,0.0500424999918323,0.050677400024142116,0.101299600006314,0.10002640000311658,0.30010609998134896
RSVPLG03,si,20260305-171328,1.0.2,20260219-152011,791,Experiment,Both,1,Automatic,main,11,20260305-171456,local,global,300,H,H,E,A,E-H.png,H-A.png,hH,hH,mask-3.png,mask-2.png,h,1,1.345765800011577,s,0,0.018332600011490285,0.0500647000153549,0.05101199998171069,0.10001840000040829,0.09980209998320788,0.29949930001748726
RSVPLG03,si,20260305-171328,1.0.2,20260219-152011,791,Experiment,Both,1,Automatic,main,12,20260305-171501,local,global,300,S,S,A,A,A-S.png,S-A.png,sS,sS,mask-4.png,mask-3.png,s,1,0.7646335000172257,h,0,0.0001652000064495951,0.04973600001540035,0.04975400000694208,0.10053120000520721,0.09959270001854748,0.29963920000591315
RSVPLG03,si,20260305-171328,1.0.2,20260219-152011,791,Experiment,Both,1,Automatic,main,13,20260305-171506,global,local,750,S,H,A,A,S-A.png,A-H.png,sS,hH,mask-3.png,mask-4.png,s,1,0.4673917000181973,h,1,0.09748180001042783,0.050656599982175976,0.050021299975924194,0.10058259998913854,0.10073889998602681,0.7504278999986127
RSVPLG03,si,20260305-171328,1.0.2,20260219-152011,791,Experiment,Both,1,Automatic,main,14,20260305-171511,global,global,750,H,H,A,E,H-A.png,H-E.png,hH,hH,mask-4.png,mask-1.png,h,1,0.7203743999998551,h,1,0.08835010000620969,0.049133699998492375,0.04999229998793453,0.09978580000461079,0.10008410000591539,0.7489630999916699
RSVPLG03,si,20260305-171328,1.0.2,20260219-152011,791,Experiment,Both,1,Automatic,main,15,20260305-171515,local,local,750,H,S,A,E,A-H.png,E-S.png,hH,sS,mask-3.png,mask-3.png,h,1,0.48162890001549385,s,1,0.06521450000582263,0.049638800002867356,0.04961919999914244,0.10002409998560324,0.1003822999773547,0.7499884999997448
RSVPLG03,si,20260305-171328,1.0.2,20260219-152011,791,Experiment,Both,1,Automatic,main,16,20260305-171520,global,local,300,H,S,E,E,H-E.png,E-S.png,hH,sS,mask-2.png,mask-4.png,h,1,0.5656965999805834,s,1,0.0010519000061322004,0.04915399997844361,0.05122219998156652,0.09934369998518378,0.10038069999427535,0.29873209999641404
RSVPLG03,si,20260305-171328,1.0.2,20260219-152011,791,Experiment,Both,1,Automatic,main,17,20260305-171524,global,local,750,S,S,A,A,S-A.png,A-S.png,sS,sS,mask-2.png,mask-1.png,s,1,0.63883710000664,s,1,0.17588090000208467,0.04994149997946806,0.04816289999871515,0.09993109997594729,0.09993050000048243,0.7519139999931213
RSVPLG03,si,20260305-171328,1.0.2,20260219-152011,791,Experiment,Both,1,Automatic,main,18,20260305-171530,local,local,300,S,H,E,E,E-S.png,E-H.png,sS,hH,mask-2.png,mask-3.png,s,1,0.49502219998976216,h,1,0.033452399977250025,0.049953200010349974,0.051012500014621764,0.0990868000080809,0.10114670000621118,0.2992573000083212
RSVPLG03,si,20260305-171328,1.0.2,20260219-152011,791,Experiment,Both,1,Automatic,main,19,20260305-171534,global,global,300,H,S,E,E,H-E.png,S-E.png,hH,sS,mask-3.png,mask-3.png,h,1,0.492686000012327,s,1,0.032107300008647144,0.05017760000191629,0.05138049999368377,0.09992569999303669,0.10025879999739118,0.3001866999838967
RSVPLG03,si,20260305-171328,1.0.2,20260219-152011,791,Experiment,Both,1,Automatic,main,20,20260305-171538,local,local,300,H,H,E,A,E-H.png,A-H.png,hH,hH,mask-4.png,mask-3.png,h,1,0.4419947999995202,h,1,0.09724490001099184,0.04969640000490472,0.04967269999906421,0.09973660000832751,0.1014415999816265,0.29877740002120845
RSVPLG03,si,20260305-171328,1.0.2,20260219-152011,791,Experiment,Both,1,Automatic,main,21,20260305-171542,global,global,750,S,H,E,A,S-E.png,H-A.png,sS,hH,mask-4.png,mask-3.png,s,1,0.40965340001275763,h,1,0.034227099997224286,0.048382600012701005,0.051520399982109666,0.09835350001230836,0.10042569998768158,0.7479680000105873
RSVPLG03,si,20260305-171328,1.0.2,20260219-152011,791,Experiment,Both,1,Automatic,main,22,20260305-171547,local,local,300,H,S,A,A,A-H.png,A-S.png,hH,sS,mask-4.png,mask-3.png,h,1,0.4574950000096578,s,1,0.033759199985070154,0.04891539999516681,0.049127800011774525,0.09857869998086244,0.10164300000178628,0.29962109998450615
RSVPLG03,si,20260305-171328,1.0.2,20260219-152011,791,Experiment,Both,1,Automatic,main,23,20260305-171551,local,global,750,H,H,E,A,E-H.png,H-A.png,hH,hH,mask-3.png,mask-1.png,h,1,0.9187951000058092,s,0,0.016648100019665435,0.049947000021347776,0.049426999990828335,0.10124420002102852,0.09940569999162108,0.7507315000111703
RSVPLG03,si,20260305-171328,1.0.2,20260219-152011,791,Experiment,Both,1,Automatic,main,24,20260305-171556,local,local,300,S,S,A,A,A-S.png,A-S.png,sS,sS,mask-3.png,mask-2.png,h,0,0.8706526999885682,h,0,0.15009829998598434,0.05008239997550845,0.04994209998403676,0.10017039999365807,0.10167760000331327,0.3000000999891199
RSVPLG03,si,20260305-171328,1.0.2,20260219-152011,791,Experiment,Both,1,Automatic,main,25,20260305-171601,global,global,750,S,H,E,A,S-E.png,H-A.png,sS,hH,mask-4.png,mask-4.png,s,1,0.40977830000338145,h,1,0.00902750002569519,0.04879830000572838,0.050462800019886345,0.09850620001088828,0.10097970001515932,0.7492691999941599
RSVPLG03,si,20260305-171328,1.0.2,20260219-152011,791,Experiment,Both,1,Automatic,main,26,20260305-172021,local,local,750,S,H,E,E,E-S.png,E-H.png,sS,hH,mask-2.png,mask-1.png,s,1,0.27640989999054,h,1,0.12666989999706857,0.04965309999533929,0.05085619998862967,0.10051769998972304,0.1008049999945797,0.7501102999958675
RSVPLG03,si,20260305-171328,1.0.2,20260219-152011,791,Experiment,Both,1,Automatic,main,27,20260305-172026,local,local,300,S,S,E,E,E-S.png,E-S.png,sS,sS,mask-3.png,mask-2.png,s,1,0.41541480002342723,s,1,0.1624741000123322,0.04975630002445541,0.050674800004344434,0.0996799000131432,0.1005353000073228,0.2992382000084035
RSVPLG03,si,20260305-171328,1.0.2,20260219-152011,791,Experiment,Both,1,Automatic,main,28,20260305-172030,global,local,300,S,S,E,E,S-E.png,E-S.png,sS,sS,mask-4.png,mask-3.png,s,1,1.108358400000725,s,1,0.07401909999316558,0.05062359999283217,0.049046500003896654,0.10048950000782497,0.09894749999511987,0.3007066999853123
RSVPLG03,si,20260305-171328,1.0.2,20260219-152011,791,Experiment,Both,1,Automatic,main,29,20260305-172035,global,local,300,H,S,E,E,H-E.png,E-S.png,hH,sS,mask-4.png,mask-4.png,h,1,0.36507780000101775,s,1,0.026687800011131912,0.04961319998255931,0.04827639998984523,0.09978669998236,0.10022659998503514,0.300409799994668
RSVPLG03,si,20260305-171328,1.0.2,20260219-152011,791,Experiment,Both,1,Automatic,main,30,20260305-172039,global,local,750,H,S,E,E,H-E.png,E-S.png,hH,sS,mask-1.png,mask-3.png,h,1,0.2516907000099309,s,1,0.00959939998574555,0.049924899998586625,0.0502406999876257,0.09942319997935556,0.099974500015378,0.7495589999889489
RSVPLG03,si,20260305-171328,1.0.2,20260219-152011,791,Experiment,Both,1,Automatic,main,31,20260305-172043,global,global,300,S,S,A,A,S-A.png,S-A.png,sS,sS,mask-1.png,mask-4.png,s,1,0.36368039998342283,s,1,0.3761443999828771,0.05059519998030737,0.04979680001270026,0.09947929999907501,0.0992141000169795,0.30033439997350797
RSVPLG03,si,20260305-171328,1.0.2,20260219-152011,791,Experiment,Both,1,Automatic,main,32,20260305-172048,global,global,300,S,H,A,A,S-A.png,H-A.png,sS,hH,mask-4.png,mask-4.png,s,1,0.2811865999829024,h,1,0.02387169998837635,0.04921550001017749,0.050652499980060384,0.10140210000099614,0.10066480000386946,0.29961710001225583
RSVPLG03,si,20260305-171328,1.0.2,20260219-152011,791,Experiment,Both,1,Automatic,main,33,20260305-172052,global,global,750,H,H,A,E,H-A.png,H-E.png,hH,hH,mask-4.png,mask-4.png,h,1,0.3176243999914732,h,1,0.07379100000252947,0.04988070001127198,0.04957289999583736,0.1001424000132829,0.1002771999919787,0.7510981000086758
RSVPLG03,si,20260305-171328,1.0.2,20260219-152011,791,Experiment,Both,1,Automatic,main,34,20260305-172056,local,global,300,S,S,A,E,A-S.png,S-E.png,sS,sS,mask-3.png,mask-4.png,s,1,0.47631679999176413,s,1,1.152918999985559,0.05032909999135882,0.05167849999270402,0.09874790001777001,0.10082779999356717,0.2982066000113264
RSVPLG03,si,20260305-171328,1.0.2,20260219-152011,791,Experiment,Both,1,Automatic,main,35,20260305-172101,global,local,750,S,H,E,E,S-E.png,E-H.png,sS,hH,mask-4.png,mask-4.png,s,1,0.6124366000003647,s,0,0.10510590000194497,0.050907099997857586,0.05110020001302473,0.10088669997639954,0.10092420000000857,0.7506060999876354
RSVPLG03,si,20260305-171328,1.0.2,20260219-152011,791,Experiment,Both,1,Automatic,main,36,20260305-172106,local,global,750,S,H,A,A,A-S.png,H-A.png,sS,hH,mask-2.png,mask-1.png,s,1,0.9017610999871977,s,0,0.12820570002077147,0.050994599994737655,0.04878449998795986,0.10224390000803396,0.09926039999118075,0.7523722000187263
RSVPLG03,si,20260305-171328,1.0.2,20260219-152011,791,Experiment,Both,1,Automatic,main,37,20260305-172111,local,global,750,S,H,E,A,E-S.png,H-A.png,sS,hH,mask-3.png,mask-4.png,s,1,0.40947119999327697,h,1,0.04075610000290908,0.05068519999622367,0.049598899990087375,0.1008639000065159,0.09949260001303628,0.750752799998736
RSVPLG03,si,20260305-171328,1.0.2,20260219-152011,791,Experiment,Both,1,Automatic,main,38,20260305-172116,global,local,750,S,H,E,A,S-E.png,A-H.png,sS,hH,mask-1.png,mask-4.png,s,1,0.27020609998726286,h,1,0.03377139999065548,0.0499061000009533,0.04930449998937547,0.09929240000201389,0.09887929999968037,0.7505268000240903
RSVPLG03,si,20260305-171328,1.0.2,20260219-152011,791,Experiment,Both,1,Automatic,main,39,20260305-172120,local,local,300,H,H,E,E,E-H.png,E-H.png,hH,hH,mask-2.png,mask-1.png,h,1,0.2873206999793183,h,1,0.09578000000328757,0.049139600014314055,0.05037190002622083,0.09990810000454076,0.10036540002329275,0.2994241999986116
RSVPLG03,si,20260305-171328,1.0.2,20260219-152011,791,Experiment,Both,1,Automatic,main,40,20260305-172124,local,local,750,H,H,E,E,E-H.png,E-H.png,hH,hH,mask-2.png,mask-2.png,h,1,0.22248190001118928,h,1,0.07421849999809638,0.04907680000178516,0.05007350002415478,0.09961539998766966,0.0998074000235647,0.7501663999864832
RSVPLG03,si,20260305-171328,1.0.2,20260219-152011,791,Experiment,Both,1,Automatic,main,41,20260305-172128,local,local,300,H,H,A,A,A-H.png,A-H.png,hH,hH,mask-4.png,mask-1.png,h,1,0.3521688000182621,h,1,0.0650974000163842,0.049253800010774285,0.04987650000839494,0.09857980001834221,0.09836810000706464,0.2997849000093993
RSVPLG03,si,20260305-171328,1.0.2,20260219-152011,791,Experiment,Both,1,Automatic,main,42,20260305-172132,global,global,750,S,H,E,A,S-E.png,H-A.png,sS,hH,mask-3.png,mask-2.png,s,1,1.298771100002341,h,1,0.008738200005609542,0.04979920000187121,0.04865129999234341,0.09961829998064786,0.10023250000085682,0.751688499993179
RSVPLG03,si,20260305-171328,1.0.2,20260219-152011,791,Experiment,Both,1,Automatic,main,43,20260305-172138,global,global,300,H,S,A,A,H-A.png,S-A.png,hH,sS,mask-3.png,mask-1.png,h,1,0.333442200004356,s,1,0.048519000003580004,0.04729620000580326,0.04959480001707561,0.0984998999920208,0.09975850000046194,0.2984973999846261
RSVPLG03,si,20260305-171328,1.0.2,20260219-152011,791,Experiment,Both,1,Automatic,main,44,20260305-172142,global,global,750,H,S,E,A,H-E.png,S-A.png,hH,sS,mask-4.png,mask-3.png,h,1,0.22263900001416914,s,1,0.02674870000919327,0.04854160000104457,0.04803099998389371,0.09828800000832416,0.09980540000833571,0.7507587000145577
RSVPLG03,si,20260305-171328,1.0.2,20260219-152011,791,Experiment,Both,1,Automatic,main,45,20260305-172146,local,global,300,H,H,A,A,A-H.png,H-A.png,hH,hH,mask-4.png,mask-3.png,h,1,0.33941719998256303,s,0,0.031703999993624166,0.05056599999079481,0.04978589998790994,0.10084739999729209,0.100209399999585,0.30061010000645183
RSVPLG03,si,20260305-171328,1.0.2,20260219-152011,791,Experiment,Both,1,Automatic,main,46,20260305-172150,local,global,300,H,H,E,A,E-H.png,H-A.png,hH,hH,mask-4.png,mask-4.png,h,1,0.7020149999880232,h,1,0.32776539999758825,0.0489905999857001,0.05006649999995716,0.09831149998353794,0.0993233000044711,0.3002583999768831
RSVPLG03,si,20260305-171328,1.0.2,20260219-152011,791,Experiment,Both,1,Automatic,main,47,20260305-172155,local,global,750,H,H,A,A,A-H.png,H-A.png,hH,hH,mask-3.png,mask-4.png,h,1,0.604083799989894,h,1,0.07371950001106597,0.05008089999319054,0.04930509999394417,0.10019950001151301,0.10017729998799041,0.751659200002905
RSVPLG03,si,20260305-171328,1.0.2,20260219-152011,791,Experiment,Both,1,Automatic,main,48,20260305-172200,local,local,300,S,H,A,E,A-S.png,E-H.png,sS,hH,mask-3.png,mask-4.png,s,1,0.541999900015071,h,1,0.6859933999949135,0.0497081000066828,0.05128020001575351,0.10068579998915084,0.10052870001527481,0.2994751999794971
RSVPLG03,si,20260305-171328,1.0.2,20260219-152011,791,Experiment,Both,1,Automatic,main,49,20260305-172204,local,local,750,H,S,E,A,E-H.png,A-S.png,hH,sS,mask-2.png,mask-4.png,h,1,0.26941149999038316,s,1,0.08179900000686757,0.05023369999253191,0.04870590000064112,0.09966539999004453,0.09955499999341555,0.7498869999835733
RSVPLG03,si,20260305-171328,1.0.2,20260219-152011,791,Experiment,Both,1,Automatic,main,50,20260305-172209,global,local,300,H,H,E,A,H-E.png,A-H.png,hH,hH,mask-4.png,mask-3.png,h,1,0.3595439000055194,h,1,0.11325160000706092,0.04979799999273382,0.04994970001280308,0.09943609999027103,0.09975330001907423,0.30041259998688474
RSVPLG03,si,20260305-171328,1.0.2,20260219-152011,791,Experiment,Both,1,Automatic,main,51,20260305-172220,global,global,300,S,H,E,E,S-E.png,H-E.png,sS,hH,mask-3.png,mask-3.png,h,0,26.16370740000275,s,0,0.36918610002612695,0.04972370000905357,0.05094159999862313,0.09957469999790192,0.10082140000304207,0.29923910001525655
RSVPLG03,si,20260305-171328,1.0.2,20260219-152011,791,Experiment,Both,1,Automatic,main,52,20260305-172250,global,local,300,S,H,A,A,S-A.png,A-H.png,sS,hH,mask-2.png,mask-3.png,s,1,1.5389018999994732,h,1,1.6668478999927174,0.050624399998923764,0.05085299999336712,0.100978699978441,0.10104680000222288,0.30004279999411665
RSVPLG03,si,20260305-171328,1.0.2,20260219-152011,791,Experiment,Both,1,Automatic,main,53,20260305-172255,local,global,300,S,H,A,A,A-S.png,H-A.png,sS,hH,mask-1.png,mask-4.png,s,1,0.7981903000036255,h,1,1.2330426000116859,0.05142820000764914,0.04999800000223331,0.10227010000380687,0.09992839998449199,0.3003575000038836
RSVPLG03,si,20260305-171328,1.0.2,20260219-152011,791,Experiment,Both,1,Automatic,main,54,20260305-172301,global,local,750,S,H,E,E,S-E.png,E-H.png,sS,hH,mask-2.png,mask-1.png,s,1,1.3453946999798063,h,1,0.0012962000037077814,0.049740999995265156,0.0500453999848105,0.09962910000467673,0.10110299999359995,0.7507987999997567
RSVPLG03,si,20260305-171328,1.0.2,20260219-152011,791,Experiment,Both,1,Automatic,main,55,20260305-172306,local,local,750,H,S,A,A,A-H.png,A-S.png,hH,sS,mask-2.png,mask-4.png,h,1,0.24707310000667349,s,1,0.0257057000126224,0.05018330001621507,0.050280499999644235,0.10012380001717247,0.09928450000006706,0.7499600000155624
RSVPLG03,si,20260305-171328,1.0.2,20260219-152011,791,Experiment,Both,1,Automatic,main,56,20260305-172311,global,global,300,S,S,A,A,S-A.png,S-A.png,sS,sS,mask-4.png,mask-3.png,s,1,2.493651199998567,s,1,0.081261799990898,0.05004099998041056,0.050704199995379895,0.09979249999742024,0.10077310001361184,0.29844389998470433
RSVPLG03,si,20260305-171328,1.0.2,20260219-152011,791,Experiment,Both,1,Automatic,main,57,20260305-172317,global,local,300,H,H,E,A,H-E.png,A-H.png,hH,hH,mask-2.png,mask-4.png,h,1,0.519876700011082,h,1,0.2334670999844093,0.0488144000119064,0.050234499998623505,0.09863590000895783,0.0999459000013303,0.29830460000084713
RSVPLG03,si,20260305-171328,1.0.2,20260219-152011,791,Experiment,Both,1,Automatic,main,58,20260305-172321,global,local,300,S,S,A,E,S-A.png,E-S.png,sS,sS,mask-2.png,mask-1.png,s,1,1.7443185999873094,s,1,0.3454831999843009,0.049195900006452575,0.05064729999867268,0.1001877999806311,0.10053279998828657,0.29935939999995753
RSVPLG03,si,20260305-171328,1.0.2,20260219-152011,791,Experiment,Both,1,Automatic,main,59,20260305-172327,global,global,300,S,H,E,A,S-E.png,H-A.png,sS,hH,mask-3.png,mask-3.png,s,1,0.34552630002144724,h,1,0.1923127000045497,0.04977759998291731,0.04995400001644157,0.09950829998706467,0.09929929999634624,0.29989199998090044
RSVPLG03,si,20260305-171328,1.0.2,20260219-152011,791,Experiment,Both,1,Automatic,main,60,20260305-172331,local,local,300,S,H,E,A,E-S.png,A-H.png,sS,hH,mask-2.png,mask-2.png,s,1,0.26436659999308176,h,1,0.0012519999872893095,0.05042369998409413,0.05095249999430962,0.09990059997653589,0.10082300001522526,0.29929189998074435
RSVPLG03,si,20260305-171328,1.0.2,20260219-152011,791,Experiment,Both,1,Automatic,main,61,20260305-172335,local,local,750,H,S,A,E,A-H.png,E-S.png,hH,sS,mask-3.png,mask-4.png,h,1,0.20822369999950752,s,1,0.03935860001365654,0.04985800001304597,0.05103540001437068,0.09897809999529272,0.10108550000586547,0.7490251999988686
RSVPLG03,si,20260305-171328,1.0.2,20260219-152011,791,Experiment,Both,1,Automatic,main,62,20260305-172340,local,local,300,S,H,A,A,A-S.png,A-H.png,sS,hH,mask-3.png,mask-2.png,s,1,0.4559421000012662,h,1,0.6158960999746341,0.05081039998913184,0.048691999982111156,0.10016800000448711,0.09989039998617955,0.3017759000067599
RSVPLG03,si,20260305-171328,1.0.2,20260219-152011,791,Experiment,Both,1,Automatic,main,63,20260305-172344,local,local,750,H,H,E,A,E-H.png,A-H.png,hH,hH,mask-4.png,mask-4.png,h,1,0.30979699999443255,h,1,0.08139730000402778,0.05009760000393726,0.051521999994292855,0.09950559999560937,0.1001410000026226,0.749721000000136
RSVPLG03,si,20260305-171328,1.0.2,20260219-152011,791,Experiment,Both,1,Automatic,main,64,20260305-172348,local,local,300,H,H,E,A,E-H.png,A-H.png,hH,hH,mask-2.png,mask-3.png,h,1,0.2466943000035826,h,1,0.07459919998655096,0.05006210002466105,0.050834599998779595,0.09918080002535135,0.10075040001538582,0.29823330001090653
RSVPLG03,si,20260305-171328,1.0.2,20260219-152011,791,Experiment,Both,1,Automatic,main,65,20260305-172352,local,global,750,S,S,A,E,A-S.png,S-E.png,sS,sS,mask-4.png,mask-2.png,s,1,0.5400268999801483,h,0,0.723832499992568,0.05048370000440627,0.05229010002221912,0.10038300001178868,0.10098920000018552,0.7499906999873929
RSVPLG03,si,20260305-171328,1.0.2,20260219-152011,791,Experiment,Both,1,Automatic,main,66,20260305-172357,local,local,750,H,H,E,A,E-H.png,A-H.png,hH,hH,mask-1.png,mask-3.png,h,1,0.26884710000013,h,1,0.09735399999772198,0.04923249999410473,0.05006460001459345,0.09955800001625903,0.10137750001740642,0.7495407999958843
RSVPLG03,si,20260305-171328,1.0.2,20260219-152011,791,Experiment,Both,1,Automatic,main,67,20260305-172402,global,global,750,S,H,E,E,S-E.png,H-E.png,sS,hH,mask-2.png,mask-3.png,s,1,0.701430299988715,h,1,0.6164497999998275,0.049953199981246144,0.04928239999571815,0.09968169999774545,0.10018320000381209,0.7503924999909941
RSVPLG03,si,20260305-171328,1.0.2,20260219-152011,791,Experiment,Both,1,Automatic,main,68,20260305-172407,local,local,750,S,S,E,A,E-S.png,A-S.png,sS,sS,mask-1.png,mask-3.png,s,1,1.291981799993664,h,0,0.007733800011919811,0.049916000018129125,0.05018319998634979,0.10001339999143966,0.10032269998919219,0.7492493000172544
RSVPLG03,si,20260305-171328,1.0.2,20260219-152011,791,Experiment,Both,1,Automatic,main,69,20260305-172413,global,global,750,S,S,E,E,S-E.png,S-E.png,sS,sS,mask-2.png,mask-1.png,s,1,0.596888800006127,h,0,0.724783399986336,0.05100609999499284,0.05016760001308285,0.10191810000105761,0.09884210000745952,0.7519247999880463
RSVPLG03,si,20260305-171328,1.0.2,20260219-152011,791,Experiment,Both,1,Automatic,main,70,20260305-172417,global,global,750,S,H,E,E,S-E.png,H-E.png,sS,hH,mask-4.png,mask-2.png,s,1,0.2392550999938976,h,1,0.18575599999167025,0.049663999991025776,0.04963200000929646,0.10078129998873919,0.09988510000403039,0.7510084999958053
RSVPLG03,si,20260305-171328,1.0.2,20260219-152011,791,Experiment,Both,1,Automatic,main,71,20260305-172422,global,global,300,S,S,E,A,S-E.png,S-A.png,sS,sS,mask-2.png,mask-1.png,s,1,1.3345077999983914,h,0,0.03342219998012297,0.051263000001199543,0.050268499995581806,0.10131480000563897,0.10037949998513795,0.30017560001579113
RSVPLG03,si,20260305-171328,1.0.2,20260219-152011,791,Experiment,Both,1,Automatic,main,72,20260305-172427,local,local,750,S,H,E,A,E-S.png,A-H.png,sS,hH,mask-3.png,mask-2.png,s,1,0.3768835999944713,h,1,0.018005600024480373,0.04907570002251305,0.05117029999382794,0.09878080000635237,0.10046539999893866,0.7492200000269804
RSVPLG03,si,20260305-171328,1.0.2,20260219-152011,791,Experiment,Both,1,Automatic,main,73,20260305-172432,global,local,300,H,H,A,A,H-A.png,A-H.png,hH,hH,mask-2.png,mask-2.png,h,1,0.623594900011085,s,0,0.16896239999914542,0.050083400012226775,0.05019409998203628,0.10036859998945147,0.10096359997987747,0.29922340001212433
RSVPLG03,si,20260305-171328,1.0.2,20260219-152011,791,Experiment,Both,1,Automatic,main,74,20260305-172436,global,global,750,H,H,A,A,H-A.png,H-A.png,hH,hH,mask-3.png,mask-1.png,h,1,0.42429619998438284,h,1,0.15373399999225512,0.04898930000490509,0.049896899989107624,0.09888299999875017,0.10015189999830909,0.7492520000087097
RSVPLG03,si,20260305-171328,1.0.2,20260219-152011,791,Experiment,Both,1,Automatic,main,75,20260305-172441,global,local,300,S,H,A,A,S-A.png,A-H.png,sS,hH,mask-1.png,mask-1.png,s,1,1.0164193999953568,h,1,1.1681397999927867,0.049855099990963936,0.04998640000121668,0.09993899997789413,0.09990279999328777,0.29934589998447336
RSVPLG03,si,20260305-171328,1.0.2,20260219-152011,791,Experiment,Both,1,Automatic,main,76,20260305-172456,local,global,300,H,H,A,A,A-H.png,H-A.png,hH,hH,mask-2.png,mask-1.png,h,1,0.32471780001651496,h,1,0.12057430000277236,0.050643299997318536,0.050530599983176216,0.10003750000032596,0.10161439998773858,0.29959390001022257
RSVPLG03,si,20260305-171328,1.0.2,20260219-152011,791,Experiment,Both,1,Automatic,main,77,20260305-172500,global,local,750,S,S,A,A,S-A.png,A-S.png,sS,sS,mask-2.png,mask-2.png,s,1,0.35152650001691654,h,0,0.009804199973586947,0.049144100019475445,0.04933199999504723,0.09925319999456406,0.09950010001193732,0.7503029000072274
RSVPLG03,si,20260305-171328,1.0.2,20260219-152011,791,Experiment,Both,1,Automatic,main,78,20260305-172505,local,global,300,S,S,E,E,E-S.png,S-E.png,sS,sS,mask-1.png,mask-4.png,s,1,1.2304551000124775,h,0,0.05825679999543354,0.049154400010593235,0.05091280001215637,0.09943020000355318,0.10096559999510646,0.29880650000995956
RSVPLG03,si,20260305-171328,1.0.2,20260219-152011,791,Experiment,Both,1,Automatic,main,79,20260305-172510,global,global,300,H,S,A,E,H-A.png,S-E.png,hH,sS,mask-1.png,mask-4.png,h,1,0.46627159998752177,h,0,0.3699186999874655,0.05173480001394637,0.05005749998963438,0.10161549999611452,0.10003309999592602,0.30201330001000315
RSVPLG03,si,20260305-171328,1.0.2,20260219-152011,791,Experiment,Both,1,Automatic,main,80,20260305-172514,local,global,750,H,H,A,A,A-H.png,H-A.png,hH,hH,mask-1.png,mask-1.png,h,1,0.7493193999980576,h,1,0.3382675999891944,0.04900160001125187,0.051165899989428,0.09981189999962226,0.10060259999590926,0.7495768000080716
RSVPLG03,si,20260305-171328,1.0.2,20260219-152011,791,Experiment,Both,1,Automatic,main,81,20260305-172520,local,global,750,S,H,A,E,A-S.png,H-E.png,sS,hH,mask-4.png,mask-2.png,s,1,0.3742614999937359,h,1,0.07370269999955781,0.048749999987194315,0.049673000001348555,0.0985676999844145,0.10152140000718646,0.7491187999839894
RSVPLG03,si,20260305-171328,1.0.2,20260219-152011,791,Experiment,Both,1,Automatic,main,82,20260305-172524,local,global,750,H,H,E,E,E-H.png,H-E.png,hH,hH,mask-2.png,mask-1.png,h,1,1.0229038000106812,h,1,0.07347799997660331,0.05060909999883734,0.04916660001617856,0.1014570000115782,0.09903710000799038,0.751669099990977
RSVPLG03,si,20260305-171328,1.0.2,20260219-152011,791,Experiment,Both,1,Automatic,main,83,20260305-172529,local,global,300,H,H,E,E,E-H.png,H-E.png,hH,hH,mask-2.png,mask-2.png,h,1,0.40847709999070503,h,1,0.08968340000137687,0.0493848999904003,0.0497326000186149,0.09891530001186766,0.0990876000141725,0.30019839998567477
RSVPLG03,si,20260305-171328,1.0.2,20260219-152011,791,Experiment,Both,1,Automatic,main,84,20260305-172534,global,global,750,H,H,A,E,H-A.png,H-E.png,hH,hH,mask-2.png,mask-2.png,h,1,0.49369609999121167,h,1,0.26553110001259483,0.050231500004883856,0.05115579999983311,0.10023509999155067,0.09983029999420978,0.7501160000101663
RSVPLG03,si,20260305-171328,1.0.2,20260219-152011,791,Experiment,Both,1,Automatic,main,85,20260305-172538,global,local,750,H,S,E,E,H-E.png,E-S.png,hH,sS,mask-1.png,mask-3.png,h,1,0.35625460001756437,s,1,0.057207000005291775,0.04883030001656152,0.049944300000788644,0.09757959999842569,0.10153999997419305,0.7476630000164732
RSVPLG03,si,20260305-171328,1.0.2,20260219-152011,791,Experiment,Both,1,Automatic,main,86,20260305-172543,global,local,750,H,S,E,E,H-E.png,E-S.png,hH,sS,mask-3.png,mask-2.png,h,1,0.3326809999998659,s,1,0.042033999983686954,0.05104469999787398,0.04916970001067966,0.0995122000167612,0.0988223000022117,0.7505993999948259
RSVPLG03,si,20260305-171328,1.0.2,20260219-152011,791,Experiment,Both,1,Automatic,main,87,20260305-172547,global,local,750,H,H,E,A,H-E.png,A-H.png,hH,hH,mask-1.png,mask-4.png,h,1,0.2418576000200119,h,1,0.05711759999394417,0.04997860000003129,0.05000119999749586,0.09922169998753816,0.09996940000564791,0.7497966999944765
RSVPLG03,si,20260305-171328,1.0.2,20260219-152011,791,Experiment,Both,1,Automatic,main,88,20260305-172552,local,global,300,S,H,A,A,A-S.png,H-A.png,sS,hH,mask-2.png,mask-2.png,s,1,0.5837717999820597,h,1,0.0010162999969907105,0.04827629998908378,0.04962619999423623,0.09852239998872392,0.10139280001749285,0.2982424999936484
RSVPLG03,si,20260305-171328,1.0.2,20260219-152011,791,Experiment,Both,1,Automatic,main,89,20260305-172556,local,global,300,H,S,E,A,E-H.png,S-A.png,hH,sS,mask-3.png,mask-2.png,h,1,0.3129768999933731,s,1,0.04970820000744425,0.04890910000540316,0.049985699995886534,0.09842740002204664,0.09993179998127744,0.298973000026308
RSVPLG03,si,20260305-171328,1.0.2,20260219-152011,791,Experiment,Both,1,Automatic,main,90,20260305-172600,global,local,300,S,H,A,A,S-A.png,A-H.png,sS,hH,mask-4.png,mask-4.png,s,1,0.3217836000258103,h,1,0.4737681000260636,0.05020699999295175,0.050175399985164404,0.10031790001085028,0.09997869998915121,0.3008094000106212
RSVPLG03,si,20260305-171328,1.0.2,20260219-152011,791,Experiment,Both,1,Automatic,main,91,20260305-172604,local,global,300,S,S,E,E,E-S.png,S-E.png,sS,sS,mask-4.png,mask-2.png,s,1,0.3385902000009082,h,0,0.5306203000072856,0.049671800021314994,0.04864409999572672,0.09981750001315959,0.09841269999742508,0.30131490001804195
RSVPLG03,si,20260305-171328,1.0.2,20260219-152011,791,Experiment,Both,1,Automatic,main,92,20260305-172608,global,local,750,H,S,E,E,H-E.png,E-S.png,hH,sS,mask-1.png,mask-1.png,h,1,0.20545880001736805,s,1,0.04142419999698177,0.04976130000432022,0.050155799981439486,0.1016568000195548,0.10039759997744113,0.7508740000193939
RSVPLG03,si,20260305-171328,1.0.2,20260219-152011,791,Experiment,Both,1,Automatic,main,93,20260305-172613,local,global,750,H,S,E,A,E-H.png,S-A.png,hH,sS,mask-3.png,mask-3.png,h,1,0.47016899997834116,h,0,0.13521929999114946,0.04938879999099299,0.050226999999722466,0.09968099999241531,0.09967939998023212,0.7496875000069849
RSVPLG03,si,20260305-171328,1.0.2,20260219-152011,791,Experiment,Both,1,Automatic,main,94,20260305-172618,local,global,750,H,H,A,A,A-H.png,H-A.png,hH,hH,mask-4.png,mask-2.png,h,1,0.5139350999961607,h,1,0.09730679998756386,0.04969169999822043,0.04935800001840107,0.09956820000661537,0.10084810000262223,0.7511618999997154
RSVPLG03,si,20260305-171328,1.0.2,20260219-152011,791,Experiment,Both,1,Automatic,main,95,20260305-172622,global,local,300,S,S,A,A,S-A.png,A-S.png,sS,sS,mask-3.png,mask-1.png,s,1,0.29352840001229197,h,0,0.16860269999597222,0.04992459999630228,0.049662799981888384,0.10117460001492873,0.09844869998050854,0.30028260001563467
RSVPLG03,si,20260305-171328,1.0.2,20260219-152011,791,Experiment,Both,1,Automatic,main,96,20260305-172626,global,global,300,H,H,A,E,H-A.png,H-E.png,hH,hH,mask-4.png,mask-3.png,h,1,0.36323529999936,h,1,0.09733499999856576,0.04960970001411624,0.050304199976380914,0.10038779999013059,0.09992929999134503,0.3000037000165321
RSVPLG03,si,20260305-171328,1.0.2,20260219-152011,791,Experiment,Both,1,Automatic,main,97,20260305-172630,local,local,750,S,S,A,A,A-S.png,A-S.png,sS,sS,mask-4.png,mask-2.png,s,1,0.5494118999922648,h,0,0.7094087000004947,0.05042029998730868,0.04843019999680109,0.10078869998687878,0.0980381999979727,0.7523327999806497
RSVPLG03,si,20260305-171328,1.0.2,20260219-152011,791,Experiment,Both,1,Automatic,main,98,20260305-172635,local,global,750,S,S,A,A,A-S.png,S-A.png,sS,sS,mask-1.png,mask-3.png,s,1,0.48041010001907125,s,1,0.08161019999533892,0.05011780001223087,0.05136559999664314,0.1002133000001777,0.10158739998587407,0.7500552000128664
RSVPLG03,si,20260305-171328,1.0.2,20260219-152011,791,Experiment,Both,1,Automatic,main,99,20260305-172640,local,local,300,H,S,E,E,E-H.png,E-S.png,hH,sS,mask-3.png,mask-3.png,h,1,0.36029640000197105,h,0,0.10538870000164025,0.050041899987263605,0.05015219998313114,0.10002330000861548,0.10055949998786673,0.2997572000022046
RSVPLG03,si,20260305-171328,1.0.2,20260219-152011,791,Experiment,Both,1,Automatic,main,100,20260305-172644,local,global,750,H,H,A,E,A-H.png,H-E.png,hH,hH,mask-3.png,mask-2.png,h,1,1.2421242999844253,h,1,0.04158119999920018,0.04887649999000132,0.04921050000120886,0.09910880000097677,0.10010260000126436,0.7506015000108164
RSVPLG03,si,20260305-172713,1.0.2,20260219-152011,791,Experiment,Both,1,Automatic,warmup,1,20260305-172824,global,global,300,S,H,E,E,S-E.png,H-E.png,sS,hH,mask-2.png,mask-4.png,h,0,0.6047684000222944,h,1,0.05744750000303611,0.048696799989556894,0.050507000007200986,0.09877310000592843,0.09913349998532794,0.2983961999998428
RSVPLG03,si,20260305-172713,1.0.2,20260219-152011,791,Experiment,Both,1,Automatic,warmup,2,20260305-172829,local,local,750,H,S,A,E,A-H.png,E-S.png,hH,sS,mask-4.png,mask-1.png,h,1,0.40448620001552626,s,1,0.04793910001171753,0.05044610000913963,0.05069600002025254,0.10094960001879372,0.10055960001773201,0.749445099994773
RSVPLG03,si,20260305-172713,1.0.2,20260219-152011,791,Experiment,Both,1,Automatic,warmup,3,20260305-172833,local,global,750,S,H,A,A,A-S.png,H-A.png,sS,hH,mask-2.png,mask-3.png,s,1,0.6477015999844298,h,1,1.0401413000072353,0.04807109999819659,0.04915240002446808,0.09797850000904873,0.0992450000194367,0.7473341999866534
RSVPLG03,si,20260305-172713,1.0.2,20260219-152011,791,Experiment,Both,1,Automatic,warmup,4,20260305-172839,global,local,750,H,S,E,E,H-E.png,E-S.png,hH,sS,mask-2.png,mask-3.png,h,1,0.35657800000626594,s,1,0.04160620001493953,0.05037410001386888,0.050206499989144504,0.10072570000193082,0.10036569999647327,0.7493220000178553
RSVPLG03,si,20260305-172713,1.0.2,20260219-152011,791,Experiment,Both,1,Automatic,main,5,20260305-172844,global,local,300,S,S,A,E,S-A.png,E-S.png,sS,sS,mask-4.png,mask-2.png,s,1,0.7520091000187676,s,1,0.07273610000265762,0.04910589999053627,0.04874189998372458,0.09991089999675751,0.10055209998972714,0.29975790000753477
RSVPLG03,si,20260305-172713,1.0.2,20260219-152011,791,Experiment,Both,1,Automatic,main,6,20260305-172848,local,local,750,H,S,E,E,E-H.png,E-S.png,hH,sS,mask-3.png,mask-3.png,h,1,0.2615966000012122,s,1,0.050036500004353,0.04889539998839609,0.0497730000060983,0.09866710001369938,0.09986919999937527,0.7497311999904923
RSVPLG03,si,20260305-172713,1.0.2,20260219-152011,791,Experiment,Both,1,Automatic,main,7,20260305-172853,global,local,300,H,H,E,A,H-E.png,A-H.png,hH,hH,mask-3.png,mask-1.png,h,1,0.5132940000039525,h,1,0.0668809000053443,0.05144419998396188,0.0492513999924995,0.0999514999857638,0.09944140000152402,0.30041339999297634
RSVPLG03,si,20260305-172713,1.0.2,20260219-152011,791,Experiment,Both,1,Automatic,main,8,20260305-172857,global,local,750,S,H,A,A,S-A.png,A-H.png,sS,hH,mask-2.png,mask-3.png,s,1,0.35208779998356476,h,1,0.46485519999987446,0.049935399991227314,0.050239000003784895,0.1004139999859035,0.10085789998993278,0.7495010999846272
RSVPLG03,si,20260305-172713,1.0.2,20260219-152011,791,Experiment,Both,1,Automatic,main,9,20260305-172902,local,local,300,H,H,A,E,A-H.png,E-H.png,hH,hH,mask-1.png,mask-1.png,h,1,0.7967029999999795,h,1,0.09827419999055564,0.049278999998932704,0.05038949998561293,0.10068380000302568,0.10161439998773858,0.2985390000103507
RSVPLG03,si,20260305-172713,1.0.2,20260219-152011,791,Experiment,Both,1,Automatic,main,10,20260305-172906,local,local,750,S,H,A,A,A-S.png,A-H.png,sS,hH,mask-4.png,mask-1.png,s,1,1.1771848000062164,h,1,1.313555400003679,0.04947209998499602,0.0479699999850709,0.09970759999123402,0.09911499998997897,0.7507791999960318
RSVPLG03,si,20260305-172713,1.0.2,20260219-152011,791,Experiment,Both,1,Automatic,main,11,20260305-172912,local,global,750,S,S,A,E,A-S.png,S-E.png,sS,sS,mask-2.png,mask-2.png,s,1,2.047352099994896,s,1,0.07342510001035407,0.04940449999412522,0.04913030000170693,0.09990810000454076,0.0991929000010714,0.7492356000002474
RSVPLG03,si,20260305-172713,1.0.2,20260219-152011,791,Experiment,Both,1,Automatic,main,12,20260305-172918,local,global,750,S,S,A,E,A-S.png,S-E.png,sS,sS,mask-1.png,mask-1.png,s,1,0.84052789999987,s,1,0.025467600004049018,0.04969929999788292,0.05021650000708178,0.10007619997486472,0.10159410000778735,0.7485221999813803
RSVPLG03,si,20260305-172713,1.0.2,20260219-152011,791,Experiment,Both,1,Automatic,main,13,20260305-172923,local,global,300,S,S,A,E,A-S.png,S-E.png,sS,sS,mask-4.png,mask-4.png,s,1,0.8003655000065919,s,1,0.07397840000339784,0.05031789999338798,0.04965860000811517,0.09895650000544265,0.09953859998495318,0.29940970000461675
RSVPLG03,si,20260305-172713,1.0.2,20260219-152011,791,Experiment,Both,1,Automatic,main,14,20260305-172927,local,global,300,S,H,A,A,A-S.png,H-A.png,sS,hH,mask-3.png,mask-3.png,s,1,1.682715000002645,s,0,0.057941700011724606,0.04937480000080541,0.05085349999717437,0.09872330000507645,0.10151939999195747,0.29781600000569597
RSVPLG03,si,20260305-172713,1.0.2,20260219-152011,791,Experiment,Both,1,Automatic,main,15,20260305-172933,local,local,300,H,H,E,A,E-H.png,A-H.png,hH,hH,mask-1.png,mask-4.png,h,1,0.6639142999774776,s,0,0.0650403999898117,0.05070990000967868,0.04972280000220053,0.09968820001813583,0.09814419999020174,0.30024880002019927
RSVPLG03,si,20260305-172713,1.0.2,20260219-152011,791,Experiment,Both,1,Automatic,main,16,20260305-172937,local,global,300,H,S,A,A,A-H.png,S-A.png,hH,sS,mask-4.png,mask-1.png,h,1,1.8228938000102062,s,1,0.0333653999841772,0.04976910000550561,0.04970820000744425,0.09956430000602268,0.0982341000053566,0.3004001000081189
RSVPLG03,si,20260305-172713,1.0.2,20260219-152011,791,Experiment,Both,1,Automatic,main,17,20260305-172943,local,local,300,H,S,E,A,E-H.png,A-S.png,hH,sS,mask-4.png,mask-2.png,h,1,0.47208549999049865,s,1,0.001692200021352619,0.050647800002479926,0.04902240002411418,0.10075300000607967,0.09813910000957549,0.30127209998317994
RSVPLG03,si,20260305-172713,1.0.2,20260219-152011,791,Experiment,Both,1,Automatic,main,18,20260305-172947,global,global,750,S,H,E,E,S-E.png,H-E.png,sS,hH,mask-1.png,mask-1.png,s,1,1.184803500014823,h,1,1.3048013000225183,0.04999810000299476,0.050790199980838224,0.0990215000056196,0.10081129998434335,0.7482757000252604
RSVPLG03,si,20260305-172713,1.0.2,20260219-152011,791,Experiment,Both,1,Automatic,main,19,20260305-172952,global,local,750,H,S,E,A,H-E.png,A-S.png,hH,sS,mask-3.png,mask-4.png,h,1,0.5176980999822263,s,1,0.04937009999412112,0.04955960001097992,0.04967919999035075,0.09799360000761226,0.10015809998731129,0.7484767000132706
RSVPLG03,si,20260305-172713,1.0.2,20260219-152011,791,Experiment,Both,1,Automatic,main,20,20260305-172957,global,local,300,S,S,E,E,S-E.png,E-S.png,sS,sS,mask-3.png,mask-2.png,s,1,1.066085500002373,s,1,0.08341880000079982,0.05091570000513457,0.05023829999845475,0.10175400000298396,0.10172390000661835,0.3002111999958288
RSVPLG03,si,20260305-172713,1.0.2,20260219-152011,791,Experiment,Both,1,Automatic,main,21,20260305-173002,global,local,300,H,H,E,A,H-E.png,A-H.png,hH,hH,mask-4.png,mask-1.png,h,1,1.2008292000100482,h,1,0.09044390000053681,0.051062799990177155,0.04983619999256916,0.10024390000035055,0.09966800000984222,0.299904699990293
RSVPLG03,si,20260305-172713,1.0.2,20260219-152011,791,Experiment,Both,1,Automatic,main,22,20260305-173007,global,local,750,H,S,E,E,H-E.png,E-S.png,hH,sS,mask-2.png,mask-2.png,h,1,0.8070306000008713,s,1,0.041342000011354685,0.0511996999848634,0.050680400017881766,0.10123669999302365,0.10046160002821125,0.7491937999729998
RSVPLG03,si,20260305-172713,1.0.2,20260219-152011,791,Experiment,Both,1,Automatic,main,23,20260305-173012,global,global,750,S,H,A,A,S-A.png,H-A.png,sS,hH,mask-1.png,mask-1.png,s,1,0.899479199986672,h,1,1.011892499984242,0.049877399986144155,0.04770019999705255,0.09982669999590144,0.09846929999184795,0.7508099999977276
RSVPLG03,si,20260305-172713,1.0.2,20260219-152011,791,Experiment,Both,1,Automatic,main,24,20260305-173016,global,local,300,H,S,A,A,H-A.png,A-S.png,hH,sS,mask-1.png,mask-2.png,h,1,0.5540031999989878,s,1,0.02485539999906905,0.04871219999040477,0.049716000008629635,0.10032389999832958,0.09927190002053976,0.2995740999758709
RSVPLG03,si,20260305-172713,1.0.2,20260219-152011,791,Experiment,Both,1,Automatic,main,25,20260305-173021,local,global,300,S,S,E,E,E-S.png,S-E.png,sS,sS,mask-1.png,mask-3.png,s,1,1.2684508000093047,h,0,1.3803117999923415,0.04962449998129159,0.04943380001350306,0.10120149998692796,0.09929620000184514,0.30078179997508414
RSVPLG03,si,20260305-172713,1.0.2,20260219-152011,791,Experiment,Both,1,Automatic,main,26,20260305-173120,local,global,300,S,H,E,E,E-S.png,H-E.png,sS,hH,mask-1.png,mask-3.png,s,1,0.45170340000186116,h,1,0.13614229997619987,0.04928059998201206,0.04997329998877831,0.09943199998815544,0.09980999998515472,0.29840110000805
RSVPLG03,si,20260305-172713,1.0.2,20260219-152011,791,Experiment,Both,1,Automatic,main,27,20260305-173124,global,global,750,H,H,A,E,H-A.png,H-E.png,hH,hH,mask-3.png,mask-4.png,h,1,0.2750460999959614,h,1,0.06510359997628257,0.0502977000141982,0.05005739998887293,0.0995212999987416,0.10005649999948218,0.7491423000174109
RSVPLG03,si,20260305-172713,1.0.2,20260219-152011,791,Experiment,Both,1,Automatic,main,28,20260305-173129,global,global,300,S,H,E,A,S-E.png,H-A.png,sS,hH,mask-2.png,mask-2.png,s,1,0.42529559999820776,h,1,0.0331179000204429,0.05146220000460744,0.049918799981242046,0.10013219999382272,0.10088670000550337,0.3000553000019863
RSVPLG03,si,20260305-172713,1.0.2,20260219-152011,791,Experiment,Both,1,Automatic,main,29,20260305-173133,local,global,300,H,S,E,A,E-H.png,S-A.png,hH,sS,mask-1.png,mask-2.png,h,1,0.39467539999168366,s,1,0.01685790001647547,0.05042479999247007,0.0500338000128977,0.10185820001061074,0.10019910000846721,0.3002496999979485
RSVPLG03,si,20260305-172713,1.0.2,20260219-152011,791,Experiment,Both,1,Automatic,main,30,20260305-173137,local,local,300,H,H,A,A,A-H.png,A-H.png,hH,hH,mask-4.png,mask-1.png,h,1,0.48783800000092015,h,1,0.10554479999700561,0.049684900004649535,0.047761800000444055,0.10025749998749234,0.0996883999905549,0.30106359999626875
RSVPLG03,si,20260305-172713,1.0.2,20260219-152011,791,Experiment,Both,1,Automatic,main,31,20260305-173141,local,local,300,H,H,E,A,E-H.png,A-H.png,hH,hH,mask-4.png,mask-1.png,h,1,0.2588744999957271,h,1,0.09591119998367503,0.05034600000362843,0.04871669999556616,0.10110259999055415,0.0995886999880895,0.3000668000022415
RSVPLG03,si,20260305-172713,1.0.2,20260219-152011,791,Experiment,Both,1,Automatic,main,32,20260305-173145,local,global,750,S,S,E,E,E-S.png,S-E.png,sS,sS,mask-4.png,mask-3.png,s,1,0.4434524000098463,s,1,0.09765559999505058,0.051076200004899874,0.0497359000146389,0.0999240999808535,0.10075060001690872,0.750430599990068
RSVPLG03,si,20260305-172713,1.0.2,20260219-152011,791,Experiment,Both,1,Automatic,main,33,20260305-173150,global,global,300,H,H,A,E,H-A.png,H-E.png,hH,hH,mask-4.png,mask-1.png,h,1,0.4260995000076946,h,1,0.09732020000228658,0.048997499980032444,0.05009900001459755,0.09799469998688437,0.10071389999939129,0.29776409998885356
RSVPLG03,si,20260305-172713,1.0.2,20260219-152011,791,Experiment,Both,1,Automatic,main,34,20260305-173154,local,global,300,S,H,E,A,E-S.png,H-A.png,sS,hH,mask-4.png,mask-2.png,s,1,0.7475124000047799,h,1,0.8996311000082642,0.05007099997601472,0.050106999988202006,0.10086059998138808,0.10006629998679273,0.2993246999976691
RSVPLG03,si,20260305-172713,1.0.2,20260219-152011,791,Experiment,Both,1,Automatic,main,35,20260305-173158,local,global,300,H,S,A,E,A-H.png,S-E.png,hH,sS,mask-1.png,mask-4.png,h,1,0.6375995999842416,s,1,0.0974119000020437,0.050289600010728464,0.04946900001959875,0.1003363000054378,0.09946200001286343,0.29981470000348054
RSVPLG03,si,20260305-172713,1.0.2,20260219-152011,791,Experiment,Both,1,Automatic,main,36,20260305-173203,global,global,750,H,H,E,E,H-E.png,H-E.png,hH,hH,mask-4.png,mask-2.png,h,1,0.3482155999809038,h,1,0.08939910001936369,0.0491180999961216,0.049409399973228574,0.10007309998036362,0.09905259998049587,0.7498205000010785
RSVPLG03,si,20260305-172713,1.0.2,20260219-152011,791,Experiment,Both,1,Automatic,main,37,20260305-173207,global,local,750,S,S,A,E,S-A.png,E-S.png,sS,sS,mask-3.png,mask-2.png,s,1,0.7084790000226349,s,1,0.07261999999172986,0.04983050000737421,0.05082639999454841,0.1002841999870725,0.10054639997542836,0.7484040000126697
RSVPLG03,si,20260305-172713,1.0.2,20260219-152011,791,Experiment,Both,1,Automatic,main,38,20260305-173212,global,global,300,H,H,A,E,H-A.png,H-E.png,hH,hH,mask-1.png,mask-1.png,h,1,0.4223115999775473,h,1,0.1144203000003472,0.05196109999087639,0.04994480000459589,0.10090419999323785,0.10008879998349585,0.3005203999928199
RSVPLG03,si,20260305-172713,1.0.2,20260219-152011,791,Experiment,Both,1,Automatic,main,39,20260305-173216,global,local,300,S,H,E,E,S-E.png,E-H.png,sS,hH,mask-4.png,mask-3.png,s,1,0.38686880000750534,h,1,0.06615639998926781,0.04911940000602044,0.05032710000523366,0.09924199999659322,0.09942650000448339,0.29928999999538064
RSVPLG03,si,20260305-172713,1.0.2,20260219-152011,791,Experiment,Both,1,Automatic,main,40,20260305-173220,global,global,300,S,H,E,E,S-E.png,H-E.png,sS,hH,mask-3.png,mask-1.png,s,1,0.3263908000080846,h,1,0.009735200001159683,0.049556099984329194,0.05151549997390248,0.09948929998790845,0.10159289999864995,0.2986407999997027
RSVPLG03,si,20260305-172713,1.0.2,20260219-152011,791,Experiment,Both,1,Automatic,main,41,20260305-173224,global,global,750,H,S,A,E,H-A.png,S-E.png,hH,sS,mask-2.png,mask-2.png,h,1,0.22158840001793578,s,1,0.03449130000080913,0.04960810000193305,0.050267199985682964,0.09940480001387186,0.10046469999360852,0.749435400008224
RSVPLG03,si,20260305-172713,1.0.2,20260219-152011,791,Experiment,Both,1,Automatic,main,42,20260305-173229,global,local,750,H,H,A,A,H-A.png,A-H.png,hH,hH,mask-1.png,mask-2.png,h,1,0.2697545999835711,h,1,0.08913869998650625,0.050502600002801046,0.04984130000229925,0.09991690001334064,0.10026000000652857,0.7496429000166245
RSVPLG03,si,20260305-172713,1.0.2,20260219-152011,791,Experiment,Both,1,Automatic,main,43,20260305-173233,global,global,300,H,S,A,E,H-A.png,S-E.png,hH,sS,mask-3.png,mask-4.png,h,1,0.29031800001394004,s,1,0.008692200004588813,0.05102179999812506,0.04958080002688803,0.1010569000209216,0.10062260000267997,0.3000541999936104
RSVPLG03,si,20260305-172713,1.0.2,20260219-152011,791,Experiment,Both,1,Automatic,main,44,20260305-173237,local,global,750,S,S,E,E,E-S.png,S-E.png,sS,sS,mask-3.png,mask-1.png,s,1,0.8519417999777943,h,0,0.01781619997927919,0.04923039997811429,0.05163429997628555,0.10052549999090843,0.10005229999660514,0.7488655000051949
RSVPLG03,si,20260305-172713,1.0.2,20260219-152011,791,Experiment,Both,1,Automatic,main,45,20260305-173242,global,global,300,S,S,A,A,S-A.png,S-A.png,sS,sS,mask-3.png,mask-2.png,s,1,0.33040959999198094,s,1,0.09781370000564493,0.050276100024348125,0.04962770000565797,0.10171660000924021,0.09917240001959726,0.29985690000467
RSVPLG03,si,20260305-172713,1.0.2,20260219-152011,791,Experiment,Both,1,Automatic,main,46,20260305-173246,global,local,300,S,S,E,A,S-E.png,A-S.png,sS,sS,mask-3.png,mask-3.png,s,1,0.30090780000318773,s,1,0.04928720000316389,0.04907510001794435,0.047728899982757866,0.10028010001406074,0.0986051999789197,0.30061610002303496
RSVPLG03,si,20260305-172713,1.0.2,20260219-152011,791,Experiment,Both,1,Automatic,main,47,20260305-173250,local,local,750,S,S,A,A,A-S.png,A-S.png,sS,sS,mask-4.png,mask-4.png,s,1,0.5114389999944251,s,1,0.24750870000571012,0.048717500001657754,0.05039059999398887,0.09940200002165511,0.09934300000895746,0.7488308000029065
RSVPLG03,si,20260305-172713,1.0.2,20260219-152011,791,Experiment,Both,1,Automatic,main,48,20260305-173255,local,global,750,S,H,A,A,A-S.png,H-A.png,sS,hH,mask-2.png,mask-1.png,s,1,0.5670672999985982,h,1,0.558420199988177,0.04973870000685565,0.050047900003846735,0.10104820001288317,0.1002386000182014,0.75009190000128
RSVPLG03,si,20260305-172713,1.0.2,20260219-152011,791,Experiment,Both,1,Automatic,main,49,20260305-173300,local,local,300,H,H,A,A,A-H.png,A-H.png,hH,hH,mask-4.png,mask-1.png,h,1,0.460466999997152,h,1,0.08130130000063218,0.04981150000821799,0.050917699991259724,0.10010959999635816,0.0999186999979429,0.298811900021974
RSVPLG03,si,20260305-172713,1.0.2,20260219-152011,791,Experiment,Both,1,Automatic,main,50,20260305-173305,local,local,750,H,H,E,E,E-H.png,E-H.png,hH,hH,mask-4.png,mask-2.png,h,1,0.20181170001160353,h,1,0.08824109999113716,0.05067070000222884,0.04970629999297671,0.10080240000388585,0.09950649997335859,0.7492521000094712
RSVPLG03,si,20260305-172713,1.0.2,20260219-152011,791,Experiment,Both,1,Automatic,main,51,20260305-173612,local,local,750,H,S,E,A,E-H.png,A-S.png,hH,sS,mask-1.png,mask-3.png,h,1,0.14769459998933598,s,1,0.02507319999858737,0.04885110000032,0.0510039999790024,0.0999733000062406,0.10108769999351352,0.7486788000096567
RSVPLG03,si,20260305-172713,1.0.2,20260219-152011,791,Experiment,Both,1,Automatic,main,52,20260305-173617,global,global,300,H,S,E,E,H-E.png,S-E.png,hH,sS,mask-1.png,mask-3.png,h,1,0.22405039999284782,s,1,0.3358592999866232,0.04942329999175854,0.04962010000599548,0.09883470000931993,0.09938639999018051,0.2992363999946974
RSVPLG03,si,20260305-172713,1.0.2,20260219-152011,791,Experiment,Both,1,Automatic,main,53,20260305-173621,global,global,750,H,H,E,A,H-E.png,H-A.png,hH,hH,mask-4.png,mask-2.png,h,1,0.22762710001552477,h,1,0.057325700006913394,0.048284899996360764,0.04987079999409616,0.10003830000641756,0.09814849999384023,0.7495053999882657
RSVPLG03,si,20260305-172713,1.0.2,20260219-152011,791,Experiment,Both,1,Automatic,main,54,20260305-173625,local,global,300,H,H,A,E,A-H.png,H-E.png,hH,hH,mask-2.png,mask-4.png,h,1,0.30716039999970235,s,0,0.026674099994124845,0.04904300000634976,0.04979220000677742,0.10015320000820793,0.10031290000188164,0.29889649999677204
RSVPLG03,si,20260305-172713,1.0.2,20260219-152011,791,Experiment,Both,1,Automatic,main,55,20260305-173629,local,global,300,H,S,E,A,E-H.png,S-A.png,hH,sS,mask-4.png,mask-2.png,h,1,0.2857110000040848,s,1,0.009472699981415644,0.050016900000628084,0.0501446999842301,0.1012666999886278,0.1001817999931518,0.29954609999549575
RSVPLG03,si,20260305-172713,1.0.2,20260219-152011,791,Experiment,Both,1,Automatic,main,56,20260305-173633,local,local,750,S,H,A,A,A-S.png,A-H.png,sS,hH,mask-3.png,mask-2.png,s,1,0.27369000000180677,h,1,0.03720880000037141,0.050397299986798316,0.05120260000694543,0.09908079999149777,0.10019239998655394,0.7491360999993049
RSVPLG03,si,20260305-172713,1.0.2,20260219-152011,791,Experiment,Both,1,Automatic,main,57,20260305-173637,local,local,300,S,H,E,A,E-S.png,A-H.png,sS,hH,mask-3.png,mask-1.png,s,1,0.29652420000638813,h,1,0.44853180000791326,0.0506636000063736,0.04950219998136163,0.10082769999280572,0.10039949999190867,0.30032730000675656
RSVPLG03,si,20260305-172713,1.0.2,20260219-152011,791,Experiment,Both,1,Automatic,main,58,20260305-173641,global,local,300,H,S,A,E,H-A.png,E-S.png,hH,sS,mask-3.png,mask-1.png,h,1,0.25306319998344406,s,1,0.00880059998598881,0.05025480000767857,0.05094459999236278,0.10001829999964684,0.10099529998842627,0.2998630000220146
RSVPLG03,si,20260305-172713,1.0.2,20260219-152011,791,Experiment,Both,1,Automatic,main,59,20260305-173645,local,global,750,S,S,A,A,A-S.png,S-A.png,sS,sS,mask-4.png,mask-1.png,s,1,0.2897198999999091,h,0,0.5364543999894522,0.04866020000190474,0.050813699985155836,0.09844010000233538,0.10060829998110421,0.7484722000081092
RSVPLG03,si,20260305-172713,1.0.2,20260219-152011,791,Experiment,Both,1,Automatic,main,60,20260305-173650,global,global,300,H,S,A,E,H-A.png,S-E.png,hH,sS,mask-1.png,mask-3.png,h,1,0.2073237999866251,s,1,0.009171799989417195,0.0503350000071805,0.04887679999228567,0.10045120000722818,0.10030009999172762,0.29991010000230744
RSVPLG03,si,20260305-172713,1.0.2,20260219-152011,791,Experiment,Both,1,Automatic,main,61,20260305-173654,global,global,300,H,H,E,A,H-E.png,H-A.png,hH,hH,mask-4.png,mask-4.png,h,1,0.24336950000724755,h,1,0.06684909999603406,0.0501642000162974,0.0457884999923408,0.09949580000829883,0.0958608000073582,0.30280480001238175
RSVPLG03,si,20260305-172713,1.0.2,20260219-152011,791,Experiment,Both,1,Automatic,main,62,20260305-173658,local,global,300,H,S,E,E,E-H.png,S-E.png,hH,sS,mask-1.png,mask-2.png,h,1,0.5743849000136834,s,1,0.08139940002001822,0.049595799995586276,0.049775399995269254,0.09943360000033863,0.09989819998736493,0.29921560001093894
RSVPLG03,si,20260305-172713,1.0.2,20260219-152011,791,Experiment,Both,1,Automatic,main,63,20260305-173703,global,global,750,H,H,E,E,H-E.png,H-E.png,hH,hH,mask-4.png,mask-4.png,h,1,0.2018409000011161,h,1,0.10485519998474047,0.04928669999935664,0.050009400001727045,0.10004900000058115,0.09990490000927821,0.7491482999757864
RSVPLG03,si,20260305-172713,1.0.2,20260219-152011,791,Experiment,Both,1,Automatic,main,64,20260305-173707,local,local,300,H,H,E,A,E-H.png,A-H.png,hH,hH,mask-3.png,mask-1.png,h,1,0.7060870999994222,h,1,0.06539079998037778,0.04870619997382164,0.04867469999589957,0.09952499999781139,0.09842070000013337,0.3005554999981541
RSVPLG03,si,20260305-172713,1.0.2,20260219-152011,791,Experiment,Both,1,Automatic,main,65,20260305-173711,global,local,750,S,S,A,E,S-A.png,E-S.png,sS,sS,mask-1.png,mask-4.png,s,1,0.22183759999461472,s,1,0.10536100002354942,0.04984610000974499,0.04802759998710826,0.10004740001750179,0.0987981999933254,0.7510229000181425
RSVPLG03,si,20260305-172713,1.0.2,20260219-152011,791,Experiment,Both,1,Automatic,main,66,20260305-173716,global,local,750,S,S,A,A,S-A.png,A-S.png,sS,sS,mask-3.png,mask-2.png,s,1,0.3997281000192743,s,1,0.06624839999130927,0.049115799978608266,0.0499063000024762,0.0992600999888964,0.09949140000389889,0.7490758999774698
RSVPLG03,si,20260305-172713,1.0.2,20260219-152011,791,Experiment,Both,1,Automatic,main,67,20260305-173720,local,local,300,H,H,E,E,E-H.png,E-H.png,hH,hH,mask-3.png,mask-3.png,h,1,0.6367199000087567,h,1,0.12790650001261383,0.049794699996709824,0.04982169999857433,0.09956279999460094,0.1002005000191275,0.29974389998824336
RSVPLG03,si,20260305-172713,1.0.2,20260219-152011,791,Experiment,Both,1,Automatic,main,68,20260305-173725,global,local,750,H,H,A,A,H-A.png,A-H.png,hH,hH,mask-3.png,mask-2.png,h,1,0.1764561000163667,h,1,0.06549290000111796,0.04881120001664385,0.05083039999590255,0.09809680000762455,0.10063430000445805,0.7474672000098508
RSVPLG03,si,20260305-172713,1.0.2,20260219-152011,791,Experiment,Both,1,Automatic,main,69,20260305-173729,global,global,750,H,S,A,E,H-A.png,S-E.png,hH,sS,mask-4.png,mask-2.png,h,1,0.23289759998442605,s,1,0.02466300001833588,0.049221199995372444,0.05000859999563545,0.09916280000470579,0.0997481000085827,0.7494724999996834
RSVPLG03,si,20260305-172713,1.0.2,20260219-152011,791,Experiment,Both,1,Automatic,main,70,20260305-173733,local,local,750,H,H,E,E,E-H.png,E-H.png,hH,hH,mask-2.png,mask-2.png,h,1,0.24466830000164919,h,1,0.026249299990013242,0.051251099997898564,0.049656899995170534,0.10014499997487292,0.09943790000397712,0.7498486999829765
RSVPLG03,si,20260305-172713,1.0.2,20260219-152011,791,Experiment,Both,1,Automatic,main,71,20260305-173738,global,global,300,S,S,E,A,S-E.png,S-A.png,sS,sS,mask-2.png,mask-1.png,s,1,0.5990393999963999,s,1,0.051523400004953146,0.050221300014527515,0.049366499995812774,0.10113240001373924,0.09973499999614432,0.3006558000051882
RSVPLG03,si,20260305-172713,1.0.2,20260219-152011,791,Experiment,Both,1,Automatic,main,72,20260305-173742,global,global,750,S,H,A,E,S-A.png,H-E.png,sS,hH,mask-1.png,mask-2.png,s,1,0.28203899998334236,h,1,0.44162579998373985,0.04984739999054,0.04945410002255812,0.09946009999839589,0.10066419999930076,0.749795699986862
RSVPLG03,si,20260305-172713,1.0.2,20260219-152011,791,Experiment,Both,1,Automatic,main,73,20260305-173747,local,global,750,S,H,A,E,A-S.png,H-E.png,sS,hH,mask-1.png,mask-1.png,s,1,0.9064799000043422,s,0,0.07276939999428578,0.04924880000180565,0.04737440001918003,0.10038010001881048,0.0972040000197012,0.7514563000004273
RSVPLG03,si,20260305-172713,1.0.2,20260219-152011,791,Experiment,Both,1,Automatic,main,74,20260305-173752,global,global,750,H,H,E,A,H-E.png,H-A.png,hH,hH,mask-1.png,mask-4.png,h,1,0.2630023999954574,h,1,0.07198579999385402,0.04896400001598522,0.04947979998541996,0.09903030001441948,0.10011759999906644,0.7502705000224523
RSVPLG03,si,20260305-172713,1.0.2,20260219-152011,791,Experiment,Both,1,Automatic,main,75,20260305-173756,global,global,750,H,H,A,A,H-A.png,H-A.png,hH,hH,mask-2.png,mask-4.png,h,1,0.20251510001253337,h,1,0.07373230002122,0.05006649999995716,0.04882799999904819,0.09976440001628362,0.09775400001672097,0.7507115000043996
RSVPLG03,si,20260305-172713,1.0.2,20260219-152011,791,Experiment,Both,1,Automatic,main,76,20260305-173933,local,global,300,H,H,A,E,A-H.png,H-E.png,hH,hH,mask-1.png,mask-2.png,h,1,0.30918429998564534,h,1,0.07998169999336824,0.0486555999959819,0.049612500006332994,0.09967289998894557,0.0986251000140328,0.29975479998392984
RSVPLG03,si,20260305-172713,1.0.2,20260219-152011,791,Experiment,Both,1,Automatic,main,77,20260305-173937,global,global,300,H,H,E,A,H-E.png,H-A.png,hH,hH,mask-2.png,mask-1.png,h,1,0.20138549999683164,h,1,0.06518939998932183,0.04972840001573786,0.04986040000221692,0.10008120001293719,0.09970229997998103,0.2992693000123836
RSVPLG03,si,20260305-172713,1.0.2,20260219-152011,791,Experiment,Both,1,Automatic,main,78,20260305-173941,global,local,750,S,H,A,E,S-A.png,E-H.png,sS,hH,mask-3.png,mask-1.png,s,1,0.4800029000034556,s,0,0.18616449998808093,0.049796100007370114,0.05012579998583533,0.10026320000179112,0.10050489997956902,0.7498026000102982
RSVPLG03,si,20260305-172713,1.0.2,20260219-152011,791,Experiment,Both,1,Automatic,main,79,20260305-173945,local,local,750,H,H,A,E,A-H.png,E-H.png,hH,hH,mask-2.png,mask-4.png,h,1,0.20662110002012923,h,1,0.08080100000370294,0.05091260001063347,0.048164599982555956,0.09967240001424216,0.09825650000129826,0.7516231000190601
RSVPLG03,si,20260305-172713,1.0.2,20260219-152011,791,Experiment,Both,1,Automatic,main,80,20260305-173950,local,global,750,H,S,A,A,A-H.png,S-A.png,hH,sS,mask-4.png,mask-1.png,h,1,0.32071399997221306,s,1,0.26675899999099784,0.05010899997432716,0.04899539999314584,0.0998284999805037,0.09898310000426136,0.749796799995238
RSVPLG03,si,20260305-172713,1.0.2,20260219-152011,791,Experiment,Both,1,Automatic,main,81,20260305-173954,local,local,750,S,S,A,E,A-S.png,E-S.png,sS,sS,mask-2.png,mask-2.png,s,1,0.16061340001760982,s,1,0.07283559997449629,0.04866490000858903,0.048770499997772276,0.09841390000656247,0.09943649999331683,0.7481239000044297
RSVPLG03,si,20260305-172713,1.0.2,20260219-152011,791,Experiment,Both,1,Automatic,main,82,20260305-173959,global,global,300,H,S,A,A,H-A.png,S-A.png,hH,sS,mask-1.png,mask-2.png,h,1,0.4250637000077404,s,1,0.04932020002161153,0.049194299994269386,0.0512000999879092,0.09917219998897053,0.09994709998136386,0.29834649999975227
RSVPLG03,si,20260305-172713,1.0.2,20260219-152011,791,Experiment,Both,1,Automatic,main,83,20260305-174003,global,local,750,S,H,E,E,S-E.png,E-H.png,sS,hH,mask-3.png,mask-2.png,s,1,0.3236922000069171,h,1,0.03241790001629852,0.05047519999789074,0.04916699999012053,0.10019949998240918,0.09887129999697208,0.7504159999953117
RSVPLG03,si,20260305-172713,1.0.2,20260219-152011,791,Experiment,Both,1,Automatic,main,84,20260305-174007,local,global,750,H,S,E,A,E-H.png,S-A.png,hH,sS,mask-3.png,mask-2.png,h,1,0.2690034999977797,h,0,0.09748570001102053,0.048670200019842014,0.050139600003603846,0.09946240001590922,0.09938190001412295,0.7498362000042107
RSVPLG03,si,20260305-172713,1.0.2,20260219-152011,791,Experiment,Both,1,Automatic,main,85,20260305-174012,local,local,300,S,H,E,E,E-S.png,E-H.png,sS,hH,mask-1.png,mask-1.png,s,1,0.2398051000200212,h,1,0.11324690000037663,0.048620999994454905,0.05064299999503419,0.09888079998199828,0.09980739999446087,0.299051399983
RSVPLG03,si,20260305-172713,1.0.2,20260219-152011,791,Experiment,Both,1,Automatic,main,86,20260305-174016,local,local,300,H,H,A,A,A-H.png,A-H.png,hH,hH,mask-4.png,mask-1.png,h,1,0.20443759998306632,h,1,0.09847820000140928,0.04822329999296926,0.05072010000003502,0.09787349999533035,0.1006121999816969,0.29810790001647547
RSVPLG03,si,20260305-172713,1.0.2,20260219-152011,791,Experiment,Both,1,Automatic,main,87,20260305-174020,global,local,300,S,H,E,E,S-E.png,E-H.png,sS,hH,mask-1.png,mask-3.png,s,1,0.24500259998603724,s,0,0.37835939999786206,0.049112900014733896,0.05067240001517348,0.09932070001377724,0.09943630002089776,0.29914749998715706
RSVPLG03,si,20260305-172713,1.0.2,20260219-152011,791,Experiment,Both,1,Automatic,main,88,20260305-174024,global,global,750,S,S,E,E,S-E.png,S-E.png,sS,sS,mask-2.png,mask-1.png,s,1,0.27437540001119487,s,1,0.08235130002140068,0.050587299978360534,0.04943849999108352,0.10155339998891577,0.10021589999087155,0.7491245999990497
RSVPLG03,si,20260305-172713,1.0.2,20260219-152011,791,Experiment,Both,1,Automatic,main,89,20260305-174029,global,local,300,S,S,A,A,S-A.png,A-S.png,sS,sS,mask-1.png,mask-1.png,s,1,0.3477242999942973,h,0,0.8105291000101715,0.05002439999952912,0.050771100010024384,0.09912799997255206,0.10198410000884905,0.2995402999804355
RSVPLG03,si,20260305-172713,1.0.2,20260219-152011,791,Experiment,Both,1,Automatic,main,90,20260305-174034,local,local,750,S,H,A,E,A-S.png,E-H.png,sS,hH,mask-2.png,mask-3.png,s,1,0.3115999000146985,h,1,0.025641099986387417,0.05007850000401959,0.049548500013770536,0.09930120001081377,0.09863730001961812,0.7500424000027124
RSVPLG03,si,20260305-172713,1.0.2,20260219-152011,791,Experiment,Both,1,Automatic,main,91,20260305-174038,local,global,750,H,H,E,A,E-H.png,H-A.png,hH,hH,mask-1.png,mask-3.png,h,1,0.9140004999935627,s,0,0.1924894999829121,0.051037600002018735,0.0492542999854777,0.09908859999268316,0.0994801000051666,0.7493052000063471
RSVPLG03,si,20260305-172713,1.0.2,20260219-152011,791,Experiment,Both,1,Automatic,main,92,20260305-174043,global,local,750,S,H,A,E,S-A.png,E-H.png,sS,hH,mask-2.png,mask-3.png,s,1,0.3155075999966357,h,1,0.5683248999994248,0.05025599998771213,0.05002540000714362,0.10007889999542385,0.09987869998440146,0.750113699992653
RSVPLG03,si,20260305-172713,1.0.2,20260219-152011,791,Experiment,Both,1,Automatic,main,93,20260305-174048,local,global,750,S,H,E,E,E-S.png,H-E.png,sS,hH,mask-2.png,mask-1.png,s,1,0.8166842999926303,s,0,0.025500199990347028,0.05003829998895526,0.049875900003826246,0.09937689997605048,0.09913660000893287,0.7489957999787293
RSVPLG03,si,20260305-172713,1.0.2,20260219-152011,791,Experiment,Both,1,Automatic,main,94,20260305-174053,local,local,750,H,S,E,A,E-H.png,A-S.png,hH,sS,mask-3.png,mask-1.png,h,1,0.22462870000163093,s,1,0.049622699996689335,0.05007990001467988,0.051212499995017424,0.09969609999097884,0.09999190000235103,0.750011900003301
RSVPLG03,si,20260305-172713,1.0.2,20260219-152011,791,Experiment,Both,1,Automatic,main,95,20260305-174058,global,local,300,S,S,A,E,S-A.png,E-S.png,sS,sS,mask-2.png,mask-2.png,s,1,0.65927620002185,s,1,0.07373100001132116,0.04997300001559779,0.05017890001181513,0.1021500000206288,0.10160669998731464,0.29890640001394786
RSVPLG03,si,20260305-172713,1.0.2,20260219-152011,791,Experiment,Both,1,Automatic,main,96,20260305-174102,local,local,750,H,H,A,E,A-H.png,E-H.png,hH,hH,mask-3.png,mask-3.png,h,1,0.40642399998614565,s,0,0.7528937000024598,0.05067399999825284,0.05042660000617616,0.09960300000966527,0.10020230000372976,0.7503052999963984
RSVPLG03,si,20260305-172713,1.0.2,20260219-152011,791,Experiment,Both,1,Automatic,main,97,20260305-174107,local,global,750,S,S,A,A,A-S.png,S-A.png,sS,sS,mask-1.png,mask-1.png,s,1,0.708218100015074,s,1,0.08143059999565594,0.049148499994771555,0.04902939999010414,0.09887229997548275,0.09918049999396317,0.7491324000002351
RSVPLG03,si,20260305-172713,1.0.2,20260219-152011,791,Experiment,Both,1,Automatic,main,98,20260305-174112,local,local,300,H,H,A,A,A-H.png,A-H.png,hH,hH,mask-3.png,mask-2.png,h,1,0.35401310000452213,h,1,0.08944749998045154,0.04929320001974702,0.04950480000115931,0.09859100001631305,0.10079619998577982,0.2983645000203978
RSVPLG03,si,20260305-172713,1.0.2,20260219-152011,791,Experiment,Both,1,Automatic,main,99,20260305-174116,global,local,300,S,H,E,E,S-E.png,E-H.png,sS,hH,mask-4.png,mask-3.png,s,1,1.0905802999914158,h,1,0.017898599995533004,0.050464300002204254,0.050093800004106015,0.10052229999564588,0.09981159999733791,0.2996964000049047
RSVPLG03,si,20260305-172713,1.0.2,20260219-152011,791,Experiment,Both,1,Automatic,main,100,20260305-174121,global,local,750,H,S,A,A,H-A.png,A-S.png,hH,sS,mask-1.png,mask-1.png,h,1,0.2697508000128437,h,0,0.08633279998321086,0.051311599992914125,0.04932090002694167,0.10147150000557303,0.0977936000272166,0.7515227999829222
