exp,exp_initials,runtime,ver,modtime,sub,blocktype,targets,cuetype,mode,trialtype,trial,trialtime,t1_level,t2_level,t2_lag,t1,t2,distractor1,distractor2,stimfile1,stimfile2,t1_corr,t2_corr,maskfile1,maskfile2,t1_resp,t1_acc,t1_rt,t2_resp,t2_acc,t2_rt,t1_dur,t2_dur,t1mask_soa,t2mask_soa,t1t2_soa
RSVPLG03,TM,20251103-110807,1.0.1,20251020-085245,731,Introduction,T1,1,Automatic,main,1,20251103-111724,local,global,750,H,H,E,E,E-H.png,H-E.png,hH,hH,mask-2.png,mask-1.png,h,1,4.7422508001327515,none,-5,0,0.09344099997542799,0.09760629991069436,0.19621070008724928,0.19994629989378154,0.7447854001075029
RSVPLG03,TM,20251103-110807,1.0.1,20251020-085245,731,Introduction,T1,1,Automatic,main,2,20251103-111733,global,global,750,S,S,A,E,S-A.png,S-E.png,sS,sS,mask-4.png,mask-2.png,s,1,0.8322993000037968,none,-5,0,0.09718289994634688,0.09732990013435483,0.19815600011497736,0.1990974999498576,0.7480574999935925
RSVPLG03,TM,20251103-110807,1.0.1,20251020-085245,731,Introduction,T1,1,Automatic,main,3,20251103-111738,local,global,750,H,S,E,A,E-H.png,S-A.png,hH,sS,mask-4.png,mask-3.png,h,1,2.0132081999909133,none,-5,0,0.09752809978090227,0.09717789990827441,0.1997837999369949,0.1997020998969674,0.7493461999110878
RSVPLG03,TM,20251103-110807,1.0.1,20251020-085245,731,Introduction,T1,1,Automatic,main,4,20251103-111745,local,local,750,H,H,E,A,E-H.png,A-H.png,hH,hH,mask-1.png,mask-4.png,h,1,1.3990426999516785,none,-5,0,0.09636610001325607,0.09725359990261495,0.19845489994622767,0.20010959985665977,0.7494638999924064
RSVPLG03,TM,20251103-110807,1.0.1,20251020-085245,731,Introduction,T1,1,Automatic,main,5,20251103-111750,local,local,750,H,H,A,A,A-H.png,A-H.png,hH,hH,mask-4.png,mask-4.png,h,1,1.1265382999554276,none,-5,0,0.09555090009234846,0.09844089997932315,0.1995125999674201,0.2012855000793934,0.7481281999498606
RSVPLG03,TM,20251103-110807,1.0.1,20251020-085245,731,Introduction,T1,1,Automatic,main,6,20251103-111755,local,local,750,H,S,A,A,A-H.png,A-S.png,hH,sS,mask-4.png,mask-2.png,h,1,0.6736226000357419,none,-5,0,0.0947576998732984,0.09760809992440045,0.19897469994612038,0.19970929995179176,0.7484875998925418
RSVPLG03,TM,20251103-110807,1.0.1,20251020-085245,731,Introduction,T1,1,Automatic,main,7,20251103-111800,global,local,750,S,H,E,A,S-E.png,A-H.png,sS,hH,mask-4.png,mask-4.png,s,1,0.8354401998221874,none,-5,0,0.09676780016161501,0.09676040010526776,0.20096369995735586,0.20014420012012124,0.7496096000541002
RSVPLG03,TM,20251103-110807,1.0.1,20251020-085245,731,Introduction,T1,1,Automatic,main,8,20251103-111805,global,local,750,S,S,E,A,S-E.png,A-S.png,sS,sS,mask-4.png,mask-3.png,s,1,0.936881999950856,none,-5,0,0.09855960006825626,0.09568030014634132,0.20004250016063452,0.19966260017827153,0.7507136999629438
RSVPLG03,TM,20251103-110807,1.0.1,20251020-085245,731,Introduction,T1,1,Automatic,main,9,20251103-111810,global,local,750,S,H,A,E,S-A.png,E-H.png,sS,hH,mask-2.png,mask-3.png,s,1,0.826314700068906,none,-5,0,0.09754090011119843,0.09583360003307462,0.199680499965325,0.20004400005564094,0.7502437999937683
RSVPLG03,TM,20251103-110807,1.0.1,20251020-085245,731,Introduction,T1,1,Automatic,main,10,20251103-111815,global,global,750,S,S,E,E,S-E.png,S-E.png,sS,sS,mask-1.png,mask-3.png,s,1,1.1906316000968218,none,-5,0,0.0975109999999404,0.09753750008530915,0.19958480005152524,0.1995075000450015,0.7496732999570668
RSVPLG03,TM,20251103-110807,1.0.1,20251020-085245,731,Introduction,T1,1,Automatic,main,11,20251103-111821,local,global,750,S,H,A,E,A-S.png,H-E.png,sS,hH,mask-3.png,mask-3.png,s,1,1.2101656999439,none,-5,0,0.0975524999666959,0.09838770003989339,0.20055609988048673,0.20142140006646514,0.7487746998667717
RSVPLG03,TM,20251103-110807,1.0.1,20251020-085245,731,Introduction,T1,1,Automatic,main,12,20251103-111826,global,global,750,S,H,E,A,S-E.png,H-A.png,sS,hH,mask-1.png,mask-4.png,s,1,0.810451400000602,none,-5,0,0.0983942998573184,0.09736639983020723,0.199258100008592,0.20008829981088638,0.7485839000437409
RSVPLG03,TM,20251103-110807,1.0.1,20251020-085245,731,Introduction,T1,1,Automatic,main,13,20251103-111831,global,global,750,H,H,A,E,H-A.png,H-E.png,hH,hH,mask-1.png,mask-4.png,h,1,1.1558929001912475,none,-5,0,0.0963954001199454,0.09745820006355643,0.19926190003752708,0.19935260014608502,0.7492283000610769
RSVPLG03,TM,20251103-110807,1.0.1,20251020-085245,731,Introduction,T1,1,Automatic,main,14,20251103-111836,local,global,750,H,S,A,A,A-H.png,S-A.png,hH,sS,mask-4.png,mask-2.png,h,1,1.7105167999397963,none,-5,0,0.09732930012978613,0.09744689986109734,0.19943400006741285,0.19846049998886883,0.7498108001891524
RSVPLG03,TM,20251103-110807,1.0.1,20251020-085245,731,Introduction,T1,1,Automatic,main,15,20251103-111842,global,local,750,S,S,E,E,S-E.png,E-S.png,sS,sS,mask-3.png,mask-2.png,s,1,1.2387215998023748,none,-5,0,0.09718129993416369,0.09654200007207692,0.20007919985800982,0.19844279997050762,0.7500942999031395
RSVPLG03,TM,20251103-110807,1.0.1,20251020-085245,731,Introduction,T1,1,Automatic,main,16,20251103-111848,local,local,750,H,H,A,A,A-H.png,A-H.png,hH,hH,mask-2.png,mask-2.png,h,1,1.2035586000420153,none,-5,0,0.09695159993134439,0.0975447001401335,0.19976369990035892,0.20065369992516935,0.748133699875325
RSVPLG03,TM,20251103-111936,1.0.1,20251020-085245,731,Practice,T1,1,Automatic,main,1,20251103-112030,global,local,300,H,S,A,A,H-A.png,A-S.png,hH,sS,mask-2.png,mask-4.png,h,1,1.3084499000106007,none,-5,0,0.040015900041908026,0.04772830009460449,0.09294499992392957,0.0997828000690788,0.29312469996511936
RSVPLG03,TM,20251103-111936,1.0.1,20251020-085245,731,Practice,T1,1,Automatic,main,2,20251103-112035,global,local,300,H,S,E,A,H-E.png,A-S.png,hH,sS,mask-2.png,mask-4.png,h,1,1.244420100003481,none,-5,0,0.04803050006739795,0.04809330007992685,0.10146710020489991,0.10083340015262365,0.30045820004306734
RSVPLG03,TM,20251103-111936,1.0.1,20251020-085245,731,Practice,T1,1,Automatic,main,3,20251103-112040,local,local,300,S,S,A,E,A-S.png,E-S.png,sS,sS,mask-2.png,mask-3.png,s,1,0.992161100031808,none,-5,0,0.04721260000951588,0.0461712998803705,0.10121039999648929,0.1001601000316441,0.3013212000951171
RSVPLG03,TM,20251103-111936,1.0.1,20251020-085245,731,Practice,T1,1,Automatic,main,4,20251103-112045,local,local,750,S,S,E,E,E-S.png,E-S.png,sS,sS,mask-2.png,mask-2.png,s,1,1.2149139000102878,none,-5,0,0.047680299961939454,0.04777379985898733,0.09990769997239113,0.09996469994075596,0.7497753000352532
RSVPLG03,TM,20251103-111936,1.0.1,20251020-085245,731,Practice,T1,1,Automatic,main,5,20251103-112050,local,global,300,S,S,E,A,E-S.png,S-A.png,sS,sS,mask-3.png,mask-3.png,s,1,1.412327399943024,none,-5,0,0.04751219996251166,0.047501099994406104,0.1003278000280261,0.09853770001791418,0.3015999000053853
RSVPLG03,TM,20251103-111936,1.0.1,20251020-085245,731,Practice,T1,1,Automatic,main,6,20251103-112055,local,global,750,S,S,A,A,A-S.png,S-A.png,sS,sS,mask-2.png,mask-4.png,s,1,1.6571798000950366,none,-5,0,0.04669050010852516,0.04867980000562966,0.09985300013795495,0.10067730001173913,0.7482187999412417
RSVPLG03,TM,20251103-111936,1.0.1,20251020-085245,731,Practice,T1,1,Automatic,main,7,20251103-112101,global,local,750,S,H,E,A,S-E.png,A-H.png,sS,hH,mask-2.png,mask-2.png,s,1,1.0504375000018626,none,-5,0,0.04811340011656284,0.04793379991315305,0.09927799995057285,0.10061799990944564,0.7500164001248777
RSVPLG03,TM,20251103-111936,1.0.1,20251020-085245,731,Practice,T1,1,Automatic,main,8,20251103-112106,local,global,300,H,S,E,E,E-H.png,S-E.png,hH,sS,mask-1.png,mask-1.png,s,0,1.7314994998741895,none,-5,0,0.045687400037422776,0.04749669996090233,0.09992279997095466,0.09882470010779798,0.2995575999375433
RSVPLG03,TM,20251103-111936,1.0.1,20251020-085245,731,Practice,T1,1,Automatic,main,9,20251103-112111,local,local,750,S,H,A,A,A-S.png,A-H.png,sS,hH,mask-2.png,mask-3.png,s,1,1.5646482999436557,none,-5,0,0.04704059986397624,0.04773009987547994,0.1013992999214679,0.09858180000446737,0.7510673999786377
RSVPLG03,TM,20251103-111936,1.0.1,20251020-085245,731,Practice,T1,1,Automatic,main,10,20251103-112117,global,global,750,S,H,A,A,S-A.png,H-A.png,sS,hH,mask-3.png,mask-1.png,s,1,1.052362099988386,none,-5,0,0.04754900000989437,0.048971799900755286,0.09867750015109777,0.10051720007322729,0.7481726000551134
RSVPLG03,TM,20251103-111936,1.0.1,20251020-085245,731,Practice,T1,1,Automatic,main,11,20251103-112122,global,global,300,H,S,A,A,H-A.png,S-A.png,hH,sS,mask-1.png,mask-4.png,h,1,1.641609099926427,none,-5,0,0.047630799934268,0.04747459990903735,0.09968440001830459,0.09935049992054701,0.30052369995974004
RSVPLG03,TM,20251103-111936,1.0.1,20251020-085245,731,Practice,T1,1,Automatic,main,12,20251103-112127,local,local,300,S,S,A,A,A-S.png,A-S.png,sS,sS,mask-1.png,mask-3.png,s,1,1.1349192999769002,none,-5,0,0.04656250006519258,0.04775270004756749,0.09885439998470247,0.09990360005758703,0.29847809998318553
RSVPLG03,TM,20251103-111936,1.0.1,20251020-085245,731,Practice,T1,1,Automatic,main,13,20251103-112132,global,global,300,H,S,A,E,H-A.png,S-E.png,hH,sS,mask-1.png,mask-4.png,h,1,1.0948038001079112,none,-5,0,0.047534900018945336,0.04578489996492863,0.09937700000591576,0.0998500999994576,0.2998647999484092
RSVPLG03,TM,20251103-111936,1.0.1,20251020-085245,731,Practice,T1,1,Automatic,main,14,20251103-112136,local,global,750,S,H,A,A,A-S.png,H-A.png,sS,hH,mask-3.png,mask-4.png,s,1,1.4263434000313282,none,-5,0,0.047837499994784594,0.04860400012694299,0.09926389995962381,0.1006345001515001,0.7505522998981178
RSVPLG03,TM,20251103-111936,1.0.1,20251020-085245,731,Practice,T1,1,Automatic,main,15,20251103-112142,global,global,750,H,H,A,E,H-A.png,H-E.png,hH,hH,mask-2.png,mask-1.png,h,1,1.1370415999554098,none,-5,0,0.046081600012257695,0.047957299975678325,0.09908670000731945,0.10000060009770095,0.7493775999173522
RSVPLG03,TM,20251103-111936,1.0.1,20251020-085245,731,Practice,T1,1,Automatic,main,16,20251103-112147,global,local,750,H,H,E,E,H-E.png,E-H.png,hH,hH,mask-3.png,mask-3.png,h,1,1.008285399992019,none,-5,0,0.04870439996011555,0.04742450010962784,0.09989640000276268,0.10061870003119111,0.7500348000321537
RSVPLG03,TM,20251103-112215,1.0.1,20251020-085245,731,Introduction,Both,1,Automatic,main,1,20251103-112439,local,global,750,H,S,A,A,A-H.png,S-A.png,hH,sS,mask-4.png,mask-4.png,h,1,3.604188400087878,s,1,1.0494260999839753,0.09132600016891956,0.09658079990185797,0.19314500014297664,0.19969599996693432,0.7418146000709385
RSVPLG03,TM,20251103-112215,1.0.1,20251020-085245,731,Introduction,Both,1,Automatic,main,2,20251103-112448,global,local,750,H,S,A,A,H-A.png,A-S.png,hH,sS,mask-1.png,mask-3.png,h,1,1.9274378002155572,s,1,0.2924045000690967,0.09639760013669729,0.09760609990917146,0.19865060015581548,0.19887789990752935,0.74766830005683
RSVPLG03,TM,20251103-112215,1.0.1,20251020-085245,731,Introduction,Both,1,Automatic,main,3,20251103-112454,local,local,750,S,S,E,A,E-S.png,A-S.png,sS,sS,mask-2.png,mask-3.png,s,1,2.853158500045538,h,0,0.056803900049999356,0.09853970003314316,0.09555859980173409,0.19940559985116124,0.19766509998589754,0.7494228000286967
RSVPLG03,TM,20251103-112215,1.0.1,20251020-085245,731,Introduction,Both,1,Automatic,main,4,20251103-112502,global,local,750,S,H,A,E,S-A.png,E-H.png,sS,hH,mask-3.png,mask-2.png,s,1,3.510299399960786,h,1,0.3939479000400752,0.09653089987114072,0.09636140009388328,0.19877369981259108,0.19895570003427565,0.7481324998661876
RSVPLG03,TM,20251103-112215,1.0.1,20251020-085245,731,Introduction,Both,1,Automatic,main,5,20251103-112510,global,global,750,S,S,A,E,S-A.png,S-E.png,sS,sS,mask-1.png,mask-1.png,s,1,1.951135199982673,s,1,0.42682810011319816,0.09559080004692078,0.09795450000092387,0.19848249992355704,0.20078090019524097,0.745996099896729
RSVPLG03,TM,20251103-112215,1.0.1,20251020-085245,731,Introduction,Both,1,Automatic,main,6,20251103-112517,global,global,750,S,H,A,E,S-A.png,H-E.png,sS,hH,mask-1.png,mask-2.png,s,1,1.4364066999405622,h,1,0.3117875999305397,0.09733150014653802,0.09722759993746877,0.1992131001316011,0.19947999995201826,0.7484295000322163
RSVPLG03,TM,20251103-112215,1.0.1,20251020-085245,731,Introduction,Both,1,Automatic,main,7,20251103-112523,local,local,750,H,S,A,A,A-H.png,A-S.png,hH,sS,mask-4.png,mask-2.png,h,1,1.5322251000907272,s,1,0.26807820005342364,0.0974097999278456,0.09936199989169836,0.1994857001118362,0.20018960000015795,0.7476801001466811
RSVPLG03,TM,20251103-112215,1.0.1,20251020-085245,731,Introduction,Both,1,Automatic,main,8,20251103-112529,local,global,750,H,S,A,A,A-H.png,S-A.png,hH,sS,mask-4.png,mask-4.png,h,1,2.2573005000595003,s,1,0.3643422999884933,0.09844719991087914,0.09822749998420477,0.1993438999634236,0.2001366000622511,0.747547599952668
RSVPLG03,TM,20251103-112215,1.0.1,20251020-085245,731,Introduction,Both,1,Automatic,main,9,20251103-112536,local,local,750,H,S,A,E,A-H.png,E-S.png,hH,sS,mask-2.png,mask-2.png,h,1,1.3769299001432955,s,1,0.18479879992082715,0.09641999984160066,0.09555030008777976,0.19864479987882078,0.19974220008589327,0.7485205999109894
RSVPLG03,TM,20251103-112215,1.0.1,20251020-085245,731,Introduction,Both,1,Automatic,main,10,20251103-112542,local,global,750,S,S,A,E,A-S.png,S-E.png,sS,sS,mask-3.png,mask-2.png,s,1,2.9777682998683304,h,0,0.3795479000546038,0.0967983000446111,0.09657299984246492,0.1998254000209272,0.19872340001165867,0.7489478001371026
RSVPLG03,TM,20251103-112215,1.0.1,20251020-085245,731,Introduction,Both,1,Automatic,main,11,20251103-112550,global,local,750,S,H,A,E,S-A.png,E-H.png,sS,hH,mask-2.png,mask-4.png,s,1,2.5503348000347614,s,0,0.15362989995628595,0.09683499997481704,0.09726319997571409,0.19974840013310313,0.19995660008862615,0.7485968000255525
RSVPLG03,TM,20251103-112215,1.0.1,20251020-085245,731,Introduction,Both,1,Automatic,main,12,20251103-112556,global,global,750,H,S,A,E,H-A.png,S-E.png,hH,sS,mask-4.png,mask-3.png,h,1,2.8753284998238087,s,1,0.2613647000398487,0.09751440002582967,0.09657839988358319,0.20027010003104806,0.19953669980168343,0.749409900046885
RSVPLG03,TM,20251103-112215,1.0.1,20251020-085245,731,Introduction,Both,1,Automatic,main,13,20251103-112604,global,global,750,H,S,E,A,H-E.png,S-A.png,hH,sS,mask-2.png,mask-1.png,h,1,1.7819481999613345,s,1,0.2967581001576036,0.09757050010375679,0.0964281999040395,0.20043580001220107,0.19767489982768893,0.7491316001396626
RSVPLG03,TM,20251103-112215,1.0.1,20251020-085245,731,Introduction,Both,1,Automatic,main,14,20251103-112610,global,local,750,S,H,A,A,S-A.png,A-H.png,sS,hH,mask-4.png,mask-1.png,s,1,2.795475299935788,h,1,1.3722552000544965,0.09645240008831024,0.09736129990778863,0.19931789999827743,0.1991838999092579,0.7475217999890447
RSVPLG03,TM,20251103-112215,1.0.1,20251020-085245,731,Introduction,Both,1,Automatic,main,15,20251103-112619,local,local,750,H,S,A,A,A-H.png,A-S.png,hH,sS,mask-3.png,mask-3.png,h,1,2.505856700008735,s,1,0.24819439998827875,0.09551639994606376,0.09739780006930232,0.19851500005461276,0.20037780003622174,0.747125199995935
RSVPLG03,TM,20251103-112215,1.0.1,20251020-085245,731,Introduction,Both,1,Automatic,main,16,20251103-112626,local,global,750,S,S,E,E,E-S.png,S-E.png,sS,sS,mask-2.png,mask-2.png,s,1,2.8355487000662833,s,1,0.261060600169003,0.09837389993481338,0.09750170004554093,0.2002407000400126,0.20031769992783666,0.7486763000488281
RSVPLG03,TM,20251103-112659,1.0.1,20251020-085245,731,Practice,Both,1,Automatic,main,1,20251103-112739,global,global,750,H,H,E,A,H-E.png,H-A.png,hH,hH,mask-2.png,mask-3.png,h,1,1.3538053000811487,h,1,0.29973660013638437,0.04415580001659691,0.047376600094139576,0.09620129992254078,0.10018349997699261,0.7539605998899788
RSVPLG03,TM,20251103-112659,1.0.1,20251020-085245,731,Practice,Both,1,Automatic,main,2,20251103-112745,global,global,300,H,H,E,A,H-E.png,H-A.png,hH,hH,mask-4.png,mask-3.png,h,1,1.8142377000767738,s,0,0.3406490001361817,0.04750709980726242,0.047726300079375505,0.09952549985609949,0.10005089989863336,0.295913599897176
RSVPLG03,TM,20251103-112659,1.0.1,20251020-085245,731,Practice,Both,1,Automatic,main,3,20251103-112751,local,local,750,S,S,A,E,A-S.png,E-S.png,sS,sS,mask-4.png,mask-4.png,h,0,3.764366599963978,s,1,0.2806063999887556,0.04577989992685616,0.04492110013961792,0.0978017000015825,0.09860479994677007,0.7574453998822719
RSVPLG03,TM,20251103-112659,1.0.1,20251020-085245,731,Practice,Both,1,Automatic,main,4,20251103-112759,local,global,300,H,S,A,A,A-H.png,S-A.png,hH,sS,mask-4.png,mask-3.png,h,1,2.0376068998593837,s,1,0.2641247999854386,0.0474978000856936,0.04730720003135502,0.09852060000412166,0.09934019995853305,0.2963046000804752
RSVPLG03,TM,20251103-112659,1.0.1,20251020-085245,731,Practice,Both,1,Automatic,main,5,20251103-112805,local,global,750,H,H,E,A,E-H.png,H-A.png,hH,hH,mask-3.png,mask-4.png,h,1,1.316243799868971,h,1,0.271665700012818,0.04749129991978407,0.0469288001768291,0.09742479980923235,0.10016210004687309,0.7563516998197883
RSVPLG03,TM,20251103-112659,1.0.1,20251020-085245,731,Practice,Both,1,Automatic,main,6,20251103-112810,global,local,750,H,H,A,E,H-A.png,E-H.png,hH,hH,mask-4.png,mask-1.png,h,1,2.1370119000785053,s,0,0.23544250009581447,0.047915900126099586,0.04658149997703731,0.09953150013461709,0.09878839994780719,0.7586285001598299
RSVPLG03,TM,20251103-112659,1.0.1,20251020-085245,731,Practice,Both,1,Automatic,main,7,20251103-112817,global,global,750,H,H,E,E,H-E.png,H-E.png,hH,hH,mask-2.png,mask-2.png,h,1,0.9699704998638481,h,1,0.6146126999519765,0.04670329997316003,0.04651139979250729,0.09873170009814203,0.0996482998598367,0.7566445001866668
RSVPLG03,TM,20251103-112659,1.0.1,20251020-085245,731,Practice,Both,1,Automatic,main,8,20251103-112823,local,global,750,H,S,A,E,A-H.png,S-E.png,hH,sS,mask-1.png,mask-4.png,h,1,1.7023297999985516,h,0,0.35800560005009174,0.04715160001069307,0.0456214000005275,0.09833299997262657,0.09883640008047223,0.7587019000202417
RSVPLG03,TM,20251103-112659,1.0.1,20251020-085245,731,Practice,Both,1,Automatic,main,9,20251103-112829,local,global,300,H,H,E,A,E-H.png,H-A.png,hH,hH,mask-3.png,mask-4.png,h,1,3.5615654001012444,s,0,1.1887032000813633,0.046539299888536334,0.04758670018054545,0.0999539999756962,0.09914450021460652,0.2964014997705817
RSVPLG03,TM,20251103-112659,1.0.1,20251020-085245,731,Practice,Both,1,Automatic,main,10,20251103-112837,local,local,300,H,S,A,A,A-H.png,A-S.png,hH,sS,mask-4.png,mask-2.png,h,1,5.001799799967557,s,1,0.281167000066489,0.04655799991451204,0.04566800012253225,0.09868999989703298,0.0978555001784116,0.2962985998019576
RSVPLG03,TM,20251103-112659,1.0.1,20251020-085245,731,Practice,Both,1,Automatic,main,11,20251103-112846,global,local,300,S,H,E,A,S-E.png,A-H.png,sS,hH,mask-1.png,mask-1.png,s,1,1.9908787999302149,h,1,0.15281779994256794,0.04767169989645481,0.047339800046756864,0.09934329986572266,0.09977750014513731,0.29658059985376894
RSVPLG03,TM,20251103-112659,1.0.1,20251020-085245,731,Practice,Both,1,Automatic,main,12,20251103-112852,local,local,750,S,H,A,E,A-S.png,E-H.png,sS,hH,mask-1.png,mask-2.png,s,1,1.6095479999203235,h,1,0.26795030012726784,0.0457502999342978,0.0456496998667717,0.09888129984028637,0.09785929997451603,0.7580258999951184
RSVPLG03,TM,20251103-112659,1.0.1,20251020-085245,731,Practice,Both,1,Automatic,main,13,20251103-112858,global,local,750,H,H,A,A,H-A.png,A-H.png,hH,hH,mask-2.png,mask-2.png,h,1,2.9740340998396277,s,0,0.21388039994053543,0.04853150015696883,0.04552110005170107,0.09853330021724105,0.09856020007282495,0.7589179000351578
RSVPLG03,TM,20251103-112659,1.0.1,20251020-085245,731,Practice,Both,1,Automatic,main,14,20251103-112906,local,local,300,S,H,E,A,E-S.png,A-H.png,sS,hH,mask-1.png,mask-2.png,s,1,2.818173199892044,h,1,0.32696299999952316,0.04772059991955757,0.0457077999599278,0.09891269984655082,0.09837980009615421,0.29657549993135035
RSVPLG03,TM,20251103-112659,1.0.1,20251020-085245,731,Practice,Both,1,Automatic,main,15,20251103-112912,global,global,300,S,H,A,E,S-A.png,H-E.png,sS,hH,mask-1.png,mask-1.png,s,1,2.0602475001942366,h,1,0.1329369000159204,0.047675800044089556,0.04678819980472326,0.09926860011182725,0.09795579989440739,0.2974098001141101
RSVPLG03,TM,20251103-112659,1.0.1,20251020-085245,731,Practice,Both,1,Automatic,main,16,20251103-112918,global,local,300,S,S,E,E,S-E.png,E-S.png,sS,sS,mask-3.png,mask-4.png,s,1,1.6352075000759214,s,1,0.2820643000304699,0.04565099999308586,0.04839070001617074,0.09761250019073486,0.10028350003995001,0.29547900008037686
RSVPLG03,TM,20251103-112959,1.0.1,20251020-085245,731,Practice,Both,1,Automatic,main,1,20251103-113019,global,local,300,S,S,E,A,S-E.png,A-S.png,sS,sS,mask-4.png,mask-3.png,s,1,1.5800630000885576,h,0,0.035792000126093626,0.04489869996905327,0.04719879990443587,0.09816669998690486,0.10030389996245503,0.2981217000633478
RSVPLG03,TM,20251103-112959,1.0.1,20251020-085245,731,Practice,Both,1,Automatic,main,2,20251103-113025,local,local,300,H,S,E,A,E-H.png,A-S.png,hH,sS,mask-3.png,mask-3.png,h,1,2.8526993999257684,s,1,0.5241453000344336,0.048139600083231926,0.0475641000084579,0.10030240006744862,0.10062890010885894,0.30101789999753237
RSVPLG03,TM,20251103-112959,1.0.1,20251020-085245,731,Practice,Both,1,Automatic,main,3,20251103-113032,local,global,750,H,H,E,E,E-H.png,H-E.png,hH,hH,mask-4.png,mask-2.png,h,1,1.5758344000205398,h,1,0.28830039990134537,0.04596500005573034,0.047591600101441145,0.09894050005823374,0.1010173000395298,0.7497497000731528
RSVPLG03,TM,20251103-112959,1.0.1,20251020-085245,731,Practice,Both,1,Automatic,main,4,20251103-113038,local,local,750,S,H,A,A,A-S.png,A-H.png,sS,hH,mask-4.png,mask-1.png,s,1,1.307427499908954,h,1,0.20018679997883737,0.04665030003525317,0.047699700109660625,0.0998023001011461,0.09989720000885427,0.7519412999972701
RSVPLG03,TM,20251103-112959,1.0.1,20251020-085245,731,Practice,Both,1,Automatic,main,5,20251103-113043,global,global,750,H,H,A,E,H-A.png,H-E.png,hH,hH,mask-3.png,mask-4.png,h,1,1.1234975999686867,h,1,0.26616219989955425,0.04829449998214841,0.047563100000843406,0.10005669994279742,0.10171919991262257,0.7513256999664009
RSVPLG03,TM,20251103-112959,1.0.1,20251020-085245,731,Practice,Both,1,Automatic,main,6,20251103-113049,global,global,300,H,S,E,E,H-E.png,S-E.png,hH,sS,mask-3.png,mask-3.png,h,1,1.391867000143975,s,1,0.19772140006534755,0.047236999962478876,0.048523700097575784,0.09828659985214472,0.10094749997369945,0.29843849991448224
RSVPLG03,TM,20251103-112959,1.0.1,20251020-085245,731,Practice,Both,1,Automatic,main,7,20251103-113054,local,global,300,H,H,E,A,E-H.png,H-A.png,hH,hH,mask-2.png,mask-4.png,h,1,2.761721500195563,s,0,0.12312270002439618,0.047605899861082435,0.04755989997647703,0.09961469983682036,0.09848830010741949,0.30138479988090694
RSVPLG03,TM,20251103-112959,1.0.1,20251020-085245,731,Practice,Both,1,Automatic,main,8,20251103-113101,local,local,750,H,H,A,A,A-H.png,A-H.png,hH,hH,mask-4.png,mask-4.png,h,1,1.4068060000427067,h,1,0.13531309994868934,0.0476695999968797,0.04672799981199205,0.10016710008494556,0.09998509986326098,0.7505853001493961
RSVPLG03,TM,20251103-112959,1.0.1,20251020-085245,731,Practice,Both,1,Automatic,main,9,20251103-113107,global,local,750,S,H,E,A,S-E.png,A-H.png,sS,hH,mask-3.png,mask-1.png,s,1,1.8800889998674393,h,1,0.09099249984137714,0.047281699953600764,0.04764489992521703,0.09946310007944703,0.09891949989832938,0.7513544000685215
RSVPLG03,TM,20251103-112959,1.0.1,20251020-085245,731,Practice,Both,1,Automatic,main,10,20251103-113113,global,local,300,H,H,E,E,H-E.png,E-H.png,hH,hH,mask-2.png,mask-1.png,h,1,3.5829954999499023,s,0,0.13549490016885102,0.047592899994924664,0.047443300019949675,0.10076820012181997,0.09946759999729693,0.30093450006097555
RSVPLG03,TM,20251103-112959,1.0.1,20251020-085245,731,Practice,Both,1,Automatic,main,11,20251103-113120,local,global,300,H,S,A,A,A-H.png,S-A.png,hH,sS,mask-2.png,mask-3.png,h,1,1.3563189001288265,s,1,0.14989889995194972,0.04572290019132197,0.04901720001362264,0.09891739999875426,0.10002929996699095,0.29862220003269613
RSVPLG03,TM,20251103-112959,1.0.1,20251020-085245,731,Practice,Both,1,Automatic,main,12,20251103-113125,global,local,750,S,S,E,E,S-E.png,E-S.png,sS,sS,mask-2.png,mask-1.png,s,1,1.386197199812159,s,1,0.17874179990030825,0.04738940019160509,0.04857139987871051,0.09874340007081628,0.10057069989852607,0.7499063001014292
RSVPLG03,TM,20251103-112959,1.0.1,20251020-085245,731,Practice,Both,1,Automatic,main,13,20251103-113131,local,local,300,H,H,E,A,E-H.png,A-H.png,hH,hH,mask-2.png,mask-2.png,h,1,2.8877209997735918,s,0,0.9224511999636889,0.046565799973905087,0.0468989999499172,0.09872680017724633,0.09969979990273714,0.2992370000574738
RSVPLG03,TM,20251103-112959,1.0.1,20251020-085245,731,Practice,Both,1,Automatic,main,14,20251103-113139,global,global,750,S,H,E,E,S-E.png,H-E.png,sS,hH,mask-1.png,mask-1.png,s,1,1.256698900135234,h,1,0.12711579981260002,0.047557400073856115,0.047644699923694134,0.10075039998628199,0.10060189990326762,0.7511064000427723
RSVPLG03,TM,20251103-112959,1.0.1,20251020-085245,731,Practice,Both,1,Automatic,main,15,20251103-113144,global,global,300,H,H,E,A,H-E.png,H-A.png,hH,hH,mask-4.png,mask-4.png,h,1,1.0810779000166804,h,1,0.09210269991308451,0.0474978000856936,0.047529400093480945,0.10081400000490248,0.09874740010127425,0.3005915000103414
RSVPLG03,TM,20251103-112959,1.0.1,20251020-085245,731,Practice,Both,1,Automatic,main,16,20251103-113149,local,global,750,H,S,E,E,E-H.png,S-E.png,hH,sS,mask-3.png,mask-1.png,h,1,1.6109579000622034,h,0,0.21328839985653758,0.04645689995959401,0.049571100156754255,0.09900419996120036,0.10052269999869168,0.7491715999785811
RSVPLG03,TM,20251103-113218,1.0.1,20251020-085245,731,Practice,Both,1,Automatic,main,1,20251103-113244,local,global,750,S,H,E,A,E-S.png,H-A.png,sS,hH,mask-2.png,mask-2.png,s,1,1.8167401999235153,h,1,0.1341490000486374,0.04944139998406172,0.04810749995522201,0.10116980015300214,0.10137839987874031,0.749015600187704
RSVPLG03,TM,20251103-113218,1.0.1,20251020-085245,731,Practice,Both,1,Automatic,main,2,20251103-113251,local,local,750,H,S,A,A,A-H.png,A-S.png,hH,sS,mask-4.png,mask-4.png,h,1,1.6922482000663877,s,1,0.16627369984053075,0.0471780002117157,0.04735810006968677,0.10055209998972714,0.10073580010794103,0.747518900083378
RSVPLG03,TM,20251103-113218,1.0.1,20251020-085245,731,Practice,Both,1,Automatic,main,3,20251103-113257,global,global,750,S,S,A,A,S-A.png,S-A.png,sS,sS,mask-3.png,mask-1.png,s,1,1.2022211998701096,s,1,0.15481710014864802,0.047501200111582875,0.04751499998383224,0.09851859998889267,0.10050140018574893,0.7477281999308616
RSVPLG03,TM,20251103-113218,1.0.1,20251020-085245,731,Practice,Both,1,Automatic,main,4,20251103-113302,global,global,300,H,S,A,E,H-A.png,S-E.png,hH,sS,mask-3.png,mask-2.png,h,1,1.6654456998221576,s,1,0.17349720001220703,0.048659699968993664,0.04726210003718734,0.10067479987628758,0.10001490009017289,0.3000588999129832
RSVPLG03,TM,20251103-113218,1.0.1,20251020-085245,731,Practice,Both,1,Automatic,main,5,20251103-113308,global,local,750,S,S,E,E,S-E.png,E-S.png,sS,sS,mask-1.png,mask-1.png,s,1,2.5278165000490844,s,1,0.25217009987682104,0.048717099940404296,0.046664800029248,0.09995350008830428,0.09945850004442036,0.7492096999194473
RSVPLG03,TM,20251103-113218,1.0.1,20251020-085245,731,Practice,Both,1,Automatic,main,6,20251103-113315,global,local,300,S,H,A,E,S-A.png,E-H.png,sS,hH,mask-2.png,mask-3.png,s,1,3.076023400062695,s,0,0.3207099998835474,0.047351500019431114,0.047671600012108684,0.10053030005656183,0.09967739996500313,0.3004020000807941
RSVPLG03,TM,20251103-113218,1.0.1,20251020-085245,731,Practice,Both,1,Automatic,main,7,20251103-113322,local,local,750,S,S,A,E,A-S.png,E-S.png,sS,sS,mask-1.png,mask-3.png,s,1,2.281793500063941,h,0,0.1093329000286758,0.04765200009569526,0.04683959996327758,0.09882080019451678,0.10002339980565012,0.7480553002096713
RSVPLG03,TM,20251103-113218,1.0.1,20251020-085245,731,Practice,Both,1,Automatic,main,8,20251103-113328,local,global,750,H,S,E,A,E-H.png,S-A.png,hH,sS,mask-2.png,mask-2.png,h,1,1.233145299833268,s,1,0.16380380000919104,0.046866599936038256,0.047601299826055765,0.09899300010874867,0.09901969996280968,0.748419800074771
RSVPLG03,TM,20251103-113218,1.0.1,20251020-085245,731,Practice,Both,1,Automatic,main,9,20251103-113334,global,local,750,H,S,A,A,H-A.png,A-S.png,hH,sS,mask-1.png,mask-3.png,h,1,2.6298416000790894,h,0,0.9397285000886768,0.04677730007097125,0.04812719998881221,0.10000460012815893,0.09975180006586015,0.7475992001127452
RSVPLG03,TM,20251103-113218,1.0.1,20251020-085245,731,Practice,Both,1,Automatic,main,10,20251103-113342,local,global,300,S,S,A,A,A-S.png,S-A.png,sS,sS,mask-1.png,mask-3.png,s,1,1.8148803000804037,h,0,0.3595614000223577,0.046532899839803576,0.04752829996868968,0.09906949987635016,0.09924459992907941,0.300050999969244
RSVPLG03,TM,20251103-113218,1.0.1,20251020-085245,731,Practice,Both,1,Automatic,main,11,20251103-113348,local,local,300,S,H,A,E,A-S.png,E-H.png,sS,hH,mask-2.png,mask-3.png,s,1,1.6029715999029577,h,1,0.11839109985157847,0.04499479988589883,0.04773260001093149,0.0991605999879539,0.1009166999720037,0.2978773999493569
RSVPLG03,TM,20251103-113218,1.0.1,20251020-085245,731,Practice,Both,1,Automatic,main,12,20251103-113353,local,local,300,S,S,A,E,A-S.png,E-S.png,sS,sS,mask-3.png,mask-2.png,s,1,2.1536403000354767,h,0,0.1505757998675108,0.04757559997960925,0.047541899839416146,0.09973190003074706,0.09957059985026717,0.2991029000841081
RSVPLG03,TM,20251103-113218,1.0.1,20251020-085245,731,Practice,Both,1,Automatic,main,13,20251103-113359,global,local,300,S,S,E,A,S-E.png,A-S.png,sS,sS,mask-2.png,mask-1.png,s,1,2.089731400134042,s,1,0.9502719999291003,0.04751330008730292,0.045343900099396706,0.0985763999633491,0.09834130015224218,0.3000159999355674
RSVPLG03,TM,20251103-113218,1.0.1,20251020-085245,731,Practice,Both,1,Automatic,main,14,20251103-113406,local,global,300,H,H,A,A,A-H.png,H-A.png,hH,hH,mask-3.png,mask-1.png,s,0,1.5191269000060856,s,0,1.3721668000798672,0.04750100011005998,0.046812199987471104,0.09791709994897246,0.09909979999065399,0.2988410999532789
RSVPLG03,TM,20251103-113218,1.0.1,20251020-085245,731,Practice,Both,1,Automatic,main,15,20251103-113413,global,global,750,H,S,A,E,H-A.png,S-E.png,hH,sS,mask-1.png,mask-2.png,h,1,2.0138314000796527,s,1,0.2509283002000302,0.049856900004670024,0.04742760001681745,0.10027149994857609,0.10059940000064671,0.7492720000445843
RSVPLG03,TM,20251103-113218,1.0.1,20251020-085245,731,Practice,Both,1,Automatic,main,16,20251103-113419,global,global,300,H,H,E,A,H-E.png,H-A.png,hH,hH,mask-2.png,mask-4.png,h,1,0.9910919999238104,h,1,0.10155409993603826,0.047575100092217326,0.04668230004608631,0.09880740009248257,0.09821030008606613,0.2995239000301808
RSVPLG03,TM,20251103-113501,1.0.1,20251020-085245,731,Experiment,Both,1,Automatic,warmup,1,20251103-113630,global,local,300,S,S,E,E,S-E.png,E-S.png,sS,sS,mask-1.png,mask-2.png,s,1,1.341347899986431,s,1,0.10739720007404685,0.0411999998614192,0.046607299940660596,0.09417090006172657,0.10063089989125729,0.29512859997339547
RSVPLG03,TM,20251103-113501,1.0.1,20251020-085245,731,Experiment,Both,1,Automatic,warmup,2,20251103-113636,local,local,750,H,S,E,E,E-H.png,E-S.png,hH,sS,mask-1.png,mask-3.png,h,1,2.480109700001776,s,1,0.1892311000265181,0.04776139999739826,0.048733700066804886,0.09935740008950233,0.10003870003856719,0.7504273999948055
RSVPLG03,TM,20251103-113501,1.0.1,20251020-085245,731,Experiment,Both,1,Automatic,warmup,3,20251103-113642,global,global,750,H,S,A,A,H-A.png,S-A.png,hH,sS,mask-4.png,mask-2.png,h,1,2.792547799879685,s,1,0.11583189992234111,0.047446600161492825,0.0467660001013428,0.0997159001417458,0.09996000002138317,0.7505771999713033
RSVPLG03,TM,20251103-113501,1.0.1,20251020-085245,731,Experiment,Both,1,Automatic,warmup,4,20251103-113649,local,local,300,S,S,A,A,A-S.png,A-S.png,sS,sS,mask-3.png,mask-1.png,s,1,3.3171318999957293,h,0,0.8536999998614192,0.04749709996394813,0.04751430009491742,0.10055680014193058,0.09967079991474748,0.3008596000727266
RSVPLG03,TM,20251103-113501,1.0.1,20251020-085245,731,Experiment,Both,1,Automatic,warmup,5,20251103-113657,global,local,750,H,S,E,A,H-E.png,A-S.png,hH,sS,mask-1.png,mask-3.png,h,1,2.9321755000855774,s,1,0.2296549000311643,0.04654500004835427,0.046834400156512856,0.09952430007979274,0.10030220006592572,0.7506407999899238
RSVPLG03,TM,20251103-113501,1.0.1,20251020-085245,731,Experiment,Both,1,Automatic,main,6,20251103-113705,local,global,300,S,S,E,E,E-S.png,S-E.png,sS,sS,mask-4.png,mask-2.png,s,1,1.8075486000161618,h,0,0.12794330017641187,0.04749340005218983,0.04849119996652007,0.10059209982864559,0.10065030003897846,0.2998007999267429
RSVPLG03,TM,20251103-113501,1.0.1,20251020-085245,731,Experiment,Both,1,Automatic,main,7,20251103-113710,global,local,300,S,H,E,E,S-E.png,E-H.png,sS,hH,mask-4.png,mask-3.png,s,1,1.8347628000192344,h,1,0.13922339980490506,0.04754470009356737,0.047510200180113316,0.0987794001121074,0.09951770002953708,0.2999958998989314
RSVPLG03,TM,20251103-113501,1.0.1,20251020-085245,731,Experiment,Both,1,Automatic,main,8,20251103-113716,global,global,300,H,H,A,E,H-A.png,H-E.png,hH,hH,mask-2.png,mask-2.png,h,1,3.994169200072065,s,0,0.33207129989750683,0.04768429999239743,0.047903799917548895,0.09986150008626282,0.10083319991827011,0.300604100106284
RSVPLG03,TM,20251103-113501,1.0.1,20251020-085245,731,Experiment,Both,1,Automatic,main,9,20251103-113724,global,local,750,H,S,E,A,H-E.png,A-S.png,hH,sS,mask-1.png,mask-1.png,h,1,1.2214627000503242,h,0,0.12136640003882349,0.047575500095263124,0.04755480005405843,0.09965620003640652,0.09880829998292029,0.7510331000667065
RSVPLG03,TM,20251103-113501,1.0.1,20251020-085245,731,Experiment,Both,1,Automatic,main,10,20251103-113730,local,local,300,S,S,A,A,A-S.png,A-S.png,sS,sS,mask-1.png,mask-2.png,h,0,3.030594600131735,s,1,0.11873650015331805,0.04785429988987744,0.04869760014116764,0.10007929988205433,0.09916300000622869,0.3006819998845458
RSVPLG03,TM,20251103-113501,1.0.1,20251020-085245,731,Experiment,Both,1,Automatic,main,11,20251103-113737,global,local,750,H,S,E,E,H-E.png,E-S.png,hH,sS,mask-4.png,mask-4.png,h,1,3.4237444999162108,s,1,0.1569962000939995,0.049358699936419725,0.04880549991503358,0.10129819996654987,0.1003375998698175,0.7523084999993443
RSVPLG03,TM,20251103-113501,1.0.1,20251020-085245,731,Experiment,Both,1,Automatic,main,12,20251103-113744,global,global,750,S,S,A,E,S-A.png,S-E.png,sS,sS,mask-4.png,mask-1.png,s,1,2.055685999803245,s,1,0.2029520000796765,0.04668719996698201,0.047687599901109934,0.09886709996499121,0.09991999994963408,0.750159699935466
RSVPLG03,TM,20251103-113501,1.0.1,20251020-085245,731,Experiment,Both,1,Automatic,main,13,20251103-113751,local,global,300,S,S,A,E,A-S.png,S-E.png,sS,sS,mask-4.png,mask-4.png,s,1,2.21223650011234,h,0,0.07368140015751123,0.04654510016553104,0.04734080005437136,0.09964410006068647,0.1003139999229461,0.2993726001586765
RSVPLG03,TM,20251103-113501,1.0.1,20251020-085245,731,Experiment,Both,1,Automatic,main,14,20251103-113757,local,global,300,H,S,A,A,A-H.png,S-A.png,hH,sS,mask-2.png,mask-2.png,h,1,2.165792299900204,s,1,0.07930869981646538,0.04646209999918938,0.04656560020521283,0.09958719997666776,0.09891990013420582,0.3001780998893082
RSVPLG03,TM,20251103-113501,1.0.1,20251020-085245,731,Experiment,Both,1,Automatic,main,15,20251103-113803,local,global,300,H,H,A,E,A-H.png,H-E.png,hH,hH,mask-3.png,mask-3.png,h,1,3.8379660001955926,s,0,0.17198500013910234,0.046348199946805835,0.04760039993561804,0.1003527999855578,0.09961109980940819,0.2996465000323951
RSVPLG03,TM,20251103-113501,1.0.1,20251020-085245,731,Experiment,Both,1,Automatic,main,16,20251103-113810,local,local,750,H,S,E,E,E-H.png,E-S.png,hH,sS,mask-3.png,mask-4.png,h,1,3.5203072999138385,s,1,0.2765965999569744,0.04934419994242489,0.04839839995838702,0.10115420003421605,0.10136809991672635,0.7513326001353562
RSVPLG03,TM,20251103-113501,1.0.1,20251020-085245,731,Experiment,Both,1,Automatic,main,17,20251103-113818,global,global,300,H,S,A,A,H-A.png,S-A.png,hH,sS,mask-4.png,mask-4.png,h,1,2.5046312999911606,s,1,0.04969480005092919,0.04752440005540848,0.049632899928838015,0.09871950000524521,0.1005239998921752,0.29954730020835996
RSVPLG03,TM,20251103-113501,1.0.1,20251020-085245,731,Experiment,Both,1,Automatic,main,18,20251103-113825,local,local,300,S,S,E,A,E-S.png,A-S.png,sS,sS,mask-2.png,mask-4.png,h,0,3.0855554998852313,s,1,1.100443199975416,0.048028600169345737,0.04860249999910593,0.10078930016607046,0.09964400017634034,0.30020779999904335
RSVPLG03,TM,20251103-113501,1.0.1,20251020-085245,731,Experiment,Both,1,Automatic,main,19,20251103-113833,global,global,750,H,H,A,A,H-A.png,H-A.png,hH,hH,mask-4.png,mask-2.png,h,1,1.3198019999545068,h,1,0.0703905001282692,0.04796530003659427,0.04849840002134442,0.10009690001606941,0.09952050005085766,0.751666400115937
RSVPLG03,TM,20251103-113501,1.0.1,20251020-085245,731,Experiment,Both,1,Automatic,main,20,20251103-113838,local,local,750,S,S,A,E,A-S.png,E-S.png,sS,sS,mask-2.png,mask-4.png,s,1,1.8013631999492645,s,1,0.11740080011077225,0.04755040002055466,0.04648580006323755,0.10157920001074672,0.09943070006556809,0.7520079000387341
RSVPLG03,TM,20251103-113501,1.0.1,20251020-085245,731,Experiment,Both,1,Automatic,main,21,20251103-113844,global,global,300,S,H,E,A,S-E.png,H-A.png,sS,hH,mask-4.png,mask-4.png,s,1,2.220784700009972,h,1,0.08555090008303523,0.04764529992826283,0.047505700029432774,0.09880700008943677,0.09998390008695424,0.2992298000026494
RSVPLG03,TM,20251103-113501,1.0.1,20251020-085245,731,Experiment,Both,1,Automatic,main,22,20251103-113850,global,global,300,S,S,E,A,S-E.png,S-A.png,sS,sS,mask-2.png,mask-3.png,s,1,1.488462199922651,s,1,0.05069609987549484,0.04744260013103485,0.04681379999965429,0.1003038000781089,0.09865729999728501,0.30091380001977086
RSVPLG03,TM,20251103-113501,1.0.1,20251020-085245,731,Experiment,Both,1,Automatic,main,23,20251103-113855,global,local,300,H,H,E,A,H-E.png,A-H.png,hH,hH,mask-1.png,mask-1.png,h,1,3.183988200034946,s,0,0.09241729998029768,0.046539600007236004,0.048375200014561415,0.09954450000077486,0.1017537999432534,0.2986580999568105
RSVPLG03,TM,20251103-113501,1.0.1,20251020-085245,731,Experiment,Both,1,Automatic,main,24,20251103-113902,local,global,750,H,H,E,E,E-H.png,H-E.png,hH,hH,mask-1.png,mask-3.png,h,1,2.77151450002566,h,1,0.17609790014103055,0.04655470000579953,0.0473338000010699,0.09951950004324317,0.10042540007270873,0.7505208000075072
RSVPLG03,TM,20251103-113501,1.0.1,20251020-085245,731,Experiment,Both,1,Automatic,main,25,20251103-113910,local,local,300,S,S,A,A,A-S.png,A-S.png,sS,sS,mask-4.png,mask-2.png,s,1,1.6333836000412703,h,0,0.06921319989487529,0.04872449999675155,0.04722719988785684,0.0999304000288248,0.09949609986506402,0.3004010000731796
RSVPLG03,TM,20251103-113501,1.0.1,20251020-085245,731,Experiment,Both,1,Automatic,main,26,20251103-114107,local,local,300,H,S,A,E,A-H.png,E-S.png,hH,sS,mask-2.png,mask-2.png,h,1,1.7284369999542832,s,1,0.05245339986868203,0.04745760001242161,0.047674600034952164,0.10064979991875589,0.10013600019738078,0.30029549985192716
RSVPLG03,TM,20251103-113501,1.0.1,20251020-085245,731,Experiment,Both,1,Automatic,main,27,20251103-114113,local,local,300,H,H,E,A,E-H.png,A-H.png,hH,hH,mask-3.png,mask-4.png,h,1,2.709767200052738,h,1,0.05283719999715686,0.04694230016320944,0.047342800069600344,0.09956070012412965,0.09833370009437203,0.3012202000245452
RSVPLG03,TM,20251103-113501,1.0.1,20251020-085245,731,Experiment,Both,1,Automatic,main,28,20251103-114119,local,local,300,H,S,E,A,E-H.png,A-S.png,hH,sS,mask-2.png,mask-1.png,h,1,2.6863843998871744,s,1,0.10018750000745058,0.04864230006933212,0.047503799898549914,0.10179370013065636,0.0990406998898834,0.3020286001265049
RSVPLG03,TM,20251103-113501,1.0.1,20251020-085245,731,Experiment,Both,1,Automatic,main,29,20251103-114125,global,local,300,S,S,A,E,S-A.png,E-S.png,sS,sS,mask-3.png,mask-2.png,s,1,2.779167499858886,s,1,0.2492855000309646,0.04876539995893836,0.047318700002506375,0.10156510001979768,0.10033259983174503,0.3013842001091689
RSVPLG03,TM,20251103-113501,1.0.1,20251020-085245,731,Experiment,Both,1,Automatic,main,30,20251103-114132,global,local,750,H,S,A,A,H-A.png,A-S.png,hH,sS,mask-1.png,mask-2.png,h,1,2.230047899996862,h,0,0.11498499987646937,0.0464113000780344,0.048613399965688586,0.0987404000479728,0.10111410007812083,0.7490022999700159
RSVPLG03,TM,20251103-113501,1.0.1,20251020-085245,731,Experiment,Both,1,Automatic,main,31,20251103-114139,global,local,300,S,H,E,E,S-E.png,E-H.png,sS,hH,mask-3.png,mask-2.png,s,1,3.374669099925086,h,1,1.52627530018799,0.04650900000706315,0.04952830006368458,0.0995061001740396,0.10154579998925328,0.2987752000335604
RSVPLG03,TM,20251103-113501,1.0.1,20251020-085245,731,Experiment,Both,1,Automatic,main,32,20251103-114147,local,global,300,H,S,E,A,E-H.png,S-A.png,hH,sS,mask-1.png,mask-3.png,h,1,6.246300700120628,h,0,0.250252699945122,0.04657889995723963,0.04625539993867278,0.10101460013538599,0.0992862000130117,0.3012558000627905
RSVPLG03,TM,20251103-113501,1.0.1,20251020-085245,731,Experiment,Both,1,Automatic,main,33,20251103-114157,local,local,750,H,S,E,A,E-H.png,A-S.png,hH,sS,mask-4.png,mask-3.png,h,1,1.2405030999798328,s,1,0.07276709983125329,0.04753630002960563,0.04753770004026592,0.09981050016358495,0.10007539996877313,0.7504257000982761
RSVPLG03,TM,20251103-113501,1.0.1,20251020-085245,731,Experiment,Both,1,Automatic,main,34,20251103-114203,global,global,750,S,S,A,E,S-A.png,S-E.png,sS,sS,mask-4.png,mask-2.png,s,1,2.116674799937755,s,1,0.12492690002545714,0.048832300119102,0.048663900000974536,0.10053279995918274,0.10012670001015067,0.7517248999793082
RSVPLG03,TM,20251103-113501,1.0.1,20251020-085245,731,Experiment,Both,1,Automatic,main,35,20251103-114209,local,global,300,S,H,A,A,A-S.png,H-A.png,sS,hH,mask-1.png,mask-4.png,s,1,4.340005700010806,h,1,0.08978090016171336,0.047461300157010555,0.04960560007020831,0.09844640013761818,0.10145949991419911,0.2982916000764817
RSVPLG03,TM,20251103-113501,1.0.1,20251020-085245,731,Experiment,Both,1,Automatic,main,36,20251103-114217,local,local,750,H,H,E,A,E-H.png,A-H.png,hH,hH,mask-3.png,mask-1.png,h,1,3.071788600180298,h,1,0.11800520005635917,0.04769610008224845,0.04785460000857711,0.101453100098297,0.10052280011586845,0.7516650999896228
RSVPLG03,TM,20251103-113501,1.0.1,20251020-085245,731,Experiment,Both,1,Automatic,main,37,20251103-114225,global,local,750,S,S,E,E,S-E.png,E-S.png,sS,sS,mask-3.png,mask-4.png,s,1,2.9658925998955965,s,1,0.19837730005383492,0.04841569997370243,0.04674470005556941,0.1000121000688523,0.09971230011433363,0.7509381000418216
RSVPLG03,TM,20251103-113501,1.0.1,20251020-085245,731,Experiment,Both,1,Automatic,main,38,20251103-114232,local,global,300,S,H,A,A,A-S.png,H-A.png,sS,hH,mask-3.png,mask-2.png,h,0,4.600949599873275,s,0,0.08358260011300445,0.047886500135064125,0.047775400104001164,0.10009270021691918,0.09982370003126562,0.30058000003919005
RSVPLG03,TM,20251103-113501,1.0.1,20251020-085245,731,Experiment,Both,1,Automatic,main,39,20251103-114240,local,local,750,H,S,A,E,A-H.png,E-S.png,hH,sS,mask-3.png,mask-3.png,h,1,4.917022099951282,h,0,0.3066364999394864,0.046841599978506565,0.047507200157269835,0.09927050000987947,0.1001806000713259,0.7510126999113709
RSVPLG03,TM,20251103-113501,1.0.1,20251020-085245,731,Experiment,Both,1,Automatic,main,40,20251103-114250,local,local,750,S,H,A,E,A-S.png,E-H.png,sS,hH,mask-2.png,mask-1.png,s,1,2.5597902999725193,s,0,0.07331080012954772,0.047675399808213115,0.04649089998565614,0.10079819988459349,0.09941100003197789,0.7518294998444617
RSVPLG03,TM,20251103-113501,1.0.1,20251020-085245,731,Experiment,Both,1,Automatic,main,41,20251103-114256,global,local,300,H,H,E,E,H-E.png,E-H.png,hH,hH,mask-4.png,mask-1.png,h,1,3.667232100153342,s,0,0.4762878001201898,0.04855399997904897,0.047499600099399686,0.10062699997797608,0.09988350002095103,0.30107029993087053
RSVPLG03,TM,20251103-113501,1.0.1,20251020-085245,731,Experiment,Both,1,Automatic,main,42,20251103-114304,local,local,300,S,S,A,E,A-S.png,E-S.png,sS,sS,mask-2.png,mask-4.png,h,0,3.604376700008288,s,1,0.070920699974522,0.04748830012977123,0.0467081000097096,0.09950520005077124,0.0999117000028491,0.3003899999894202
RSVPLG03,TM,20251103-113501,1.0.1,20251020-085245,731,Experiment,Both,1,Automatic,main,43,20251103-114312,global,local,750,S,S,E,A,S-E.png,A-S.png,sS,sS,mask-2.png,mask-3.png,s,1,1.4515802999958396,s,1,0.06957209995016456,0.04675540002062917,0.04862060002051294,0.099974500015378,0.10077719995751977,0.7500378000549972
RSVPLG03,TM,20251103-113501,1.0.1,20251020-085245,731,Experiment,Both,1,Automatic,main,44,20251103-114317,global,local,300,S,S,A,E,S-A.png,E-S.png,sS,sS,mask-4.png,mask-4.png,s,1,3.7709742998704314,h,0,0.12027880013920367,0.04780870000831783,0.04754880000837147,0.10033520008437335,0.09969430021010339,0.3014141998719424
RSVPLG03,TM,20251103-113501,1.0.1,20251020-085245,731,Experiment,Both,1,Automatic,main,45,20251103-114325,local,global,750,H,S,E,E,E-H.png,S-E.png,hH,sS,mask-4.png,mask-4.png,h,1,1.7979494000319391,s,1,0.35814019991084933,0.04691989999264479,0.0474008999299258,0.09925789991393685,0.10057799983769655,0.7510041000787169
RSVPLG03,TM,20251103-113501,1.0.1,20251020-085245,731,Experiment,Both,1,Automatic,main,46,20251103-114331,global,global,750,H,S,E,E,H-E.png,S-E.png,hH,sS,mask-1.png,mask-4.png,h,1,1.8577461999375373,s,1,0.08924289979040623,0.04751850012689829,0.04733529989607632,0.1015192000195384,0.10035389987751842,0.7514329000841826
RSVPLG03,TM,20251103-113501,1.0.1,20251020-085245,731,Experiment,Both,1,Automatic,main,47,20251103-114337,global,global,300,H,H,E,E,H-E.png,H-E.png,hH,hH,mask-1.png,mask-1.png,h,1,2.1419877000153065,s,0,0.012354499893262982,0.04718320001848042,0.04741900018416345,0.09894409985281527,0.09944010013714433,0.2996373998466879
RSVPLG03,TM,20251103-113501,1.0.1,20251020-085245,731,Experiment,Both,1,Automatic,main,48,20251103-114343,global,global,750,S,S,A,A,S-A.png,S-A.png,sS,sS,mask-4.png,mask-3.png,s,1,2.0569154999684542,s,1,0.07146289991214871,0.0476730999071151,0.04855199996381998,0.09988490003161132,0.10072680003941059,0.750854599988088
RSVPLG03,TM,20251103-113501,1.0.1,20251020-085245,731,Experiment,Both,1,Automatic,main,49,20251103-114349,local,local,750,H,H,E,E,E-H.png,E-H.png,hH,hH,mask-1.png,mask-4.png,h,1,3.4113884000107646,h,1,0.1983157000504434,0.046746499836444855,0.047465499956160784,0.10097439982928336,0.09925780002959073,0.7514921999536455
RSVPLG03,TM,20251103-113501,1.0.1,20251020-085245,731,Experiment,Both,1,Automatic,main,50,20251103-114357,global,local,300,S,S,A,A,S-A.png,A-S.png,sS,sS,mask-1.png,mask-3.png,s,1,2.35879769991152,s,1,0.09113559988327324,0.04952940018847585,0.047576599987223744,0.10120150004513562,0.09958269982598722,0.301668600179255
RSVPLG03,TM,20251103-113501,1.0.1,20251020-085245,731,Experiment,Both,1,Automatic,main,51,20251103-114415,local,local,300,S,S,A,A,A-S.png,A-S.png,sS,sS,mask-4.png,mask-3.png,s,1,1.792864799965173,h,0,0.011163200018927455,0.04764680005609989,0.047509899828583,0.09917870000936091,0.09939179988577962,0.2997745000757277
RSVPLG03,TM,20251103-113501,1.0.1,20251020-085245,731,Experiment,Both,1,Automatic,main,52,20251103-114420,local,global,750,H,H,A,E,A-H.png,H-E.png,hH,hH,mask-3.png,mask-1.png,h,1,1.11860330007039,h,1,0.056683000177145004,0.04751149984076619,0.04752269992604852,0.09958739997819066,0.1015198000241071,0.7497026999481022
RSVPLG03,TM,20251103-113501,1.0.1,20251020-085245,731,Experiment,Both,1,Automatic,main,53,20251103-114426,local,global,750,S,H,A,E,A-S.png,H-E.png,sS,hH,mask-2.png,mask-1.png,s,1,1.500254699960351,h,1,0.03901509987190366,0.04774960014037788,0.04760110005736351,0.1010175000410527,0.1003038000781089,0.7525808000937104
RSVPLG03,TM,20251103-113501,1.0.1,20251020-085245,731,Experiment,Both,1,Automatic,main,54,20251103-114431,local,global,750,H,S,A,E,A-H.png,S-E.png,hH,sS,mask-1.png,mask-2.png,h,1,1.097385099856183,h,0,0.06778519996441901,0.047657599905505776,0.04672430013306439,0.10013969987630844,0.10100700007751584,0.7505981998983771
RSVPLG03,TM,20251103-113501,1.0.1,20251020-085245,731,Experiment,Both,1,Automatic,main,55,20251103-114437,global,global,300,H,H,A,E,H-A.png,H-E.png,hH,hH,mask-2.png,mask-3.png,h,1,1.9786390999797732,s,0,0.12512700003571808,0.04857249977067113,0.04779059998691082,0.10081279999576509,0.10077630006708205,0.3004681998863816
RSVPLG03,TM,20251103-113501,1.0.1,20251020-085245,731,Experiment,Both,1,Automatic,main,56,20251103-114442,local,local,750,S,H,E,A,E-S.png,A-H.png,sS,hH,mask-1.png,mask-4.png,s,1,1.3964379001408815,h,1,0.8115659998729825,0.04575349995866418,0.04691889998503029,0.09982969984412193,0.10021930001676083,0.7495992998592556
RSVPLG03,TM,20251103-113501,1.0.1,20251020-085245,731,Experiment,Both,1,Automatic,main,57,20251103-114449,global,global,750,S,H,E,E,S-E.png,H-E.png,sS,hH,mask-1.png,mask-2.png,s,1,2.0550323999486864,h,1,0.05339669995009899,0.0483969000633806,0.04654850019142032,0.10071510006673634,0.1003627001773566,0.7517565998714417
RSVPLG03,TM,20251103-113501,1.0.1,20251020-085245,731,Experiment,Both,1,Automatic,main,58,20251103-114455,local,local,300,H,S,A,A,A-H.png,A-S.png,hH,sS,mask-3.png,mask-1.png,h,1,2.059400500031188,h,0,0.04521219991147518,0.04761419980786741,0.04773729993030429,0.10057909996248782,0.10078369989059865,0.3009065999649465
RSVPLG03,TM,20251103-113501,1.0.1,20251020-085245,731,Experiment,Both,1,Automatic,main,59,20251103-114501,local,global,300,S,S,A,E,A-S.png,S-E.png,sS,sS,mask-2.png,mask-2.png,h,0,1.6769956001080573,s,1,0.08960439986549318,0.048607399920001626,0.04731809999793768,0.10083230002783239,0.0989310999866575,0.30096110003069043
RSVPLG03,TM,20251103-113501,1.0.1,20251020-085245,731,Experiment,Both,1,Automatic,main,60,20251103-114506,global,local,750,H,S,A,E,H-A.png,E-S.png,hH,sS,mask-2.png,mask-4.png,h,1,2.451217800145969,s,1,0.23706969991326332,0.049615500029176474,0.0479607000015676,0.10161460004746914,0.10014029988087714,0.7516690001357347
RSVPLG03,TM,20251103-113501,1.0.1,20251020-085245,731,Experiment,Both,1,Automatic,main,61,20251103-114513,global,global,300,S,S,A,E,S-A.png,S-E.png,sS,sS,mask-4.png,mask-3.png,s,1,3.6618809001520276,s,1,0.20109089999459684,0.04780209995806217,0.04817790002562106,0.10015679989010096,0.10106729995459318,0.29973149998113513
RSVPLG03,TM,20251103-113501,1.0.1,20251020-085245,731,Experiment,Both,1,Automatic,main,62,20251103-114521,global,local,300,S,S,A,E,S-A.png,E-S.png,sS,sS,mask-4.png,mask-4.png,s,1,2.4273204999044538,s,1,0.12337949988432229,0.04752949997782707,0.0460147000849247,0.09834619984030724,0.0985532000195235,0.29994519986212254
RSVPLG03,TM,20251103-113501,1.0.1,20251020-085245,731,Experiment,Both,1,Automatic,main,63,20251103-114527,local,global,300,H,S,A,A,A-H.png,S-A.png,hH,sS,mask-3.png,mask-1.png,h,1,3.0620464999228716,s,1,1.0928968000225723,0.04736440000124276,0.047403200063854456,0.09919649991206825,0.09955659997649491,0.30022530001588166
RSVPLG03,TM,20251103-113501,1.0.1,20251020-085245,731,Experiment,Both,1,Automatic,main,64,20251103-114535,global,local,750,S,H,E,A,S-E.png,A-H.png,sS,hH,mask-2.png,mask-2.png,s,1,2.186804800061509,h,1,0.03868610016070306,0.04854339989833534,0.046095099998638034,0.10061619989573956,0.09920189995318651,0.752269099932164
RSVPLG03,TM,20251103-113501,1.0.1,20251020-085245,731,Experiment,Both,1,Automatic,main,65,20251103-114541,local,global,300,S,S,E,A,E-S.png,S-A.png,sS,sS,mask-3.png,mask-4.png,s,1,3.8749102000147104,s,1,0.158034399850294,0.04751459998078644,0.04853940010070801,0.09954510000534356,0.10259940009564161,0.2991555999033153
RSVPLG03,TM,20251103-113501,1.0.1,20251020-085245,731,Experiment,Both,1,Automatic,main,66,20251103-114549,global,global,300,S,S,A,E,S-A.png,S-E.png,sS,sS,mask-3.png,mask-3.png,s,1,2.155550600029528,h,0,0.04420339991338551,0.04736509989015758,0.04851280013099313,0.10035039996728301,0.10052220011129975,0.3006199998781085
RSVPLG03,TM,20251103-113501,1.0.1,20251020-085245,731,Experiment,Both,1,Automatic,main,67,20251103-114555,global,global,300,S,S,A,E,S-A.png,S-E.png,sS,sS,mask-4.png,mask-2.png,s,1,1.1040423000231385,s,1,0.10537669993937016,0.04648969997651875,0.04756710003130138,0.09973739995621145,0.10017269989475608,0.2994055999442935
RSVPLG03,TM,20251103-113501,1.0.1,20251020-085245,731,Experiment,Both,1,Automatic,main,68,20251103-114600,global,global,750,S,S,A,E,S-A.png,S-E.png,sS,sS,mask-3.png,mask-1.png,s,1,2.0685290000401437,s,1,0.15262870001606643,0.047551200026646256,0.04739009984768927,0.1007213001139462,0.10040499991737306,0.7519973001908511
RSVPLG03,TM,20251103-113501,1.0.1,20251020-085245,731,Experiment,Both,1,Automatic,main,69,20251103-114607,global,local,750,S,S,E,E,S-E.png,E-S.png,sS,sS,mask-3.png,mask-2.png,s,1,1.438441300066188,s,1,0.38595640007406473,0.048214799957349896,0.04852460022084415,0.10088000004179776,0.10053500020876527,0.7509633998852223
RSVPLG03,TM,20251103-113501,1.0.1,20251020-085245,731,Experiment,Both,1,Automatic,main,70,20251103-114613,local,global,750,S,H,A,E,A-S.png,H-E.png,sS,hH,mask-4.png,mask-2.png,h,0,1.7981051998212934,h,1,0.10875160014256835,0.04772419994696975,0.04614869994111359,0.09957149997353554,0.09889569994993508,0.7516443999484181
RSVPLG03,TM,20251103-113501,1.0.1,20251020-085245,731,Experiment,Both,1,Automatic,main,71,20251103-114619,local,local,750,S,S,A,E,A-S.png,E-S.png,sS,sS,mask-4.png,mask-4.png,s,1,1.3891167999245226,s,1,0.3129982999525964,0.04751920001581311,0.047515599988400936,0.09952749987132847,0.10151210008189082,0.7503692999016494
RSVPLG03,TM,20251103-113501,1.0.1,20251020-085245,731,Experiment,Both,1,Automatic,main,72,20251103-114625,local,global,300,H,S,A,E,A-H.png,S-E.png,hH,sS,mask-2.png,mask-2.png,h,1,2.432442700024694,h,0,0.15560460020788014,0.04777219984680414,0.04907379997894168,0.09822279983200133,0.09968010010197759,0.2988618998788297
RSVPLG03,TM,20251103-113501,1.0.1,20251020-085245,731,Experiment,Both,1,Automatic,main,73,20251103-114631,global,global,300,S,S,A,E,S-A.png,S-E.png,sS,sS,mask-3.png,mask-1.png,h,0,1.946429800009355,s,1,0.03189229988493025,0.04747109999880195,0.047496600076556206,0.09932140004821122,0.09947409993037581,0.3004199001006782
RSVPLG03,TM,20251103-113501,1.0.1,20251020-085245,731,Experiment,Both,1,Automatic,main,74,20251103-114637,local,local,750,S,S,A,E,A-S.png,E-S.png,sS,sS,mask-1.png,mask-4.png,h,0,2.465161200147122,s,1,0.039851600071415305,0.04770949995145202,0.04806299996562302,0.09989840001799166,0.10035889991559088,0.7517748000100255
RSVPLG03,TM,20251103-113501,1.0.1,20251020-085245,731,Experiment,Both,1,Automatic,main,75,20251103-114643,local,global,750,H,S,E,E,E-H.png,S-E.png,hH,sS,mask-1.png,mask-2.png,h,1,1.7882839001249522,h,0,0.10392699996009469,0.04653930012136698,0.04823970003053546,0.09957940015010536,0.10178630007430911,0.7493795000482351
RSVPLG03,TM,20251103-113501,1.0.1,20251020-085245,731,Experiment,Both,1,Automatic,main,76,20251103-114659,global,local,300,H,H,E,E,H-E.png,E-H.png,hH,hH,mask-3.png,mask-4.png,h,1,1.3520684998948127,s,0,0.9350093000102788,0.04759830003604293,0.046339499996975064,0.09856710000894964,0.10024549998342991,0.29984880005940795
RSVPLG03,TM,20251103-113501,1.0.1,20251020-085245,731,Experiment,Both,1,Automatic,main,77,20251103-114705,global,global,750,S,H,A,E,S-A.png,H-E.png,sS,hH,mask-3.png,mask-4.png,h,0,1.1848629000596702,s,0,0.025894199963659048,0.047569400165230036,0.04751639999449253,0.09979600016959012,0.1000606999732554,0.7497992999851704
RSVPLG03,TM,20251103-113501,1.0.1,20251020-085245,731,Experiment,Both,1,Automatic,main,78,20251103-114711,local,local,300,H,H,A,E,A-H.png,E-H.png,hH,hH,mask-4.png,mask-3.png,h,1,2.9189520000945777,h,1,0.20428379997611046,0.0461281999014318,0.04857849981635809,0.09884379990398884,0.10079219983890653,0.29934350005351007
RSVPLG03,TM,20251103-113501,1.0.1,20251020-085245,731,Experiment,Both,1,Automatic,main,79,20251103-114718,global,global,300,H,H,E,A,H-E.png,H-A.png,hH,hH,mask-3.png,mask-2.png,h,1,1.455517000053078,h,1,0.05834590015001595,0.04759970004670322,0.04768179985694587,0.09976830007508397,0.09996799984946847,0.30036510014906526
RSVPLG03,TM,20251103-113501,1.0.1,20251020-085245,731,Experiment,Both,1,Automatic,main,80,20251103-114723,local,global,300,H,S,A,E,A-H.png,S-E.png,hH,sS,mask-1.png,mask-3.png,h,1,2.17573789996095,s,1,0.060370400082319975,0.04670900013297796,0.04726419993676245,0.09997870004735887,0.09863279992714524,0.300489200046286
RSVPLG03,TM,20251103-113501,1.0.1,20251020-085245,731,Experiment,Both,1,Automatic,main,81,20251103-114729,local,global,750,S,S,A,A,A-S.png,S-A.png,sS,sS,mask-2.png,mask-1.png,s,1,1.9189283000305295,h,0,0.07057409989647567,0.04572569997981191,0.04680530005134642,0.09893410000950098,0.0984633001498878,0.7509488000068814
RSVPLG03,TM,20251103-113501,1.0.1,20251020-085245,731,Experiment,Both,1,Automatic,main,82,20251103-114735,global,global,750,S,S,A,A,S-A.png,S-A.png,sS,sS,mask-2.png,mask-3.png,s,1,1.543592100031674,s,1,0.0449989999178797,0.047458200016990304,0.04918470000848174,0.09942770004272461,0.10125760012306273,0.7494085000362247
RSVPLG03,TM,20251103-113501,1.0.1,20251020-085245,731,Experiment,Both,1,Automatic,main,83,20251103-114741,global,global,750,H,H,E,A,H-E.png,H-A.png,hH,hH,mask-3.png,mask-4.png,h,1,2.030894099967554,s,0,0.05543409986421466,0.04651070013642311,0.04734429996460676,0.09853980015031993,0.10018180008046329,0.7500953001435846
RSVPLG03,TM,20251103-113501,1.0.1,20251020-085245,731,Experiment,Both,1,Automatic,main,84,20251103-114747,local,global,750,S,S,E,E,E-S.png,S-E.png,sS,sS,mask-4.png,mask-1.png,s,1,2.0203067001421005,h,0,0.04461079998873174,0.047474800143390894,0.046635600039735436,0.10050190007314086,0.09905720013193786,0.7523054000921547
RSVPLG03,TM,20251103-113501,1.0.1,20251020-085245,731,Experiment,Both,1,Automatic,main,85,20251103-114753,global,global,750,S,S,E,A,S-E.png,S-A.png,sS,sS,mask-3.png,mask-4.png,s,1,1.267046800116077,s,1,0.10097959986887872,0.04709579981863499,0.04754510009661317,0.10037819994613528,0.09988370002247393,0.7519464998040348
RSVPLG03,TM,20251103-113501,1.0.1,20251020-085245,731,Experiment,Both,1,Automatic,main,86,20251103-114759,global,local,750,H,S,A,A,H-A.png,A-S.png,hH,sS,mask-2.png,mask-3.png,h,1,2.2376710001844913,s,1,0.05410599987953901,0.04711630009114742,0.04704120010137558,0.09931900002993643,0.101269599981606,0.7505942999850959
RSVPLG03,TM,20251103-113501,1.0.1,20251020-085245,731,Experiment,Both,1,Automatic,main,87,20251103-114805,global,global,300,H,H,E,A,H-E.png,H-A.png,hH,hH,mask-4.png,mask-3.png,h,1,1.7350509997922927,h,1,0.09302849997766316,0.04728870000690222,0.04658510000444949,0.10032560001127422,0.09865069994702935,0.30071639991365373
RSVPLG03,TM,20251103-113501,1.0.1,20251020-085245,731,Experiment,Both,1,Automatic,main,88,20251103-114810,global,global,750,S,S,A,A,S-A.png,S-A.png,sS,sS,mask-1.png,mask-2.png,s,1,1.2753630001097918,s,1,0.07167759980075061,0.04650019994005561,0.04773009987547994,0.09997810004279017,0.10018299985677004,0.7499365999829024
RSVPLG03,TM,20251103-113501,1.0.1,20251020-085245,731,Experiment,Both,1,Automatic,main,89,20251103-114816,global,global,750,S,H,E,E,S-E.png,H-E.png,sS,hH,mask-2.png,mask-3.png,s,1,1.5865865000523627,h,1,1.6988574001006782,0.047663900069892406,0.047854699892923236,0.1000704001635313,0.09944600006565452,0.7503156000748277
RSVPLG03,TM,20251103-113501,1.0.1,20251020-085245,731,Experiment,Both,1,Automatic,main,90,20251103-114821,local,local,750,S,S,E,E,E-S.png,E-S.png,sS,sS,mask-1.png,mask-2.png,s,1,4.184180200099945,s,1,0.2536447001621127,0.048558699898421764,0.046669699950143695,0.10021959990262985,0.09886980010196567,0.7523433999158442
RSVPLG03,TM,20251103-113501,1.0.1,20251020-085245,731,Experiment,Both,1,Automatic,main,91,20251103-114830,global,local,750,H,S,E,A,H-E.png,A-S.png,hH,sS,mask-2.png,mask-1.png,h,1,1.5518725998699665,s,1,0.19862599996849895,0.046727499924600124,0.048527800012379885,0.09994290000759065,0.10155059979297221,0.7499415001366287
RSVPLG03,TM,20251103-113501,1.0.1,20251020-085245,731,Experiment,Both,1,Automatic,main,92,20251103-114836,local,local,300,H,S,E,E,E-H.png,E-S.png,hH,sS,mask-3.png,mask-4.png,h,1,1.7231447999365628,s,1,0.11500829993747175,0.04774650000035763,0.04743619984947145,0.10037830006331205,0.10028599994257092,0.29937330004759133
RSVPLG03,TM,20251103-113501,1.0.1,20251020-085245,731,Experiment,Both,1,Automatic,main,93,20251103-114841,local,global,750,S,S,E,E,E-S.png,S-E.png,sS,sS,mask-1.png,mask-2.png,s,1,2.4939077999442816,h,0,0.22885359986685216,0.04745110007934272,0.0467071000020951,0.09963609999977052,0.10003450000658631,0.7517929000314325
RSVPLG03,TM,20251103-113501,1.0.1,20251020-085245,731,Experiment,Both,1,Automatic,main,94,20251103-114848,local,local,300,S,S,A,A,A-S.png,A-S.png,sS,sS,mask-2.png,mask-2.png,s,1,1.6323240001220256,h,0,0.038285500137135386,0.04752849997021258,0.046917600091546774,0.10051860008388758,0.09978129994124174,0.3012451999820769
RSVPLG03,TM,20251103-113501,1.0.1,20251020-085245,731,Experiment,Both,1,Automatic,main,95,20251103-114854,global,global,750,S,H,A,E,S-A.png,H-E.png,sS,hH,mask-2.png,mask-3.png,s,1,1.109843699960038,h,1,0.036675000097602606,0.04856860009022057,0.04751519998535514,0.10282259993255138,0.09952949988655746,0.7535511001478881
RSVPLG03,TM,20251103-113501,1.0.1,20251020-085245,731,Experiment,Both,1,Automatic,main,96,20251103-114859,global,local,300,S,S,E,A,S-E.png,A-S.png,sS,sS,mask-1.png,mask-3.png,s,1,1.7734838998876512,s,1,0.09100169991143048,0.04734160006046295,0.04656649986281991,0.09931820002384484,0.09858160000294447,0.30061960010789335
RSVPLG03,TM,20251103-113501,1.0.1,20251020-085245,731,Experiment,Both,1,Automatic,main,97,20251103-114904,local,global,750,H,S,A,A,A-H.png,S-A.png,hH,sS,mask-4.png,mask-3.png,s,0,2.9530674000270665,h,0,0.33218719996511936,0.04752819985151291,0.047509900061413646,0.10055479989387095,0.0995187999214977,0.7505602999590337
RSVPLG03,TM,20251103-113501,1.0.1,20251020-085245,731,Experiment,Both,1,Automatic,main,98,20251103-114912,global,local,750,S,H,A,E,S-A.png,E-H.png,sS,hH,mask-3.png,mask-3.png,s,1,1.3723359999712557,s,0,0.06921250000596046,0.04634490003809333,0.04753390001133084,0.1004916001111269,0.10157459997572005,0.7505328000988811
RSVPLG03,TM,20251103-113501,1.0.1,20251020-085245,731,Experiment,Both,1,Automatic,main,99,20251103-114917,local,local,750,H,H,A,A,A-H.png,A-H.png,hH,hH,mask-3.png,mask-2.png,h,1,2.95533090014942,h,1,0.1083891000598669,0.04799029999412596,0.04683439992368221,0.10129610006697476,0.10010770009830594,0.7518448000773787
RSVPLG03,TM,20251103-113501,1.0.1,20251020-085245,731,Experiment,Both,1,Automatic,main,100,20251103-114924,global,local,300,H,H,E,A,H-E.png,A-H.png,hH,hH,mask-3.png,mask-4.png,h,1,1.5425913000945002,s,0,0.05540760001167655,0.04659869987517595,0.04660680005326867,0.0994136999361217,0.0995968000497669,0.29991189995780587
RSVPLG03,TM,20251103-113501,1.0.1,20251020-085245,731,Experiment,Both,1,Automatic,main,101,20251103-114935,global,local,300,S,S,E,E,S-E.png,E-S.png,sS,sS,mask-2.png,mask-4.png,s,1,1.1613501999527216,s,1,0.0914761999156326,0.04841659986414015,0.04574530012905598,0.1009776999708265,0.09945120010524988,0.30196949979290366
RSVPLG03,TM,20251103-113501,1.0.1,20251020-085245,731,Experiment,Both,1,Automatic,main,102,20251103-114940,local,local,750,H,S,E,A,E-H.png,A-S.png,hH,sS,mask-3.png,mask-3.png,h,1,3.2925428999587893,s,1,0.1492757999803871,0.04767489992082119,0.0475061999168247,0.10155180003494024,0.09940760000608861,0.7519026999361813
RSVPLG03,TM,20251103-113501,1.0.1,20251020-085245,731,Experiment,Both,1,Automatic,main,103,20251103-114947,global,global,750,H,H,E,E,H-E.png,H-E.png,hH,hH,mask-4.png,mask-2.png,h,1,1.269395199837163,h,1,0.07008839980699122,0.04751530010253191,0.04780519986525178,0.0995763000100851,0.1003369998652488,0.7500357001554221
RSVPLG03,TM,20251103-113501,1.0.1,20251020-085245,731,Experiment,Both,1,Automatic,main,104,20251103-114953,global,local,300,S,H,E,A,S-E.png,A-H.png,sS,hH,mask-4.png,mask-3.png,s,1,2.872588000027463,h,1,1.019750100094825,0.04734649998135865,0.04751370009034872,0.09934529988095164,0.1005202999804169,0.2995893999468535
RSVPLG03,TM,20251103-113501,1.0.1,20251020-085245,731,Experiment,Both,1,Automatic,main,105,20251103-115000,global,global,300,H,S,E,E,H-E.png,S-E.png,hH,sS,mask-3.png,mask-4.png,h,1,1.341637099860236,s,1,0.060148000018671155,0.04748730012215674,0.0467697000131011,0.09868360008113086,0.09904429991729558,0.29963780008256435
RSVPLG03,TM,20251103-113501,1.0.1,20251020-085245,731,Experiment,Both,1,Automatic,main,106,20251103-115005,global,local,750,S,S,A,E,S-A.png,E-S.png,sS,sS,mask-2.png,mask-2.png,s,1,1.2866406000684947,s,1,0.07161600003018975,0.04651919985190034,0.046626599971204996,0.10013779997825623,0.09974890016019344,0.7517988998442888
RSVPLG03,TM,20251103-113501,1.0.1,20251020-085245,731,Experiment,Both,1,Automatic,main,107,20251103-115011,local,global,750,H,S,E,A,E-H.png,S-A.png,hH,sS,mask-2.png,mask-2.png,h,1,1.6335390000604093,h,0,0.14651150000281632,0.04733689990825951,0.04768089996650815,0.10135039989836514,0.09994159988127649,0.7512562000192702
RSVPLG03,TM,20251103-113501,1.0.1,20251020-085245,731,Experiment,Both,1,Automatic,main,108,20251103-115017,local,global,300,S,S,A,A,A-S.png,S-A.png,sS,sS,mask-2.png,mask-1.png,s,1,2.4983581001870334,h,0,0.023949600057676435,0.04667469998821616,0.04663789994083345,0.09942169999703765,0.09971969993785024,0.30026040016673505
RSVPLG03,TM,20251103-113501,1.0.1,20251020-085245,731,Experiment,Both,1,Automatic,main,109,20251103-115023,local,local,300,S,S,A,A,A-S.png,A-S.png,sS,sS,mask-4.png,mask-1.png,h,0,2.508673599921167,s,1,0.1587819999549538,0.047627400141209364,0.047694899840280414,0.10079890000633895,0.09986079996451735,0.30030490015633404
RSVPLG03,TM,20251103-113501,1.0.1,20251020-085245,731,Experiment,Both,1,Automatic,main,110,20251103-115029,local,global,750,S,S,A,E,A-S.png,S-E.png,sS,sS,mask-4.png,mask-4.png,h,0,1.8328430000692606,s,1,0.12356320000253618,0.0466257999651134,0.04758599982596934,0.09965229989029467,0.09976130002178252,0.7500223000533879
RSVPLG03,TM,20251103-113501,1.0.1,20251020-085245,731,Experiment,Both,1,Automatic,main,111,20251103-115035,global,local,750,H,S,A,A,H-A.png,A-S.png,hH,sS,mask-2.png,mask-2.png,h,1,1.436364300083369,s,1,0.10625279997475445,0.047558499965816736,0.04844849999062717,0.10082890000194311,0.09956929995678365,0.7507211999036372
RSVPLG03,TM,20251103-113501,1.0.1,20251020-085245,731,Experiment,Both,1,Automatic,main,112,20251103-115041,global,global,300,S,H,E,E,S-E.png,H-E.png,sS,hH,mask-4.png,mask-3.png,s,1,1.205917299957946,h,1,0.05483240005560219,0.04751099995337427,0.047509799944236875,0.09959979983977973,0.10051160003058612,0.30012629996053874
RSVPLG03,TM,20251103-113501,1.0.1,20251020-085245,731,Experiment,Both,1,Automatic,main,113,20251103-115046,local,local,300,S,S,A,E,A-S.png,E-S.png,sS,sS,mask-1.png,mask-4.png,s,1,3.634834500029683,s,1,0.10756869986653328,0.047707200050354004,0.05039130011573434,0.10198749997653067,0.10159980016760528,0.3010356000158936
RSVPLG03,TM,20251103-113501,1.0.1,20251020-085245,731,Experiment,Both,1,Automatic,main,114,20251103-115053,local,local,750,H,H,E,E,E-H.png,E-H.png,hH,hH,mask-3.png,mask-1.png,h,1,1.5459972000680864,h,1,0.08710339991375804,0.04857119987718761,0.047200400149449706,0.1001426000148058,0.09976220014505088,0.7519218998495489
RSVPLG03,TM,20251103-113501,1.0.1,20251020-085245,731,Experiment,Both,1,Automatic,main,115,20251103-115059,local,local,300,S,S,E,E,E-S.png,E-S.png,sS,sS,mask-1.png,mask-3.png,h,0,2.325967099983245,s,1,0.18147390009835362,0.049499499844387174,0.04667930002324283,0.1004377999342978,0.10043659992516041,0.3016196999233216
RSVPLG03,TM,20251103-113501,1.0.1,20251020-085245,731,Experiment,Both,1,Automatic,main,116,20251103-115105,local,global,750,H,H,A,E,A-H.png,H-E.png,hH,hH,mask-2.png,mask-4.png,h,1,1.4203655000310391,h,1,0.09241420007310808,0.047723300056532025,0.04578129993751645,0.0999171999283135,0.0999600999057293,0.7513089999556541
RSVPLG03,TM,20251103-113501,1.0.1,20251020-085245,731,Experiment,Both,1,Automatic,main,117,20251103-115111,local,global,300,H,H,A,A,A-H.png,H-A.png,hH,hH,mask-2.png,mask-1.png,s,0,1.7607523000333458,h,1,0.03717059991322458,0.04764740006066859,0.047698300099000335,0.0985188998747617,0.10188489989377558,0.29881269996985793
RSVPLG03,TM,20251103-113501,1.0.1,20251020-085245,731,Experiment,Both,1,Automatic,main,118,20251103-115116,global,local,750,H,S,E,A,H-E.png,A-S.png,hH,sS,mask-4.png,mask-2.png,h,1,1.7188367000781,s,1,0.1362484998535365,0.04785700002685189,0.04582820017822087,0.09987609996460378,0.09819120005704463,0.7525625999551266
RSVPLG03,TM,20251103-113501,1.0.1,20251020-085245,731,Experiment,Both,1,Automatic,main,119,20251103-115122,global,local,300,H,S,E,E,H-E.png,E-S.png,hH,sS,mask-2.png,mask-1.png,h,1,1.6070618000812829,s,1,0.05173769989050925,0.04877669992856681,0.04862489993683994,0.10079279984347522,0.10069749993272126,0.3001757999882102
RSVPLG03,TM,20251103-113501,1.0.1,20251020-085245,731,Experiment,Both,1,Automatic,main,120,20251103-115127,local,local,750,S,S,A,E,A-S.png,E-S.png,sS,sS,mask-4.png,mask-1.png,s,1,1.775231699924916,s,1,0.05379409994930029,0.04769170004874468,0.04879060015082359,0.1008878001011908,0.10196210001595318,0.7502158000133932
RSVPLG03,TM,20251103-113501,1.0.1,20251020-085245,731,Experiment,Both,1,Automatic,main,121,20251103-115133,global,local,300,H,S,E,E,H-E.png,E-S.png,hH,sS,mask-3.png,mask-4.png,h,1,1.8728090000804514,s,1,0.03918850002810359,0.0485684999730438,0.048472899943590164,0.1016090998891741,0.10065590008161962,0.3007819999475032
RSVPLG03,TM,20251103-113501,1.0.1,20251020-085245,731,Experiment,Both,1,Automatic,main,122,20251103-115139,local,global,300,S,S,E,A,E-S.png,S-A.png,sS,sS,mask-3.png,mask-3.png,s,1,2.2226587999612093,h,0,0.4055985000450164,0.046715299831703305,0.04770960006862879,0.09892459982074797,0.10081550013273954,0.29868939984589815
RSVPLG03,TM,20251103-113501,1.0.1,20251020-085245,731,Experiment,Both,1,Automatic,main,123,20251103-115145,global,local,750,S,H,A,E,S-A.png,E-H.png,sS,hH,mask-3.png,mask-1.png,s,1,1.2710618998389691,s,0,0.09833990014158189,0.046659399988129735,0.04645709996111691,0.09985120012424886,0.10067489999346435,0.7512611001729965
RSVPLG03,TM,20251103-113501,1.0.1,20251020-085245,731,Experiment,Both,1,Automatic,main,124,20251103-115151,global,global,300,S,S,A,A,S-A.png,S-A.png,sS,sS,mask-2.png,mask-2.png,s,1,1.2301300000399351,s,1,0.09158220002427697,0.04678610013797879,0.04721909994259477,0.09829080011695623,0.09974250011146069,0.30053510004654527
RSVPLG03,TM,20251103-113501,1.0.1,20251020-085245,731,Experiment,Both,1,Automatic,main,125,20251103-115156,local,global,750,H,S,A,E,A-H.png,S-E.png,hH,sS,mask-2.png,mask-1.png,s,0,2.9058630999643356,s,1,0.25285469996742904,0.04651189991272986,0.04858850012533367,0.09979849983938038,0.10159719991497695,0.7492227999027818
RSVPLG03,TM,20251103-115237,1.0.1,20251020-085245,731,Experiment,Both,1,Automatic,warmup,1,20251103-115302,global,local,300,H,S,E,A,H-E.png,A-S.png,hH,sS,mask-2.png,mask-1.png,h,1,2.3592242000158876,s,1,0.05564810009673238,0.04204540001228452,0.04673569998703897,0.09473049989901483,0.10049000009894371,0.29439169983379543
RSVPLG03,TM,20251103-115237,1.0.1,20251020-085245,731,Experiment,Both,1,Automatic,warmup,2,20251103-115308,local,global,750,H,S,A,E,A-H.png,S-E.png,hH,sS,mask-4.png,mask-3.png,h,1,1.4325082001741976,s,1,0.007439999841153622,0.04563629999756813,0.047643700148910284,0.09879279998131096,0.09991410002112389,0.7484148999210447
RSVPLG03,TM,20251103-115237,1.0.1,20251020-085245,731,Experiment,Both,1,Automatic,warmup,3,20251103-115314,global,global,750,H,S,A,A,H-A.png,S-A.png,hH,sS,mask-4.png,mask-1.png,h,1,0.8627719001378864,s,1,0.016521000070497394,0.04664130019955337,0.04679939989000559,0.09891060017980635,0.1000446998514235,0.74883360019885
RSVPLG03,TM,20251103-115237,1.0.1,20251020-085245,731,Experiment,Both,1,Automatic,warmup,4,20251103-115319,local,global,300,S,S,E,E,E-S.png,S-E.png,sS,sS,mask-2.png,mask-3.png,s,1,2.3975659999996424,s,1,0.5353047999087721,0.047017000149935484,0.04669440002180636,0.10151720000430942,0.09936060011386871,0.29991689999587834
RSVPLG03,TM,20251103-115237,1.0.1,20251020-085245,731,Experiment,Both,1,Automatic,warmup,5,20251103-115326,local,local,300,S,S,A,E,A-S.png,E-S.png,sS,sS,mask-2.png,mask-2.png,h,0,2.3200284999329597,s,1,0.05481630004942417,0.04753979993984103,0.048988400027155876,0.09836649987846613,0.09924910007975996,0.29842269979417324
RSVPLG03,TM,20251103-115237,1.0.1,20251020-085245,731,Experiment,Both,1,Automatic,main,6,20251103-115332,global,global,300,H,H,A,E,H-A.png,H-E.png,hH,hH,mask-1.png,mask-4.png,h,1,1.3778915998991579,h,1,0.07425420009531081,0.04555830010212958,0.04699239996261895,0.0983820001129061,0.09906359994783998,0.2994155001360923
RSVPLG03,TM,20251103-115237,1.0.1,20251020-085245,731,Experiment,Both,1,Automatic,main,7,20251103-115337,global,global,300,H,S,A,A,H-A.png,S-A.png,hH,sS,mask-3.png,mask-1.png,h,1,1.4773367999587208,s,1,0.06015280005522072,0.04684709990397096,0.047530699986964464,0.10070820013061166,0.10026039998047054,0.3000958999618888
RSVPLG03,TM,20251103-115237,1.0.1,20251020-085245,731,Experiment,Both,1,Automatic,main,8,20251103-115342,global,global,300,H,H,A,E,H-A.png,H-E.png,hH,hH,mask-4.png,mask-1.png,h,1,1.1986640999093652,h,1,0.08667950006201863,0.045714000007137656,0.04682280006818473,0.09908659989014268,0.09990229993127286,0.29835269995965064
RSVPLG03,TM,20251103-115237,1.0.1,20251020-085245,731,Experiment,Both,1,Automatic,main,9,20251103-115347,local,local,750,H,S,E,A,E-H.png,A-S.png,hH,sS,mask-3.png,mask-4.png,s,0,3.3140317001380026,h,0,0.5862949001602829,0.04661590000614524,0.047160400077700615,0.09989900002256036,0.10090760001912713,0.7484392998740077
RSVPLG03,TM,20251103-115237,1.0.1,20251020-085245,731,Experiment,Both,1,Automatic,main,10,20251103-115355,global,global,750,S,S,A,A,S-A.png,S-A.png,sS,sS,mask-4.png,mask-2.png,s,1,1.2273468000348657,s,1,0.0913668000139296,0.04744909983128309,0.04609799990430474,0.09965009987354279,0.10017709992825985,0.7499824999831617
RSVPLG03,TM,20251103-115237,1.0.1,20251020-085245,731,Experiment,Both,1,Automatic,main,11,20251103-115400,global,local,300,H,H,A,A,H-A.png,A-H.png,hH,hH,mask-3.png,mask-2.png,h,1,2.194472200004384,s,0,0.3320390998851508,0.046346599934622645,0.04754150006920099,0.09987789997830987,0.10032720002345741,0.2983748000115156
RSVPLG03,TM,20251103-115237,1.0.1,20251020-085245,731,Experiment,Both,1,Automatic,main,12,20251103-115407,local,local,750,H,H,E,A,E-H.png,A-H.png,hH,hH,mask-1.png,mask-4.png,h,1,3.4031706999521703,s,0,0.30989799997769296,0.04757119994610548,0.047409400111064315,0.099491500062868,0.09844129998236895,0.7495017000474036
RSVPLG03,TM,20251103-115237,1.0.1,20251020-085245,731,Experiment,Both,1,Automatic,main,13,20251103-115414,local,global,300,H,S,A,E,A-H.png,S-E.png,hH,sS,mask-4.png,mask-2.png,h,1,2.186801299918443,h,0,0.21972270007245243,0.04853830020874739,0.048680400010198355,0.10154640022665262,0.1007451000623405,0.29978170013055205
RSVPLG03,TM,20251103-115237,1.0.1,20251020-085245,731,Experiment,Both,1,Automatic,main,14,20251103-115420,local,global,750,S,H,E,E,E-S.png,H-E.png,sS,hH,mask-3.png,mask-3.png,h,0,4.255828799912706,s,0,0.39185089990496635,0.047572199953719974,0.04665759997442365,0.10014709993265569,0.10080850007943809,0.7501147999428213
RSVPLG03,TM,20251103-115237,1.0.1,20251020-085245,731,Experiment,Both,1,Automatic,main,15,20251103-115429,global,global,750,H,H,A,A,H-A.png,H-A.png,hH,hH,mask-4.png,mask-3.png,h,1,1.4752354000229388,h,1,0.08629970019683242,0.048501000041142106,0.047520500142127275,0.10024460009299219,0.10058880015276372,0.7500750999897718
RSVPLG03,TM,20251103-115237,1.0.1,20251020-085245,731,Experiment,Both,1,Automatic,main,16,20251103-115435,local,global,750,S,S,A,A,A-S.png,S-A.png,sS,sS,mask-4.png,mask-1.png,s,1,2.0455124999862164,h,0,1.3777282999362797,0.046459499979391694,0.04641939979046583,0.09835370001383126,0.1001641999464482,0.7489338000304997
RSVPLG03,TM,20251103-115237,1.0.1,20251020-085245,731,Experiment,Both,1,Automatic,main,17,20251103-115442,local,local,750,H,H,E,A,E-H.png,A-H.png,hH,hH,mask-2.png,mask-4.png,h,1,2.102758100023493,h,1,0.07778130006045103,0.0475210000295192,0.04757160018198192,0.10135839995928109,0.1004763999953866,0.7508353998418897
RSVPLG03,TM,20251103-115237,1.0.1,20251020-085245,731,Experiment,Both,1,Automatic,main,18,20251103-115449,local,local,300,S,S,A,E,A-S.png,E-S.png,sS,sS,mask-3.png,mask-1.png,s,1,2.9930026000365615,h,0,0.5027865001466125,0.04758580005727708,0.04743009991943836,0.09961339994333684,0.09931600000709295,0.2988789000082761
RSVPLG03,TM,20251103-115237,1.0.1,20251020-085245,731,Experiment,Both,1,Automatic,main,19,20251103-115456,local,global,300,S,H,E,E,E-S.png,H-E.png,sS,hH,mask-3.png,mask-3.png,s,1,3.9890811999794096,h,1,0.2986910999752581,0.04833150003105402,0.0473768999800086,0.1004603998735547,0.10124690015800297,0.3001814999151975
RSVPLG03,TM,20251103-115237,1.0.1,20251020-085245,731,Experiment,Both,1,Automatic,main,20,20251103-115504,local,local,300,H,H,A,A,A-H.png,A-H.png,hH,hH,mask-1.png,mask-3.png,h,1,4.661930299829692,s,0,0.27871460001915693,0.04733079997822642,0.04786200006492436,0.10053739999420941,0.09989070007577538,0.3001282000914216
RSVPLG03,TM,20251103-115237,1.0.1,20251020-085245,731,Experiment,Both,1,Automatic,main,21,20251103-115512,global,local,750,S,S,E,E,S-E.png,E-S.png,sS,sS,mask-3.png,mask-1.png,s,1,1.838604300050065,s,1,0.10944560007192194,0.04767909995280206,0.04669310012832284,0.09992709988728166,0.0989083000458777,0.7510888997931033
RSVPLG03,TM,20251103-115237,1.0.1,20251020-085245,731,Experiment,Both,1,Automatic,main,22,20251103-115518,global,local,750,S,H,A,A,S-A.png,A-H.png,sS,hH,mask-4.png,mask-3.png,s,1,2.070900000166148,s,0,0.31080169999040663,0.04670589999295771,0.04795380006544292,0.09878550004214048,0.1001365000847727,0.7480560999829322
RSVPLG03,TM,20251103-115237,1.0.1,20251020-085245,731,Experiment,Both,1,Automatic,main,23,20251103-115525,local,local,300,H,S,E,E,E-H.png,E-S.png,hH,sS,mask-3.png,mask-2.png,h,1,2.6616982999257743,s,1,0.028187000192701817,0.04753460013307631,0.04630839987657964,0.09977310011163354,0.09933009999804199,0.3002377001103014
RSVPLG03,TM,20251103-115237,1.0.1,20251020-085245,731,Experiment,Both,1,Automatic,main,24,20251103-115531,global,global,300,S,S,A,A,S-A.png,S-A.png,sS,sS,mask-2.png,mask-4.png,s,1,1.3640252000186592,s,1,0.08851279993541539,0.0475061999168247,0.04655270022340119,0.10150490002706647,0.0987560001667589,0.3007697998546064
RSVPLG03,TM,20251103-115237,1.0.1,20251020-085245,731,Experiment,Both,1,Automatic,main,25,20251103-115536,global,local,750,H,S,E,E,H-E.png,E-S.png,hH,sS,mask-3.png,mask-2.png,h,1,2.0835784000810236,s,1,0.49250410008244216,0.0466263999696821,0.04622770007699728,0.09864099998958409,0.09928749990649521,0.7498701000586152
RSVPLG03,TM,20251103-115237,1.0.1,20251020-085245,731,Experiment,Both,1,Automatic,main,26,20251103-115547,global,global,300,S,S,A,E,S-A.png,S-E.png,sS,sS,mask-4.png,mask-1.png,s,1,1.200337199959904,s,1,0.07751369988545775,0.046703599859029055,0.04649249999783933,0.09889180003665388,0.09882029984146357,0.2990631000138819
RSVPLG03,TM,20251103-115237,1.0.1,20251020-085245,731,Experiment,Both,1,Automatic,main,27,20251103-115552,local,global,300,S,S,E,A,E-S.png,S-A.png,sS,sS,mask-4.png,mask-2.png,s,1,1.847449199995026,h,0,1.58010879997164,0.047607599990442395,0.04873770009726286,0.1004385999403894,0.10191110009327531,0.29920889995992184
RSVPLG03,TM,20251103-115237,1.0.1,20251020-085245,731,Experiment,Both,1,Automatic,main,28,20251103-115559,local,local,750,S,H,E,E,E-S.png,E-H.png,sS,hH,mask-3.png,mask-4.png,s,1,1.6668499000370502,h,1,0.24779419996775687,0.04728229995816946,0.046723000006750226,0.10009389999322593,0.10083790007047355,0.7500944999046624
RSVPLG03,TM,20251103-115237,1.0.1,20251020-085245,731,Experiment,Both,1,Automatic,main,29,20251103-115605,local,global,750,S,S,E,A,E-S.png,S-A.png,sS,sS,mask-3.png,mask-1.png,s,1,2.355962899979204,h,0,0.24921680008992553,0.04679209995083511,0.04738939995877445,0.09890160011127591,0.09904709993861616,0.7488214001059532
RSVPLG03,TM,20251103-115237,1.0.1,20251020-085245,731,Experiment,Both,1,Automatic,main,30,20251103-115611,global,local,750,H,H,A,A,H-A.png,A-H.png,hH,hH,mask-2.png,mask-1.png,h,1,2.1423839998897165,s,0,0.4423867000732571,0.046712599927559495,0.04767749994061887,0.10085980012081563,0.09984569996595383,0.749330900143832
RSVPLG03,TM,20251103-115237,1.0.1,20251020-085245,731,Experiment,Both,1,Automatic,main,31,20251103-115618,global,global,750,S,H,E,E,S-E.png,H-E.png,sS,hH,mask-1.png,mask-3.png,s,1,0.972218899987638,h,1,0.3458557000849396,0.04555350006558001,0.048559000017121434,0.0997409000992775,0.09956210013478994,0.7482839999720454
RSVPLG03,TM,20251103-115237,1.0.1,20251020-085245,731,Experiment,Both,1,Automatic,main,32,20251103-115623,local,local,750,H,S,E,A,E-H.png,A-S.png,hH,sS,mask-4.png,mask-3.png,h,1,3.368882399983704,s,1,0.5047488999553025,0.04682460008189082,0.0476695999968797,0.1000131000764668,0.0998610001988709,0.7491518999449909
RSVPLG03,TM,20251103-115237,1.0.1,20251020-085245,731,Experiment,Both,1,Automatic,main,33,20251103-115631,local,local,300,S,H,E,A,E-S.png,A-H.png,sS,hH,mask-3.png,mask-2.png,s,1,1.3066127998754382,h,1,0.6732160998508334,0.04758000001311302,0.0456173000857234,0.09847090020775795,0.0998265000525862,0.3001306999940425
RSVPLG03,TM,20251103-115237,1.0.1,20251020-085245,731,Experiment,Both,1,Automatic,main,34,20251103-115637,global,local,750,H,H,A,A,H-A.png,A-H.png,hH,hH,mask-3.png,mask-3.png,h,1,1.7629295999649912,h,1,0.41161129996180534,0.04861190007068217,0.04653330007568002,0.10079589998349547,0.0997019000351429,0.7501371998805553
RSVPLG03,TM,20251103-115237,1.0.1,20251020-085245,731,Experiment,Both,1,Automatic,main,35,20251103-115643,global,global,750,S,S,A,A,S-A.png,S-A.png,sS,sS,mask-2.png,mask-2.png,s,1,1.2369071999564767,h,0,0.32653469988144934,0.0465170000679791,0.04795540007762611,0.0998070000205189,0.10011730017140508,0.7484571998938918
RSVPLG03,TM,20251103-115237,1.0.1,20251020-085245,731,Experiment,Both,1,Automatic,main,36,20251103-115649,global,local,750,S,H,E,A,S-E.png,A-H.png,sS,hH,mask-4.png,mask-3.png,s,1,1.3554769000038505,h,1,0.30660710018128157,0.0475838000420481,0.04673850000835955,0.10059889988042414,0.09907200001180172,0.750050799921155
RSVPLG03,TM,20251103-115237,1.0.1,20251020-085245,731,Experiment,Both,1,Automatic,main,37,20251103-115654,global,global,750,S,H,E,A,S-E.png,H-A.png,sS,hH,mask-3.png,mask-1.png,h,0,2.229629799956456,s,0,0.31300240010023117,0.047844099812209606,0.04764470015652478,0.09989499999210238,0.09934190008789301,0.7508349998388439
RSVPLG03,TM,20251103-115237,1.0.1,20251020-085245,731,Experiment,Both,1,Automatic,main,38,20251103-115701,global,local,300,S,S,E,E,S-E.png,E-S.png,sS,sS,mask-1.png,mask-4.png,s,1,3.4143563001416624,h,0,0.32180120004341006,0.04759770003147423,0.04858789988793433,0.09861420001834631,0.09958829986862838,0.2991281000431627
RSVPLG03,TM,20251103-115237,1.0.1,20251020-085245,731,Experiment,Both,1,Automatic,main,39,20251103-115708,local,local,300,H,H,E,E,E-H.png,E-H.png,hH,hH,mask-4.png,mask-3.png,h,1,1.748328500194475,h,1,0.09301650011911988,0.04766199993900955,0.04763149982318282,0.0998541999142617,0.10085579985752702,0.29978720005601645
RSVPLG03,TM,20251103-115237,1.0.1,20251020-085245,731,Experiment,Both,1,Automatic,main,40,20251103-115714,local,global,750,S,S,E,E,E-S.png,S-E.png,sS,sS,mask-4.png,mask-3.png,s,1,2.760803099954501,s,1,0.13708210014738142,0.0467227001208812,0.047157400054857135,0.09885200019925833,0.09942690003663301,0.7491043000482023
RSVPLG03,TM,20251103-115237,1.0.1,20251020-085245,731,Experiment,Both,1,Automatic,main,41,20251103-115721,local,local,300,S,S,E,A,E-S.png,A-S.png,sS,sS,mask-2.png,mask-1.png,s,1,1.509638899937272,h,0,0.48575410014018416,0.046702600084245205,0.04870190005749464,0.10091900010593235,0.10091960011050105,0.29939549998380244
RSVPLG03,TM,20251103-115237,1.0.1,20251020-085245,731,Experiment,Both,1,Automatic,main,42,20251103-115727,local,global,300,S,S,E,A,E-S.png,S-A.png,sS,sS,mask-2.png,mask-2.png,h,0,1.713368099881336,h,0,0.10881310002878308,0.04948700009845197,0.04666399979032576,0.100289799971506,0.0999165999237448,0.3011358000803739
RSVPLG03,TM,20251103-115237,1.0.1,20251020-085245,731,Experiment,Both,1,Automatic,main,43,20251103-115732,local,global,300,S,S,E,A,E-S.png,S-A.png,sS,sS,mask-1.png,mask-2.png,s,1,1.6920064999721944,h,0,0.34111199993640184,0.048340999986976385,0.04758200002834201,0.10007589985616505,0.10144270001910627,0.29922859999351203
RSVPLG03,TM,20251103-115237,1.0.1,20251020-085245,731,Experiment,Both,1,Automatic,main,44,20251103-115738,global,global,300,H,S,E,A,H-E.png,S-A.png,hH,sS,mask-4.png,mask-3.png,h,1,1.4590410001110286,s,1,0.474413099931553,0.0475173001177609,0.04753720015287399,0.09952099993824959,0.09937519999220967,0.30012489994987845
RSVPLG03,TM,20251103-115237,1.0.1,20251020-085245,731,Experiment,Both,1,Automatic,main,45,20251103-115743,local,global,750,H,H,A,E,A-H.png,H-E.png,hH,hH,mask-1.png,mask-3.png,h,1,1.1715742000378668,h,1,0.11906089982949197,0.04773760004900396,0.04871509992517531,0.10041670012287796,0.09996929997578263,0.7495999000966549
RSVPLG03,TM,20251103-115237,1.0.1,20251020-085245,731,Experiment,Both,1,Automatic,main,46,20251103-115749,global,local,300,H,S,E,A,H-E.png,A-S.png,hH,sS,mask-2.png,mask-3.png,h,1,1.363997699925676,s,1,0.5379369000438601,0.04751369985751808,0.047493600053712726,0.09950079978443682,0.10048760008066893,0.29975529992952943
RSVPLG03,TM,20251103-115237,1.0.1,20251020-085245,731,Experiment,Both,1,Automatic,main,47,20251103-115754,local,global,750,H,S,E,E,E-H.png,S-E.png,hH,sS,mask-1.png,mask-4.png,h,1,1.2713269998785108,h,0,0.10961829987354577,0.045546900015324354,0.04757439997047186,0.09890539990738034,0.10028699995018542,0.7478527999483049
RSVPLG03,TM,20251103-115237,1.0.1,20251020-085245,731,Experiment,Both,1,Automatic,main,48,20251103-115800,local,global,300,S,H,A,E,A-S.png,H-E.png,sS,hH,mask-2.png,mask-2.png,s,1,1.7374933001119643,s,0,0.14040530007332563,0.04672919982112944,0.0464009998831898,0.09910709992982447,0.09928769990801811,0.29993400000967085
RSVPLG03,TM,20251103-115237,1.0.1,20251020-085245,731,Experiment,Both,1,Automatic,main,49,20251103-115805,global,global,300,S,S,E,E,S-E.png,S-E.png,sS,sS,mask-1.png,mask-2.png,s,1,4.138303600018844,s,1,0.18066099984571338,0.048643199959769845,0.048583999974653125,0.10087520000524819,0.10069250012747943,0.30027269991114736
RSVPLG03,TM,20251103-115237,1.0.1,20251020-085245,731,Experiment,Both,1,Automatic,main,50,20251103-115813,local,global,300,H,H,E,E,E-H.png,H-E.png,hH,hH,mask-4.png,mask-4.png,h,1,2.2893016000743955,s,0,0.4752889999654144,0.04856170015409589,0.04791039996780455,0.10156780015677214,0.10100049991160631,0.3006470000836998
RSVPLG03,TM,20251103-115237,1.0.1,20251020-085245,731,Experiment,Both,1,Automatic,main,51,20251103-115823,global,local,300,S,H,A,E,S-A.png,E-H.png,sS,hH,mask-3.png,mask-2.png,s,1,1.7438278999179602,s,0,0.07614319981075823,0.04591770004481077,0.04674759996123612,0.09968690015375614,0.09792970004491508,0.3001562000717968
RSVPLG03,TM,20251103-115237,1.0.1,20251020-085245,731,Experiment,Both,1,Automatic,main,52,20251103-115829,global,local,300,S,S,E,A,S-E.png,A-S.png,sS,sS,mask-2.png,mask-2.png,s,1,2.1096501001156867,h,0,0.40691709984093904,0.04654599982313812,0.04572479985654354,0.09955359995365143,0.09986249986104667,0.300818599993363
RSVPLG03,TM,20251103-115237,1.0.1,20251020-085245,731,Experiment,Both,1,Automatic,main,53,20251103-115835,global,global,750,H,H,E,E,H-E.png,H-E.png,hH,hH,mask-1.png,mask-4.png,h,1,1.2116804998368025,h,1,0.08680110005661845,0.048731000162661076,0.04667830001562834,0.10081950016319752,0.09985719993710518,0.7505517001263797
RSVPLG03,TM,20251103-115237,1.0.1,20251020-085245,731,Experiment,Both,1,Automatic,main,54,20251103-115840,global,local,300,S,H,A,A,S-A.png,A-H.png,sS,hH,mask-1.png,mask-3.png,s,1,1.12813979992643,s,0,0.08628050005063415,0.047526700189337134,0.04851110000163317,0.10152380005456507,0.10150650003924966,0.29997970000840724
RSVPLG03,TM,20251103-115237,1.0.1,20251020-085245,731,Experiment,Both,1,Automatic,main,55,20251103-115845,global,local,750,H,S,E,A,H-E.png,A-S.png,hH,sS,mask-3.png,mask-4.png,h,1,1.5532539000269026,s,1,0.5483773001469672,0.04709109989926219,0.045819400111213326,0.09910429990850389,0.09883880009874701,0.7502482999116182
RSVPLG03,TM,20251103-115237,1.0.1,20251020-085245,731,Experiment,Both,1,Automatic,main,56,20251103-115851,local,global,300,H,S,E,E,E-H.png,S-E.png,hH,sS,mask-1.png,mask-1.png,h,1,2.2399516999721527,h,0,0.10876269987784326,0.04638900002464652,0.04651969997212291,0.09950660006143153,0.0995342000387609,0.3000999998766929
RSVPLG03,TM,20251103-115237,1.0.1,20251020-085245,731,Experiment,Both,1,Automatic,main,57,20251103-115857,local,local,750,S,H,E,A,E-S.png,A-H.png,sS,hH,mask-1.png,mask-3.png,h,0,2.5586830999236554,s,0,0.3717673998326063,0.04753330000676215,0.048438699916005135,0.10054460004903376,0.10144890006631613,0.74886230006814
RSVPLG03,TM,20251103-115237,1.0.1,20251020-085245,731,Experiment,Both,1,Automatic,main,58,20251103-115904,global,global,300,S,H,E,A,S-E.png,H-A.png,sS,hH,mask-4.png,mask-4.png,s,1,1.548517899820581,h,1,0.3267872999422252,0.047326100058853626,0.04687379999086261,0.10035050008445978,0.0993272999767214,0.3004652999807149
RSVPLG03,TM,20251103-115237,1.0.1,20251020-085245,731,Experiment,Both,1,Automatic,main,59,20251103-115909,global,global,300,H,S,A,E,H-A.png,S-E.png,hH,sS,mask-2.png,mask-4.png,h,1,1.573869800195098,s,1,0.2843222999945283,0.046653500059619546,0.04662799998186529,0.0987349001225084,0.09884170000441372,0.2993310000747442
RSVPLG03,TM,20251103-115237,1.0.1,20251020-085245,731,Experiment,Both,1,Automatic,main,60,20251103-115915,global,local,300,H,H,E,A,H-E.png,A-H.png,hH,hH,mask-2.png,mask-3.png,h,1,1.4398743000347167,s,0,0.2621632998343557,0.04735409980639815,0.04877569992095232,0.10157259996049106,0.09986870014108717,0.3002044998575002
RSVPLG03,TM,20251103-115237,1.0.1,20251020-085245,731,Experiment,Both,1,Automatic,main,61,20251103-115920,local,local,750,S,S,E,A,E-S.png,A-S.png,sS,sS,mask-3.png,mask-2.png,s,1,1.7361314999870956,s,1,0.07036720006726682,0.04666600003838539,0.0475876999553293,0.09989180020056665,0.09975040005519986,0.7495367000810802
RSVPLG03,TM,20251103-115237,1.0.1,20251020-085245,731,Experiment,Both,1,Automatic,main,62,20251103-115926,local,global,750,S,S,E,E,E-S.png,S-E.png,sS,sS,mask-4.png,mask-4.png,s,1,2.3212845001835376,s,1,0.07046919991262257,0.04676290019415319,0.04857770004309714,0.10105400020256639,0.09947090013884008,0.749145400011912
RSVPLG03,TM,20251103-115237,1.0.1,20251020-085245,731,Experiment,Both,1,Automatic,main,63,20251103-115933,local,global,300,H,H,A,E,A-H.png,H-E.png,hH,hH,mask-3.png,mask-1.png,h,1,2.0764353000558913,h,1,0.26725880010053515,0.04735630005598068,0.04753780015744269,0.09875179990194738,0.10056799999438226,0.2989955998491496
RSVPLG03,TM,20251103-115237,1.0.1,20251020-085245,731,Experiment,Both,1,Automatic,main,64,20251103-115939,global,global,750,S,S,A,A,S-A.png,S-A.png,sS,sS,mask-2.png,mask-3.png,s,1,0.9889483000151813,s,1,0.05373329995200038,0.047423799987882376,0.04616999998688698,0.09919869992882013,0.10025220015086234,0.7498964997939765
RSVPLG03,TM,20251103-115237,1.0.1,20251020-085245,731,Experiment,Both,1,Automatic,main,65,20251103-115944,local,global,300,S,H,E,E,E-S.png,H-E.png,sS,hH,mask-2.png,mask-1.png,s,1,1.6546573000960052,h,1,0.7959243999794126,0.047604399966076016,0.04864430008456111,0.09943329985253513,0.10062819998711348,0.29904429987072945
RSVPLG03,TM,20251103-115237,1.0.1,20251020-085245,731,Experiment,Both,1,Automatic,main,66,20251103-115950,global,global,300,S,S,A,E,S-A.png,S-E.png,sS,sS,mask-2.png,mask-1.png,s,1,1.8791878998745233,s,1,0.17593530006706715,0.04850080003961921,0.047658200142905116,0.09942060010507703,0.10052250022999942,0.29893729998730123
RSVPLG03,TM,20251103-115237,1.0.1,20251020-085245,731,Experiment,Both,1,Automatic,main,67,20251103-115955,local,global,300,H,H,E,A,E-H.png,H-A.png,hH,hH,mask-4.png,mask-1.png,h,1,2.8430189001373947,s,0,0.34290809999220073,0.048570199869573116,0.04779449990019202,0.10076049994677305,0.09928629989735782,0.3003263999707997
RSVPLG03,TM,20251103-115237,1.0.1,20251020-085245,731,Experiment,Both,1,Automatic,main,68,20251103-120002,global,global,300,S,H,E,A,S-E.png,H-A.png,sS,hH,mask-2.png,mask-2.png,s,1,1.3190752000082284,h,1,0.4367840001359582,0.04776240000501275,0.04870419995859265,0.10069369990378618,0.10076089994981885,0.29930790001526475
RSVPLG03,TM,20251103-115237,1.0.1,20251020-085245,731,Experiment,Both,1,Automatic,main,69,20251103-120008,local,local,750,S,H,A,E,A-S.png,E-H.png,sS,hH,mask-4.png,mask-1.png,h,0,2.209377800114453,h,1,0.07724180002696812,0.04731390019878745,0.048504300182685256,0.10040340013802052,0.10032070009037852,0.7490413000341505
RSVPLG03,TM,20251103-115237,1.0.1,20251020-085245,731,Experiment,Both,1,Automatic,main,70,20251103-120014,local,global,300,S,S,A,A,A-S.png,S-A.png,sS,sS,mask-2.png,mask-2.png,h,0,3.3380398000590503,s,1,0.4068314000032842,0.04753290000371635,0.04834960005246103,0.0995462997816503,0.09942820016294718,0.2988413998391479
RSVPLG03,TM,20251103-115237,1.0.1,20251020-085245,731,Experiment,Both,1,Automatic,main,71,20251103-120022,local,global,750,S,H,A,A,A-S.png,H-A.png,sS,hH,mask-4.png,mask-3.png,s,1,1.8939433000050485,s,0,0.08620889997109771,0.046668299939483404,0.04590899986214936,0.09990709996782243,0.09797189990058541,0.7510200999677181
RSVPLG03,TM,20251103-115237,1.0.1,20251020-085245,731,Experiment,Both,1,Automatic,main,72,20251103-120028,local,global,300,S,H,E,A,E-S.png,H-A.png,sS,hH,mask-1.png,mask-4.png,s,1,1.5476859998889267,h,1,0.40613600006327033,0.04736310010775924,0.048575100023299456,0.09868789999745786,0.0995915001258254,0.29891230002976954
RSVPLG03,TM,20251103-115237,1.0.1,20251020-085245,731,Experiment,Both,1,Automatic,main,73,20251103-120033,global,local,300,H,H,A,A,H-A.png,A-H.png,hH,hH,mask-4.png,mask-2.png,h,1,0.9161263999994844,h,1,0.10674169985577464,0.04756950004957616,0.046751700108870864,0.09966040006838739,0.09907589992508292,0.3003273999784142
RSVPLG03,TM,20251103-115237,1.0.1,20251020-085245,731,Experiment,Both,1,Automatic,main,74,20251103-120038,global,local,300,H,S,E,A,H-E.png,A-S.png,hH,sS,mask-2.png,mask-1.png,h,1,1.0376820000819862,s,1,0.41371430014260113,0.047672699904069304,0.048604900017380714,0.09991419990547001,0.09981369995512068,0.29857670003548265
RSVPLG03,TM,20251103-115237,1.0.1,20251020-085245,731,Experiment,Both,1,Automatic,main,75,20251103-120043,global,local,300,S,H,A,A,S-A.png,A-H.png,sS,hH,mask-3.png,mask-2.png,s,1,1.6674656998366117,h,1,0.4444713999982923,0.04850419983267784,0.04762029997073114,0.10063360002823174,0.0987056999001652,0.30054079997353256
RSVPLG03,TM,20251103-115237,1.0.1,20251020-085245,731,Experiment,Both,1,Automatic,main,76,20251103-120052,local,global,300,H,S,E,E,E-H.png,S-E.png,hH,sS,mask-4.png,mask-2.png,h,1,1.4470781001728028,h,0,0.1839733999222517,0.047411900013685226,0.046340599888935685,0.10011509992182255,0.09858880005776882,0.30085649993270636
RSVPLG03,TM,20251103-115237,1.0.1,20251020-085245,731,Experiment,Both,1,Automatic,main,77,20251103-120058,local,global,750,S,S,E,A,E-S.png,S-A.png,sS,sS,mask-2.png,mask-1.png,s,1,1.5913526001386344,h,0,0.41016070009209216,0.047828400041908026,0.04756919993087649,0.10079000005498528,0.0993097999598831,0.7513777001295239
RSVPLG03,TM,20251103-115237,1.0.1,20251020-085245,731,Experiment,Both,1,Automatic,main,78,20251103-120104,local,local,750,S,H,A,A,A-S.png,A-H.png,sS,hH,mask-1.png,mask-3.png,h,0,1.260734299896285,h,1,0.18494040006771684,0.04732059990055859,0.048931100172922015,0.09964659996330738,0.10017990018241107,0.7479476998560131
RSVPLG03,TM,20251103-115237,1.0.1,20251020-085245,731,Experiment,Both,1,Automatic,main,79,20251103-120109,local,global,750,S,S,A,A,A-S.png,S-A.png,sS,sS,mask-2.png,mask-4.png,s,1,1.437466099858284,h,0,0.5017057999502867,0.047302700113505125,0.046719999983906746,0.10152689996175468,0.09995760000310838,0.7501662999857217
RSVPLG03,TM,20251103-115237,1.0.1,20251020-085245,731,Experiment,Both,1,Automatic,main,80,20251103-120115,global,local,750,H,S,A,A,H-A.png,A-S.png,hH,sS,mask-4.png,mask-1.png,h,1,1.5159718999639153,s,1,0.30574789992533624,0.04766579996794462,0.04776249988935888,0.09981489996425807,0.10095270001329482,0.7498276999685913
RSVPLG03,TM,20251103-115237,1.0.1,20251020-085245,731,Experiment,Both,1,Automatic,main,81,20251103-120121,local,global,750,S,S,E,E,E-S.png,S-E.png,sS,sS,mask-4.png,mask-4.png,s,1,1.5021081001032144,h,0,0.37430519983172417,0.0455703001935035,0.04839599994011223,0.09830470010638237,0.09998099994845688,0.7482182001695037
RSVPLG03,TM,20251103-115237,1.0.1,20251020-085245,731,Experiment,Both,1,Automatic,main,82,20251103-120127,global,global,750,H,S,A,A,H-A.png,S-A.png,hH,sS,mask-2.png,mask-2.png,h,1,0.9953122998122126,s,1,0.2994970998261124,0.048512900015339255,0.04572759987786412,0.09958790009841323,0.09892789996229112,0.7510071001015604
RSVPLG03,TM,20251103-115237,1.0.1,20251020-085245,731,Experiment,Both,1,Automatic,main,83,20251103-120133,local,local,300,S,H,E,E,E-S.png,E-H.png,sS,hH,mask-4.png,mask-3.png,s,1,1.5528457001782954,h,1,0.3238262999802828,0.046770700020715594,0.04662699997425079,0.10079950001090765,0.10069300001487136,0.29954229993745685
RSVPLG03,TM,20251103-115237,1.0.1,20251020-085245,731,Experiment,Both,1,Automatic,main,84,20251103-120138,global,global,750,S,H,E,A,S-E.png,H-A.png,sS,hH,mask-1.png,mask-1.png,s,1,1.9861810998991132,h,1,0.4688375999685377,0.04575579985976219,0.04752789996564388,0.0997679999563843,0.10059090005233884,0.7481169998645782
RSVPLG03,TM,20251103-115237,1.0.1,20251020-085245,731,Experiment,Both,1,Automatic,main,85,20251103-120145,local,local,300,H,S,A,A,A-H.png,A-S.png,hH,sS,mask-3.png,mask-3.png,h,1,2.1523641999810934,s,1,0.29882080014795065,0.04572970001026988,0.048668800154700875,0.0999167999252677,0.09909050003625453,0.2984874998219311
RSVPLG03,TM,20251103-115237,1.0.1,20251020-085245,731,Experiment,Both,1,Automatic,main,86,20251103-120151,global,local,750,S,S,E,A,S-E.png,A-S.png,sS,sS,mask-2.png,mask-3.png,s,1,1.569607799872756,s,1,0.14035069989040494,0.04673409997485578,0.04655810003168881,0.10005809995345771,0.1006664999295026,0.7500121998600662
RSVPLG03,TM,20251103-115237,1.0.1,20251020-085245,731,Experiment,Both,1,Automatic,main,87,20251103-120156,global,global,750,H,H,E,A,H-E.png,H-A.png,hH,hH,mask-1.png,mask-1.png,h,1,1.074138400144875,h,1,0.07725630002096295,0.04781170003116131,0.047545099863782525,0.10008640005253255,0.1004615998826921,0.7507591000758111
RSVPLG03,TM,20251103-115237,1.0.1,20251020-085245,731,Experiment,Both,1,Automatic,main,88,20251103-120201,local,local,750,S,H,A,E,A-S.png,E-H.png,sS,hH,mask-2.png,mask-4.png,h,0,1.15345639991574,h,1,0.04220989998430014,0.04654160002246499,0.04870899999514222,0.09975549997761846,0.10154690011404455,0.7476396998390555
RSVPLG03,TM,20251103-115237,1.0.1,20251020-085245,731,Experiment,Both,1,Automatic,main,89,20251103-120207,local,global,750,H,S,E,A,E-H.png,S-A.png,hH,sS,mask-4.png,mask-3.png,h,1,1.4070477001369,s,1,0.3004089000169188,0.0485020000487566,0.04747560014948249,0.09946270007640123,0.10064129997044802,0.749834599904716
RSVPLG03,TM,20251103-115237,1.0.1,20251020-085245,731,Experiment,Both,1,Automatic,main,90,20251103-120213,global,global,750,H,H,A,E,H-A.png,H-E.png,hH,hH,mask-3.png,mask-1.png,h,1,1.3308837001677603,h,1,0.09029459999874234,0.047543999971821904,0.04619739996269345,0.09974920004606247,0.09907350013963878,0.7504431998822838
RSVPLG03,TM,20251103-115237,1.0.1,20251020-085245,731,Experiment,Both,1,Automatic,main,91,20251103-120218,local,global,300,S,S,A,A,A-S.png,S-A.png,sS,sS,mask-1.png,mask-3.png,h,0,2.7347335000522435,h,0,0.14979529986158013,0.04736069985665381,0.04619530006311834,0.09983289986848831,0.09963340009562671,0.3000902999192476
