exp,exp_initials,runtime,ver,modtime,sub,blocktype,targets,cuetype,mode,trialtype,trial,trialtime,t1_level,t2_level,t2_lag,t1,t2,distractor1,distractor2,stimfile1,stimfile2,t1_corr,t2_corr,maskfile1,maskfile2,t1_resp,t1_acc,t1_rt,t2_resp,t2_acc,t2_rt,t1_dur,t2_dur,t1mask_soa,t2mask_soa,t1t2_soa
RSVPLG03,sg,20251021-141238,1.0.1,20251020-085245,708,Introduction,T1,1,Automatic,main,1,20251021-141317,local,local,750,S,S,A,E,A-S.png,E-S.png,sS,sS,mask-2.png,mask-4.png,s,1,3.1346096999477595,none,-5,0,0.08943230006843805,0.09667810006067157,0.19040210009552538,0.19872480002231896,0.7370623000897467
RSVPLG03,sg,20251021-141238,1.0.1,20251020-085245,708,Introduction,T1,1,Automatic,main,2,20251021-141324,local,local,750,H,H,A,E,A-H.png,E-H.png,hH,hH,mask-4.png,mask-1.png,h,1,0.7377158000599593,none,-5,0,0.0976156999822706,0.09636640013195574,0.19749839999713004,0.19983469997532666,0.7433549999259412
RSVPLG03,sg,20251021-141238,1.0.1,20251020-085245,708,Introduction,T1,1,Automatic,main,3,20251021-141329,global,local,750,H,H,A,E,H-A.png,E-H.png,hH,hH,mask-2.png,mask-2.png,h,1,3.7942795001436025,none,-5,0,0.0952416998334229,0.09588530007749796,0.19729529996402562,0.19775950000621378,0.7434148997999728
RSVPLG03,sg,20251021-141238,1.0.1,20251020-085245,708,Introduction,T1,1,Automatic,main,4,20251021-141337,global,local,750,S,H,A,A,S-A.png,A-H.png,sS,hH,mask-4.png,mask-4.png,s,1,1.6221038000658154,none,-5,0,0.0965200001373887,0.09637230006046593,0.19931120006367564,0.19939079997129738,0.7446435000747442
RSVPLG03,sg,20251021-141238,1.0.1,20251020-085245,708,Introduction,T1,1,Automatic,main,5,20251021-141343,global,local,750,H,H,A,A,H-A.png,A-H.png,hH,hH,mask-3.png,mask-1.png,h,1,1.2326386999338865,none,-5,0,0.09747579996474087,0.09743120009079576,0.20037089986726642,0.19829119998030365,0.7452562998514622
RSVPLG03,sg,20251021-141238,1.0.1,20251020-085245,708,Introduction,T1,1,Automatic,main,6,20251021-141348,global,global,750,S,H,A,A,S-A.png,H-A.png,sS,hH,mask-1.png,mask-3.png,s,1,1.5923123999964446,none,-5,0,0.09738759999163449,0.09654749999754131,0.19945399998687208,0.19959209999069571,0.7439220000524074
RSVPLG03,sg,20251021-141238,1.0.1,20251020-085245,708,Introduction,T1,1,Automatic,main,7,20251021-141354,local,local,750,H,S,E,E,E-H.png,E-S.png,hH,sS,mask-3.png,mask-3.png,h,1,1.3670262999366969,none,-5,0,0.09555549989454448,0.09552770014852285,0.19647590001113713,0.1975682000629604,0.7440656998660415
RSVPLG03,sg,20251021-141238,1.0.1,20251020-085245,708,Introduction,T1,1,Automatic,main,8,20251021-141359,global,global,750,S,H,E,A,S-E.png,H-A.png,sS,hH,mask-4.png,mask-3.png,s,1,0.9968717000447214,none,-5,0,0.09654230019077659,0.09653709991835058,0.1996941000688821,0.1984073999337852,0.7451683001127094
RSVPLG03,sg,20251021-141238,1.0.1,20251020-085245,708,Introduction,T1,1,Automatic,main,9,20251021-141405,global,local,750,S,H,A,E,S-A.png,E-H.png,sS,hH,mask-1.png,mask-3.png,s,1,1.401314899791032,none,-5,0,0.09539739997126162,0.0963653998915106,0.19837619992904365,0.19865079992450774,0.743716900004074
RSVPLG03,sg,20251021-141238,1.0.1,20251020-085245,708,Introduction,T1,1,Automatic,main,10,20251021-141410,local,global,750,H,S,E,A,E-H.png,S-A.png,hH,sS,mask-3.png,mask-3.png,s,0,1.0159558998420835,none,-5,0,0.09746359987184405,0.09650099999271333,0.19851860008202493,0.1979890998918563,0.744712800020352
RSVPLG03,sg,20251021-141238,1.0.1,20251020-085245,708,Introduction,T1,1,Automatic,main,11,20251021-141415,global,global,750,S,H,E,E,S-E.png,H-E.png,sS,hH,mask-1.png,mask-2.png,s,1,0.6771730999462306,none,-5,0,0.09645409998483956,0.09741919999942183,0.19826700002886355,0.1983626999426633,0.744183300063014
RSVPLG03,sg,20251021-141238,1.0.1,20251020-085245,708,Introduction,T1,1,Automatic,main,12,20251021-141420,local,global,750,S,S,A,A,A-S.png,S-A.png,sS,sS,mask-2.png,mask-4.png,h,0,0.8339878998231143,none,-5,0,0.09630430000834167,0.09737360011786222,0.198128400137648,0.1980041000060737,0.744098600000143
RSVPLG03,sg,20251021-141238,1.0.1,20251020-085245,708,Introduction,T1,1,Automatic,main,13,20251021-141425,local,global,750,S,H,A,A,A-S.png,H-A.png,sS,hH,mask-4.png,mask-4.png,s,1,0.8832962000742555,none,-5,0,0.09542810008861125,0.09737839992158115,0.19729040004312992,0.19772509997710586,0.7437225000467151
RSVPLG03,sg,20251021-141238,1.0.1,20251020-085245,708,Introduction,T1,1,Automatic,main,14,20251021-141430,global,global,750,S,H,A,A,S-A.png,H-A.png,sS,hH,mask-2.png,mask-4.png,s,1,0.7581621999852359,none,-5,0,0.0964484999421984,0.09748160000890493,0.19899590010754764,0.19839669996872544,0.7440041999798268
RSVPLG03,sg,20251021-141238,1.0.1,20251020-085245,708,Introduction,T1,1,Automatic,main,15,20251021-141435,local,global,750,S,H,E,A,E-S.png,H-A.png,sS,hH,mask-2.png,mask-4.png,s,1,0.7095505998004228,none,-5,0,0.09849729994311929,0.09821460000239313,0.20041529997251928,0.20013939985074103,0.7443758000154048
RSVPLG03,sg,20251021-141238,1.0.1,20251020-085245,708,Introduction,T1,1,Automatic,main,16,20251021-141440,local,local,750,S,S,A,E,A-S.png,E-S.png,sS,sS,mask-4.png,mask-2.png,s,1,0.5668167001567781,none,-5,0,0.09536170004867017,0.09664200013503432,0.19823360000737011,0.19761280016973615,0.743583699921146
RSVPLG03,sg,20251021-141238,1.0.1,20251020-085245,708,Practice,T1,1,Automatic,main,1,20251021-141544,local,global,300,H,S,A,A,A-H.png,S-A.png,hH,sS,mask-2.png,mask-3.png,h,1,1.3552653999067843,none,-5,0,0.03926300001330674,0.04859290015883744,0.09285470005124807,0.10047030006535351,0.29250169987790287
RSVPLG03,sg,20251021-141238,1.0.1,20251020-085245,708,Practice,T1,1,Automatic,main,2,20251021-141549,global,local,750,S,S,A,A,S-A.png,A-S.png,sS,sS,mask-3.png,mask-3.png,s,1,1.0664441999979317,none,-5,0,0.04765559989027679,0.04860479990020394,0.09987320005893707,0.10164880007505417,0.7507044000085443
RSVPLG03,sg,20251021-141238,1.0.1,20251020-085245,708,Practice,T1,1,Automatic,main,3,20251021-141554,local,global,300,H,S,A,A,A-H.png,S-A.png,hH,sS,mask-3.png,mask-1.png,h,1,0.9074821998365223,none,-5,0,0.0466735998634249,0.04751090006902814,0.09996069991029799,0.10153079987503588,0.2994081999640912
RSVPLG03,sg,20251021-141238,1.0.1,20251020-085245,708,Practice,T1,1,Automatic,main,4,20251021-141559,global,global,300,H,S,E,A,H-E.png,S-A.png,hH,sS,mask-3.png,mask-1.png,h,1,0.7756619001738727,none,-5,0,0.047563900006935,0.046721799997612834,0.10087309987284243,0.09986549988389015,0.299800300039351
RSVPLG03,sg,20251021-141238,1.0.1,20251020-085245,708,Practice,T1,1,Automatic,main,5,20251021-141603,global,global,750,S,S,A,E,S-A.png,S-E.png,sS,sS,mask-3.png,mask-4.png,s,1,1.0549599998630583,none,-5,0,0.047496600076556206,0.04717219993472099,0.10048110014759004,0.10019270004704595,0.7523585001472384
RSVPLG03,sg,20251021-141238,1.0.1,20251020-085245,708,Practice,T1,1,Automatic,main,6,20251021-141608,local,local,300,H,S,E,E,E-H.png,E-S.png,hH,sS,mask-1.png,mask-1.png,h,1,0.7688454000744969,none,-5,0,0.047548900125548244,0.047560600098222494,0.09954409999772906,0.10063020000234246,0.2999009999912232
RSVPLG03,sg,20251021-141238,1.0.1,20251020-085245,708,Practice,T1,1,Automatic,main,7,20251021-141612,local,local,750,H,S,A,E,A-H.png,E-S.png,hH,sS,mask-4.png,mask-1.png,s,0,0.6818279998842627,none,-5,0,0.047524699941277504,0.04853640007786453,0.09954610001295805,0.10090880002826452,0.7510885000228882
RSVPLG03,sg,20251021-141238,1.0.1,20251020-085245,708,Practice,T1,1,Automatic,main,8,20251021-141617,global,local,300,S,H,A,E,S-A.png,E-H.png,sS,hH,mask-1.png,mask-3.png,s,1,1.431374599924311,none,-5,0,0.046540499897673726,0.047542199958115816,0.10017819982022047,0.10025150002911687,0.30046319984830916
RSVPLG03,sg,20251021-141238,1.0.1,20251020-085245,708,Practice,T1,1,Automatic,main,9,20251021-141622,local,local,300,S,S,E,A,E-S.png,A-S.png,sS,sS,mask-4.png,mask-1.png,s,1,1.140954399947077,none,-5,0,0.04840299999341369,0.04608680005185306,0.10049039986915886,0.09999040002003312,0.30174989998340607
RSVPLG03,sg,20251021-141238,1.0.1,20251020-085245,708,Practice,T1,1,Automatic,main,10,20251021-141627,global,global,750,S,H,A,E,S-A.png,H-E.png,sS,hH,mask-3.png,mask-3.png,s,1,0.6932892999611795,none,-5,0,0.04751649987883866,0.047513100085780025,0.09869789984077215,0.10048569994978607,0.7498695999383926
RSVPLG03,sg,20251021-141238,1.0.1,20251020-085245,708,Practice,T1,1,Automatic,main,11,20251021-141632,local,global,750,S,S,E,E,E-S.png,S-E.png,sS,sS,mask-4.png,mask-4.png,s,1,0.6411081000696868,none,-5,0,0.048504200065508485,0.04749849997460842,0.10153579991310835,0.10151639999821782,0.7514347999822348
RSVPLG03,sg,20251021-141238,1.0.1,20251020-085245,708,Practice,T1,1,Automatic,main,12,20251021-141636,local,local,750,H,S,A,E,A-H.png,E-S.png,hH,sS,mask-3.png,mask-4.png,h,1,0.7403115001507103,none,-5,0,0.04751679999753833,0.04873999999836087,0.09969349997118115,0.09964450006373227,0.7509838999249041
RSVPLG03,sg,20251021-141238,1.0.1,20251020-085245,708,Practice,T1,1,Automatic,main,13,20251021-141641,global,global,300,S,H,E,E,S-E.png,H-E.png,sS,hH,mask-2.png,mask-4.png,s,1,0.6626538999844342,none,-5,0,0.04868829995393753,0.04747649980708957,0.10137129994109273,0.10036639985628426,0.30019540013745427
RSVPLG03,sg,20251021-141238,1.0.1,20251020-085245,708,Practice,T1,1,Automatic,main,14,20251021-141645,local,global,750,H,H,A,A,A-H.png,H-A.png,hH,hH,mask-1.png,mask-3.png,h,1,0.48859850014559925,none,-5,0,0.04651860008016229,0.04668550007045269,0.09964710008352995,0.09987489995546639,0.7504207000602037
RSVPLG03,sg,20251021-141238,1.0.1,20251020-085245,708,Practice,T1,1,Automatic,main,15,20251021-141650,global,local,750,S,H,A,A,S-A.png,A-H.png,sS,hH,mask-3.png,mask-1.png,s,1,0.5384873999282718,none,-5,0,0.04961200011894107,0.046667000045999885,0.10066840006038547,0.09987380006350577,0.7528051000554115
RSVPLG03,sg,20251021-141238,1.0.1,20251020-085245,708,Practice,T1,1,Automatic,main,16,20251021-141654,global,local,300,S,S,A,A,S-A.png,A-S.png,sS,sS,mask-4.png,mask-1.png,s,1,0.6058964999392629,none,-5,0,0.04821410006843507,0.047413500025868416,0.10008849995210767,0.10114669986069202,0.3010726000647992
RSVPLG03,sg,20251021-141824,1.0.1,20251020-085245,708,Introduction,Both,1,Automatic,main,1,20251021-141853,global,local,750,S,H,E,A,S-E.png,A-H.png,sS,hH,mask-4.png,mask-3.png,s,1,1.3281034999527037,h,1,5.975861000129953,0.09022650006227195,0.097568100085482,0.19337949994951487,0.20165279996581376,0.7449632999487221
RSVPLG03,sg,20251021-141824,1.0.1,20251020-085245,708,Introduction,Both,1,Automatic,main,2,20251021-141905,global,global,750,H,S,A,E,H-A.png,S-E.png,hH,sS,mask-3.png,mask-4.png,h,1,1.4740679000969976,h,0,1.0983559999149293,0.09759929985739291,0.09664170001633465,0.19950199988670647,0.19947890006005764,0.752226899843663
RSVPLG03,sg,20251021-141824,1.0.1,20251020-085245,708,Introduction,Both,1,Automatic,main,3,20251021-141912,local,global,750,S,H,E,A,E-S.png,H-A.png,sS,hH,mask-3.png,mask-1.png,s,1,1.452417999971658,h,1,0.5880304002203047,0.09673360013402998,0.09784199995920062,0.1998630000744015,0.2008977998048067,0.7525501002091914
RSVPLG03,sg,20251021-141824,1.0.1,20251020-085245,708,Introduction,Both,1,Automatic,main,4,20251021-141918,local,local,750,S,S,E,E,E-S.png,E-S.png,sS,sS,mask-1.png,mask-1.png,s,1,1.4506302999798208,s,1,0.379131400026381,0.09867239999584854,0.0963226999156177,0.20072460011579096,0.20042490004561841,0.7538856000173837
RSVPLG03,sg,20251021-141824,1.0.1,20251020-085245,708,Introduction,Both,1,Automatic,main,5,20251021-141924,global,local,750,H,S,A,A,H-A.png,A-S.png,hH,sS,mask-2.png,mask-1.png,h,1,1.4245150000788271,s,1,0.03958600014448166,0.09806729992851615,0.09633000008761883,0.20011739991605282,0.20024390006437898,0.7519787999335676
RSVPLG03,sg,20251021-141824,1.0.1,20251020-085245,708,Introduction,Both,1,Automatic,main,6,20251021-141930,local,global,750,S,S,E,A,E-S.png,S-A.png,sS,sS,mask-4.png,mask-3.png,s,1,0.5675741999875754,s,1,0.33877919986844063,0.09621510002762079,0.09643939998932183,0.20045919995754957,0.1999705999623984,0.7523487000726163
RSVPLG03,sg,20251021-141824,1.0.1,20251020-085245,708,Introduction,Both,1,Automatic,main,7,20251021-141935,local,local,750,S,S,A,E,A-S.png,E-S.png,sS,sS,mask-1.png,mask-3.png,s,1,0.6066042999736965,s,1,0.3637755000963807,0.09820639993995428,0.09943790012039244,0.2009070001076907,0.20131399994716048,0.7522670000325888
RSVPLG03,sg,20251021-141824,1.0.1,20251020-085245,708,Introduction,Both,1,Automatic,main,8,20251021-141941,local,local,750,H,S,E,A,E-H.png,A-S.png,hH,sS,mask-1.png,mask-4.png,h,1,1.1319202000740916,s,1,0.25926459999755025,0.09737739991396666,0.09738869988359511,0.20026419986970723,0.20029349997639656,0.7517381000798196
RSVPLG03,sg,20251021-141824,1.0.1,20251020-085245,708,Introduction,Both,1,Automatic,main,9,20251021-141946,local,global,750,S,H,E,A,E-S.png,H-A.png,sS,hH,mask-3.png,mask-4.png,s,1,1.0132041000761092,s,0,0.5574648999609053,0.0958799000363797,0.09856100007891655,0.19989469996653497,0.20162650011479855,0.7504189999308437
RSVPLG03,sg,20251021-141824,1.0.1,20251020-085245,708,Introduction,Both,1,Automatic,main,10,20251021-141952,global,local,750,S,S,A,A,S-A.png,A-S.png,sS,sS,mask-2.png,mask-2.png,s,1,0.5923125999979675,s,1,0.4381106998771429,0.09852500003762543,0.097614899976179,0.19971509999595582,0.19970270013436675,0.7523493999615312
RSVPLG03,sg,20251021-141824,1.0.1,20251020-085245,708,Introduction,Both,1,Automatic,main,11,20251021-141958,global,global,750,H,S,E,E,H-E.png,S-E.png,hH,sS,mask-2.png,mask-2.png,h,1,0.9143572999164462,s,1,0.19513160013593733,0.09848639997653663,0.09661779995076358,0.19976920005865395,0.20026240008883178,0.7523356999736279
RSVPLG03,sg,20251021-141824,1.0.1,20251020-085245,708,Introduction,Both,1,Automatic,main,12,20251021-142003,global,global,750,H,H,A,A,H-A.png,H-A.png,hH,hH,mask-1.png,mask-4.png,h,1,1.1064710000064224,h,1,0.07840789994224906,0.09729659999720752,0.09967330005019903,0.20016340003348887,0.20124129997566342,0.7505747999530286
RSVPLG03,sg,20251021-141824,1.0.1,20251020-085245,708,Introduction,Both,1,Automatic,main,13,20251021-142009,local,local,750,S,S,E,A,E-S.png,A-S.png,sS,sS,mask-4.png,mask-2.png,s,1,1.0100420999806374,h,0,0.043120200047269464,0.09740960015915334,0.09753859997726977,0.20134420017711818,0.1995566999539733,0.7521925000473857
RSVPLG03,sg,20251021-141824,1.0.1,20251020-085245,708,Introduction,Both,1,Automatic,main,14,20251021-142014,local,global,750,H,H,A,A,A-H.png,H-A.png,hH,hH,mask-4.png,mask-1.png,h,1,1.2712603001855314,h,1,0.969174100086093,0.0983901999425143,0.0973969001788646,0.2005659998394549,0.19936720002442598,0.7524418998509645
RSVPLG03,sg,20251021-141824,1.0.1,20251020-085245,708,Introduction,Both,1,Automatic,main,15,20251021-142020,global,local,750,S,S,A,E,S-A.png,E-S.png,sS,sS,mask-1.png,mask-2.png,h,0,0.48423280008137226,h,0,0.1765542000066489,0.09855110011994839,0.09937239997088909,0.20066490001045167,0.20224049990065396,0.751268400112167
RSVPLG03,sg,20251021-141824,1.0.1,20251020-085245,708,Introduction,Both,1,Automatic,main,16,20251021-142025,global,global,750,H,H,A,E,H-A.png,H-E.png,hH,hH,mask-2.png,mask-4.png,s,0,0.5169591000303626,h,1,0.02851630002260208,0.099370599957183,0.0989264000672847,0.20226149982772768,0.20142109994776547,0.7519981998484582
RSVPLG03,sg,20251021-142058,1.0.1,20251020-085245,708,Practice,Both,1,Automatic,main,1,20251021-142146,local,global,300,H,S,A,A,A-H.png,S-A.png,hH,sS,mask-4.png,mask-4.png,h,1,1.0215225000865757,s,1,0.28040040004998446,0.040294800186529756,0.04980249982327223,0.0922148001845926,0.10202379990369081,0.29096620017662644
RSVPLG03,sg,20251021-142058,1.0.1,20251020-085245,708,Practice,Both,1,Automatic,main,2,20251021-142151,global,global,300,H,S,E,E,H-E.png,S-E.png,hH,sS,mask-2.png,mask-4.png,h,1,1.916684600058943,h,0,2.3585614999756217,0.047349700005725026,0.04670699988491833,0.09835029998794198,0.10028199991211295,0.29861750011332333
RSVPLG03,sg,20251021-142058,1.0.1,20251020-085245,708,Practice,Both,1,Automatic,main,3,20251021-142200,local,global,300,S,H,A,A,A-S.png,H-A.png,sS,hH,mask-1.png,mask-2.png,s,1,0.9010465000756085,s,0,0.0493667998816818,0.04744539991952479,0.04725620010867715,0.09990269993431866,0.10036380006931722,0.30004099989309907
RSVPLG03,sg,20251021-142058,1.0.1,20251020-085245,708,Practice,Both,1,Automatic,main,4,20251021-142204,local,global,750,S,H,E,E,E-S.png,H-E.png,sS,hH,mask-4.png,mask-2.png,s,1,1.2563710000831634,h,1,0.05397469992749393,0.047698100097477436,0.047692300053313375,0.09966089995577931,0.09979150001890957,0.7498083000537008
RSVPLG03,sg,20251021-142058,1.0.1,20251020-085245,708,Practice,Both,1,Automatic,main,5,20251021-142210,global,local,300,S,S,A,A,S-A.png,A-S.png,sS,sS,mask-3.png,mask-3.png,s,1,0.7529982000123709,s,1,0.3475977999623865,0.04762780014425516,0.0485257999971509,0.10097060003317893,0.09954000008292496,0.3000696999952197
RSVPLG03,sg,20251021-142058,1.0.1,20251020-085245,708,Practice,Both,1,Automatic,main,6,20251021-142214,local,local,750,S,H,E,A,E-S.png,A-H.png,sS,hH,mask-4.png,mask-2.png,s,1,0.4485868001356721,h,1,0.23203800013288856,0.04861210007220507,0.047539500053972006,0.09962470014579594,0.09947210014797747,0.7503941999748349
RSVPLG03,sg,20251021-142058,1.0.1,20251020-085245,708,Practice,Both,1,Automatic,main,7,20251021-142219,global,local,750,S,H,E,E,S-E.png,E-H.png,sS,hH,mask-4.png,mask-2.png,s,1,0.685310399858281,h,1,1.0188160999678075,0.04751230007968843,0.047554099932312965,0.10050710011273623,0.09953149990178645,0.7498992001637816
RSVPLG03,sg,20251021-142058,1.0.1,20251020-085245,708,Practice,Both,1,Automatic,main,8,20251021-142225,local,local,750,H,H,A,E,A-H.png,E-H.png,hH,hH,mask-2.png,mask-4.png,h,1,0.9150084001012146,s,0,0.05311089986935258,0.048578100046142936,0.047578100115060806,0.09960730001330376,0.10092730005271733,0.7494292000774294
RSVPLG03,sg,20251021-142058,1.0.1,20251020-085245,708,Practice,Both,1,Automatic,main,9,20251021-142230,local,local,300,S,H,E,E,E-S.png,E-H.png,sS,hH,mask-3.png,mask-4.png,s,1,0.46877470007166266,s,0,0.15636350004933774,0.048551500076428056,0.04862949997186661,0.09962289989925921,0.10011879983358085,0.2996716001071036
RSVPLG03,sg,20251021-142058,1.0.1,20251020-085245,708,Practice,Both,1,Automatic,main,10,20251021-142235,local,global,750,S,H,A,A,A-S.png,H-A.png,sS,hH,mask-2.png,mask-3.png,s,1,1.093923700042069,h,1,0.13318319991230965,0.04724090010859072,0.048413499956950545,0.10039030015468597,0.10136989993043244,0.7490100001450628
RSVPLG03,sg,20251021-142058,1.0.1,20251020-085245,708,Practice,Both,1,Automatic,main,11,20251021-142240,local,local,300,S,H,A,A,A-S.png,A-H.png,sS,hH,mask-3.png,mask-1.png,s,1,0.40926260012201965,h,1,0.20054659992456436,0.04641680000349879,0.04747179988771677,0.10014580003917217,0.10132190003059804,0.2989327001851052
RSVPLG03,sg,20251021-142058,1.0.1,20251020-085245,708,Practice,Both,1,Automatic,main,12,20251021-142245,global,local,300,H,S,E,A,H-E.png,A-S.png,hH,sS,mask-4.png,mask-4.png,s,0,0.705604599788785,h,0,0.9385398998856544,0.04677759995684028,0.047681199852377176,0.09986469987779856,0.09989029983989894,0.29947780002839863
RSVPLG03,sg,20251021-142058,1.0.1,20251020-085245,708,Practice,Both,1,Automatic,main,13,20251021-142250,global,global,300,S,H,E,A,S-E.png,H-A.png,sS,hH,mask-4.png,mask-3.png,s,1,1.1722988998517394,h,1,0.06606790004298091,0.047701000003144145,0.04770619980990887,0.09977380000054836,0.09915639995597303,0.2994175001513213
RSVPLG03,sg,20251021-142058,1.0.1,20251020-085245,708,Practice,Both,1,Automatic,main,14,20251021-142255,global,global,750,S,H,E,A,S-E.png,H-A.png,sS,hH,mask-4.png,mask-4.png,s,1,0.4787664001341909,h,1,0.11515989992767572,0.04717190004885197,0.046327400021255016,0.1003046000842005,0.09823480015620589,0.7506009999196976
RSVPLG03,sg,20251021-142058,1.0.1,20251020-085245,708,Practice,Both,1,Automatic,main,15,20251021-142300,global,global,750,H,H,A,E,H-A.png,H-E.png,hH,hH,mask-2.png,mask-4.png,h,1,0.7560166998300701,h,1,0.6289220000617206,0.047359000192955136,0.048502600053325295,0.10037820017896593,0.10052219987846911,0.7494646001141518
RSVPLG03,sg,20251021-142058,1.0.1,20251020-085245,708,Practice,Both,1,Automatic,main,16,20251021-142305,global,local,750,H,S,A,A,H-A.png,A-S.png,hH,sS,mask-2.png,mask-1.png,h,1,0.40232179989106953,s,1,0.021602099994197488,0.045843400061130524,0.04760000016540289,0.09996150014922023,0.09968470013700426,0.7499897999223322
RSVPLG03,sg,20251021-142526,1.0.1,20251020-085245,708,Experiment,Both,1,Automatic,warmup,1,20251021-142558,global,local,300,S,S,A,A,S-A.png,A-S.png,sS,sS,mask-4.png,mask-3.png,s,1,1.4344868999905884,h,0,0.3433467000722885,0.03860909980721772,0.04501240001991391,0.0908508999273181,0.09768949984572828,0.2900213999673724
RSVPLG03,sg,20251021-142526,1.0.1,20251020-085245,708,Experiment,Both,1,Automatic,warmup,2,20251021-142603,local,local,300,H,H,A,E,A-H.png,E-H.png,hH,hH,mask-2.png,mask-4.png,h,1,0.9176160998176783,s,0,0.1089538000524044,0.04654760006815195,0.04645269992761314,0.09861340001225471,0.09846369992010295,0.29751659999601543
RSVPLG03,sg,20251021-142526,1.0.1,20251020-085245,708,Experiment,Both,1,Automatic,warmup,3,20251021-142608,global,global,300,S,S,A,E,S-A.png,S-E.png,sS,sS,mask-2.png,mask-2.png,s,1,0.6710233001504093,h,0,0.6208855998702347,0.04671289981342852,0.04760649986565113,0.0989123999606818,0.09981349995359778,0.29627829999662936
RSVPLG03,sg,20251021-142526,1.0.1,20251020-085245,708,Experiment,Both,1,Automatic,warmup,4,20251021-142613,local,global,300,H,S,A,A,A-H.png,S-A.png,hH,sS,mask-4.png,mask-4.png,h,1,0.6903486999217421,s,1,0.019742100033909082,0.04673010017722845,0.04726190003566444,0.10013779997825623,0.098370699910447,0.29792460007593036
RSVPLG03,sg,20251021-142526,1.0.1,20251020-085245,708,Experiment,Both,1,Automatic,warmup,5,20251021-142617,global,local,750,H,H,A,E,H-A.png,E-H.png,hH,hH,mask-2.png,mask-4.png,s,0,2.5877518001943827,h,1,2.6993596001993865,0.04750080010853708,0.047515799989923835,0.09950480004772544,0.09952299995347857,0.7431981000117958
RSVPLG03,sg,20251021-142526,1.0.1,20251020-085245,708,Experiment,Both,1,Automatic,main,6,20251021-142624,global,global,750,S,S,E,A,S-E.png,S-A.png,sS,sS,mask-3.png,mask-1.png,s,1,0.498569100163877,s,1,0.10855969996191561,0.048372199991717935,0.04748059995472431,0.10035840002819896,0.10048300004564226,0.7434996000956744
RSVPLG03,sg,20251021-142526,1.0.1,20251020-085245,708,Experiment,Both,1,Automatic,main,7,20251021-142629,local,local,300,H,H,A,E,A-H.png,E-H.png,hH,hH,mask-4.png,mask-1.png,s,0,1.292416200041771,h,1,1.3567377999424934,0.04788660001941025,0.047500799875706434,0.09995940001681447,0.09950989997014403,0.2980068000033498
RSVPLG03,sg,20251021-142526,1.0.1,20251020-085245,708,Experiment,Both,1,Automatic,main,8,20251021-142634,local,local,750,S,H,A,A,A-S.png,A-H.png,sS,hH,mask-3.png,mask-1.png,s,1,0.33964739996008575,h,1,0.03631530003622174,0.04765719990245998,0.04852730012498796,0.0998460000846535,0.09964040014892817,0.743048399919644
RSVPLG03,sg,20251021-142526,1.0.1,20251020-085245,708,Experiment,Both,1,Automatic,main,9,20251021-142638,global,local,750,H,S,E,A,H-E.png,A-S.png,hH,sS,mask-2.png,mask-4.png,h,1,0.42758879996836185,s,1,0.04042820003814995,0.045754700200632215,0.04751199996098876,0.09805480018258095,0.09935429994948208,0.7416888000443578
RSVPLG03,sg,20251021-142526,1.0.1,20251020-085245,708,Experiment,Both,1,Automatic,main,10,20251021-142643,global,local,300,S,H,A,A,S-A.png,A-H.png,sS,hH,mask-3.png,mask-3.png,s,1,0.6889869999140501,s,0,0.05981220002286136,0.04717170004732907,0.04670269996859133,0.10018129996024072,0.0995968000497669,0.29696519998833537
RSVPLG03,sg,20251021-142526,1.0.1,20251020-085245,708,Experiment,Both,1,Automatic,main,11,20251021-142647,global,local,300,H,H,E,A,H-E.png,A-H.png,hH,hH,mask-1.png,mask-3.png,h,1,0.6755051000509411,h,1,0.044291399884968996,0.04728089994750917,0.048434299882501364,0.09922019997611642,0.10028149979189038,0.2975226000417024
RSVPLG03,sg,20251021-142526,1.0.1,20251020-085245,708,Experiment,Both,1,Automatic,main,12,20251021-142651,global,global,750,S,H,A,A,S-A.png,H-A.png,sS,hH,mask-4.png,mask-1.png,s,1,0.5169021999463439,h,1,0.8215956999920309,0.047526099951937795,0.046554300002753735,0.10056250006891787,0.09867109986953437,0.7441162001341581
RSVPLG03,sg,20251021-142526,1.0.1,20251020-085245,708,Experiment,Both,1,Automatic,main,13,20251021-142657,global,local,750,S,S,E,A,S-E.png,A-S.png,sS,sS,mask-3.png,mask-2.png,s,1,0.4526849000249058,s,1,0.12456270004622638,0.046383599983528256,0.04653150006197393,0.09938579984009266,0.09761840011924505,0.7435468998737633
RSVPLG03,sg,20251021-142526,1.0.1,20251020-085245,708,Experiment,Both,1,Automatic,main,14,20251021-142701,global,global,750,H,H,E,E,H-E.png,H-E.png,hH,hH,mask-2.png,mask-4.png,h,1,0.42903489992022514,h,1,0.055603799875825644,0.047663999954238534,0.04534399998374283,0.09968929993920028,0.09817499993368983,0.7437251000665128
RSVPLG03,sg,20251021-142526,1.0.1,20251020-085245,708,Experiment,Both,1,Automatic,main,15,20251021-142706,local,global,750,H,S,A,E,A-H.png,S-E.png,hH,sS,mask-1.png,mask-4.png,h,1,0.31451050005853176,s,1,0.8057069000788033,0.04772059991955757,0.04668449983000755,0.09987120004370809,0.09886199980974197,0.742989300051704
RSVPLG03,sg,20251021-142526,1.0.1,20251020-085245,708,Experiment,Both,1,Automatic,main,16,20251021-142711,global,local,750,S,S,A,E,S-A.png,E-S.png,sS,sS,mask-4.png,mask-4.png,s,1,0.32162389997392893,s,1,0.07795660011470318,0.04562470014207065,0.04745680000633001,0.09786660014651716,0.10056859999895096,0.741389200091362
RSVPLG03,sg,20251021-142526,1.0.1,20251020-085245,708,Experiment,Both,1,Automatic,main,17,20251021-142716,local,local,750,S,H,E,A,E-S.png,A-H.png,sS,hH,mask-2.png,mask-4.png,s,1,0.35526919993571937,h,1,0.09137620008550584,0.04668730008415878,0.04776360001415014,0.09907249989919364,0.0999358999542892,0.7421210999600589
RSVPLG03,sg,20251021-142526,1.0.1,20251020-085245,708,Experiment,Both,1,Automatic,main,18,20251021-142720,global,local,300,S,S,E,A,S-E.png,A-S.png,sS,sS,mask-4.png,mask-1.png,s,1,1.059919900028035,h,0,0.009864900028333068,0.0465052998624742,0.048711299896240234,0.09775329986587167,0.10028190002776682,0.29577929992228746
RSVPLG03,sg,20251021-142526,1.0.1,20251020-085245,708,Experiment,Both,1,Automatic,main,19,20251021-142725,global,local,300,S,H,A,E,S-A.png,E-H.png,sS,hH,mask-2.png,mask-1.png,s,1,0.4481496000662446,s,0,0.7256022999063134,0.045513000106438994,0.04679380008019507,0.0985113000497222,0.09994450001977384,0.29591790004633367
RSVPLG03,sg,20251021-142526,1.0.1,20251020-085245,708,Experiment,Both,1,Automatic,main,20,20251021-142730,global,global,300,S,H,A,E,S-A.png,H-E.png,sS,hH,mask-3.png,mask-4.png,s,1,0.27078239992260933,h,1,0.009486600058153272,0.04676820011809468,0.048179199919104576,0.09888039994984865,0.09923579986207187,0.2969774000812322
RSVPLG03,sg,20251021-142526,1.0.1,20251020-085245,708,Experiment,Both,1,Automatic,main,21,20251021-142734,global,local,750,S,S,A,E,S-A.png,E-S.png,sS,sS,mask-2.png,mask-2.png,s,1,0.36917279986664653,s,1,0.022579400101676583,0.045501499902457,0.04758940008468926,0.09868049994111061,0.09964150004088879,0.7416047998704016
RSVPLG03,sg,20251021-142526,1.0.1,20251020-085245,708,Experiment,Both,1,Automatic,main,22,20251021-142738,local,global,300,H,S,E,E,E-H.png,S-E.png,hH,sS,mask-3.png,mask-2.png,h,1,0.6240226000081748,h,0,0.05833629984408617,0.046407599933445454,0.04748009983450174,0.09746850002557039,0.09945079986937344,0.2956622000783682
RSVPLG03,sg,20251021-142526,1.0.1,20251020-085245,708,Experiment,Both,1,Automatic,main,23,20251021-142743,local,local,750,S,H,A,A,A-S.png,A-H.png,sS,hH,mask-4.png,mask-2.png,s,1,0.21137529984116554,h,1,0.8096329998224974,0.04553410015068948,0.04774289997294545,0.09750439994968474,0.09899769979529083,0.7417356001678854
RSVPLG03,sg,20251021-142526,1.0.1,20251020-085245,708,Experiment,Both,1,Automatic,main,24,20251021-142748,global,global,750,H,H,E,A,H-E.png,H-A.png,hH,hH,mask-1.png,mask-4.png,h,1,0.49710549996234477,h,1,0.0770730001386255,0.045720099937170744,0.046687700087204576,0.09788389992900193,0.09990120003931224,0.7416560999117792
RSVPLG03,sg,20251021-142526,1.0.1,20251020-085245,708,Experiment,Both,1,Automatic,main,25,20251021-142753,global,global,750,S,S,E,E,S-E.png,S-E.png,sS,sS,mask-1.png,mask-2.png,s,1,0.707923699868843,s,1,0.46057450002990663,0.04780540009960532,0.045656600035727024,0.09986850013956428,0.09866879996843636,0.7444707001559436
RSVPLG03,sg,20251021-142526,1.0.1,20251020-085245,708,Experiment,Both,1,Automatic,main,26,20251021-142824,local,global,750,H,S,E,E,E-H.png,S-E.png,hH,sS,mask-4.png,mask-2.png,h,1,0.36262509995140135,s,1,0.47496549994684756,0.04744320013560355,0.04622630006633699,0.09950240002945065,0.09809329989366233,0.7426947001367807
RSVPLG03,sg,20251021-142526,1.0.1,20251020-085245,708,Experiment,Both,1,Automatic,main,27,20251021-142828,local,global,300,S,S,A,E,A-S.png,S-E.png,sS,sS,mask-2.png,mask-1.png,s,1,0.5112515999935567,s,1,0.3203104001004249,0.04751250008121133,0.046493399888277054,0.09975669998675585,0.09947819984517992,0.2980167001951486
RSVPLG03,sg,20251021-142526,1.0.1,20251020-085245,708,Experiment,Both,1,Automatic,main,28,20251021-142833,local,local,750,H,S,A,E,A-H.png,E-S.png,hH,sS,mask-2.png,mask-3.png,h,1,0.32106960006058216,s,1,0.4652223000302911,0.048767799977213144,0.047570599941536784,0.09988690004684031,0.09957239986397326,0.7441051001660526
RSVPLG03,sg,20251021-142526,1.0.1,20251020-085245,708,Experiment,Both,1,Automatic,main,29,20251021-142837,global,local,300,S,S,E,A,S-E.png,A-S.png,sS,sS,mask-3.png,mask-4.png,s,1,0.5901774999219924,s,1,0.04052480007521808,0.0474506001919508,0.04731829999946058,0.09854240017011762,0.09847540012560785,0.29686230001971126
RSVPLG03,sg,20251021-142526,1.0.1,20251020-085245,708,Experiment,Both,1,Automatic,main,30,20251021-142841,global,global,750,S,S,E,A,S-E.png,S-A.png,sS,sS,mask-4.png,mask-4.png,s,1,0.34168910002335906,s,1,0.070254199905321,0.04556979984045029,0.04757010005414486,0.09901289991103113,0.10063190013170242,0.7415739998687059
RSVPLG03,sg,20251021-142526,1.0.1,20251020-085245,708,Experiment,Both,1,Automatic,main,31,20251021-142846,local,local,750,H,S,E,A,E-H.png,A-S.png,hH,sS,mask-1.png,mask-2.png,h,1,0.7303361999802291,s,1,0.5952808998990804,0.04653279995545745,0.04787190002389252,0.09837969997897744,0.09971709991805255,0.7418962998781353
RSVPLG03,sg,20251021-142526,1.0.1,20251020-085245,708,Experiment,Both,1,Automatic,main,32,20251021-142851,local,local,750,H,H,E,A,E-H.png,A-H.png,hH,hH,mask-2.png,mask-4.png,s,0,0.8721217999700457,s,0,0.04565020021982491,0.04758250014856458,0.047406500205397606,0.0992850000038743,0.09840670018456876,0.7434670999646187
RSVPLG03,sg,20251021-142526,1.0.1,20251020-085245,708,Experiment,Both,1,Automatic,main,33,20251021-142856,local,local,300,H,S,A,A,A-H.png,A-S.png,hH,sS,mask-3.png,mask-1.png,s,0,0.3955206999089569,h,0,0.5235846000723541,0.047498099971562624,0.047489300137385726,0.09954479988664389,0.09950420004315674,0.29810519982129335
RSVPLG03,sg,20251021-142526,1.0.1,20251020-085245,708,Experiment,Both,1,Automatic,main,34,20251021-142901,local,global,300,S,S,E,A,E-S.png,S-A.png,sS,sS,mask-2.png,mask-3.png,s,1,0.4720581001602113,s,1,0.07336980011314154,0.045500499894842505,0.04677899996750057,0.09751260001212358,0.0996789000928402,0.2966324998997152
RSVPLG03,sg,20251021-142526,1.0.1,20251020-085245,708,Experiment,Both,1,Automatic,main,35,20251021-142905,global,local,750,H,S,E,A,H-E.png,A-S.png,hH,sS,mask-1.png,mask-4.png,s,0,0.5648097000084817,s,1,0.05947900004684925,0.046454600058496,0.04653870011679828,0.09845150006003678,0.09953490016050637,0.7431336999870837
RSVPLG03,sg,20251021-142526,1.0.1,20251020-085245,708,Experiment,Both,1,Automatic,main,36,20251021-142909,local,global,750,S,H,A,A,A-S.png,H-A.png,sS,hH,mask-4.png,mask-3.png,s,1,0.5951151000335813,h,1,0.028329299995675683,0.04752359981648624,0.04652659990824759,0.09888159995898604,0.09840259980410337,0.7429796999786049
RSVPLG03,sg,20251021-142526,1.0.1,20251020-085245,708,Experiment,Both,1,Automatic,main,37,20251021-142914,global,global,750,H,H,A,E,H-A.png,H-E.png,hH,hH,mask-3.png,mask-4.png,s,0,0.7726015001535416,h,1,0.022319500101730227,0.04767390014603734,0.04685399984009564,0.09820370003581047,0.09902659989893436,0.7429711001459509
RSVPLG03,sg,20251021-142526,1.0.1,20251020-085245,708,Experiment,Both,1,Automatic,main,38,20251021-142919,local,global,750,H,H,A,E,A-H.png,H-E.png,hH,hH,mask-2.png,mask-4.png,s,0,1.1542724999599159,s,0,0.07660860009491444,0.047494699945673347,0.04816610016860068,0.09848949988372624,0.09929560008458793,0.7419498998206109
RSVPLG03,sg,20251021-142526,1.0.1,20251020-085245,708,Experiment,Both,1,Automatic,main,39,20251021-142924,local,local,300,H,S,A,A,A-H.png,A-S.png,hH,sS,mask-3.png,mask-4.png,h,1,0.4008454999420792,s,1,0.21797890006564558,0.04703540005721152,0.04728499986231327,0.09947029990144074,0.09855520003475249,0.29818619997240603
RSVPLG03,sg,20251021-142526,1.0.1,20251020-085245,708,Experiment,Both,1,Automatic,main,40,20251021-142929,local,global,750,H,S,A,E,A-H.png,S-E.png,hH,sS,mask-2.png,mask-2.png,h,1,0.4903889999259263,s,1,0.20030200015753508,0.04553700005635619,0.04594870004802942,0.0985491001047194,0.09747770009562373,0.7427497999742627
RSVPLG03,sg,20251021-142526,1.0.1,20251020-085245,708,Experiment,Both,1,Automatic,main,41,20251021-142934,global,global,750,H,S,A,E,H-A.png,S-E.png,hH,sS,mask-3.png,mask-4.png,h,1,0.2719375998713076,s,1,0.18832660000771284,0.045733199920505285,0.04751519998535514,0.0989158998709172,0.10053159995004535,0.7418752000667155
RSVPLG03,sg,20251021-142526,1.0.1,20251020-085245,708,Experiment,Both,1,Automatic,main,42,20251021-142938,local,global,750,H,H,A,E,A-H.png,H-E.png,hH,hH,mask-2.png,mask-4.png,h,1,0.36978440009988844,h,1,0.13876129989512265,0.04761569993570447,0.0458466000854969,0.09918390004895627,0.09785949997603893,0.7443369999527931
RSVPLG03,sg,20251021-142526,1.0.1,20251020-085245,708,Experiment,Both,1,Automatic,main,43,20251021-142943,local,local,750,H,H,E,E,E-H.png,E-H.png,hH,hH,mask-1.png,mask-2.png,h,1,0.32193729979917407,h,1,0.16498390003107488,0.047509799944236875,0.04605659982189536,0.09953069989569485,0.09872179990634322,0.742886200081557
RSVPLG03,sg,20251021-142526,1.0.1,20251020-085245,708,Experiment,Both,1,Automatic,main,44,20251021-142948,local,global,300,S,S,E,A,E-S.png,S-A.png,sS,sS,mask-1.png,mask-2.png,s,1,0.448219999903813,s,1,0.10560719994828105,0.0457309999037534,0.047533700009807944,0.0979112999048084,0.09954810002818704,0.29631939996033907
RSVPLG03,sg,20251021-142526,1.0.1,20251020-085245,708,Experiment,Both,1,Automatic,main,45,20251021-142952,global,global,300,S,H,E,A,S-E.png,H-A.png,sS,hH,mask-3.png,mask-3.png,s,1,0.353144200053066,h,1,0.09860820020549,0.046340799890458584,0.04629760002717376,0.09884650004096329,0.09894039994105697,0.29718180000782013
RSVPLG03,sg,20251021-142526,1.0.1,20251020-085245,708,Experiment,Both,1,Automatic,main,46,20251021-142956,global,local,750,S,S,E,A,S-E.png,A-S.png,sS,sS,mask-3.png,mask-2.png,s,1,0.38729130011051893,h,0,0.16675119986757636,0.04550689994357526,0.04652300011366606,0.09856830001808703,0.09863219992257655,0.742599599994719
RSVPLG03,sg,20251021-142526,1.0.1,20251020-085245,708,Experiment,Both,1,Automatic,main,47,20251021-143001,global,local,300,H,S,E,E,H-E.png,E-S.png,hH,sS,mask-3.png,mask-1.png,h,1,0.370110800024122,h,0,0.07564759999513626,0.04721150011755526,0.04650310007855296,0.10030789999291301,0.09883200004696846,0.2979182000271976
RSVPLG03,sg,20251021-142526,1.0.1,20251020-085245,708,Experiment,Both,1,Automatic,main,48,20251021-143005,global,global,750,H,H,E,A,H-E.png,H-A.png,hH,hH,mask-3.png,mask-3.png,h,1,0.28570850007236004,h,1,0.03986850008368492,0.046887399861589074,0.046509600011631846,0.09793539997190237,0.09967959998175502,0.7419127998873591
RSVPLG03,sg,20251021-142526,1.0.1,20251020-085245,708,Experiment,Both,1,Automatic,main,49,20251021-143010,global,local,300,H,S,E,E,H-E.png,E-S.png,hH,sS,mask-3.png,mask-2.png,h,1,0.9590952000580728,s,1,0.04378760000690818,0.047707000048831105,0.047489200020208955,0.09904720005579293,0.09934249985963106,0.2970801000483334
RSVPLG03,sg,20251021-142526,1.0.1,20251020-085245,708,Experiment,Both,1,Automatic,main,50,20251021-143014,local,local,750,H,H,A,A,A-H.png,A-H.png,hH,hH,mask-1.png,mask-2.png,h,1,0.4967441000044346,h,1,0.036219900008291006,0.045928599778562784,0.0476498999632895,0.09812299977056682,0.09970349981449544,0.7415903999935836
RSVPLG03,sg,20251021-142526,1.0.1,20251020-085245,708,Experiment,Both,1,Automatic,main,51,20251021-143028,global,local,300,H,H,A,A,H-A.png,A-H.png,hH,hH,mask-4.png,mask-3.png,s,0,0.4399561998434365,h,1,0.012320100096985698,0.04650849988684058,0.04655749979428947,0.09952779999002814,0.09856849978677928,0.2976832001004368
RSVPLG03,sg,20251021-142526,1.0.1,20251020-085245,708,Experiment,Both,1,Automatic,main,52,20251021-143032,global,global,300,H,S,E,E,H-E.png,S-E.png,hH,sS,mask-4.png,mask-4.png,h,1,0.41638159984722733,s,1,0.05911569995805621,0.045502299908548594,0.045707000186666846,0.09875310002826154,0.09679550002329051,0.2978397998958826
RSVPLG03,sg,20251021-142526,1.0.1,20251020-085245,708,Experiment,Both,1,Automatic,main,53,20251021-143037,global,global,750,S,S,E,A,S-E.png,S-A.png,sS,sS,mask-4.png,mask-3.png,s,1,0.35174309997819364,s,1,0.03616149979643524,0.04851850005798042,0.04562760004773736,0.09956080000847578,0.09864280000329018,0.7446771000977606
RSVPLG03,sg,20251021-142526,1.0.1,20251020-085245,708,Experiment,Both,1,Automatic,main,54,20251021-143041,local,global,300,S,H,A,A,A-S.png,H-A.png,sS,hH,mask-3.png,mask-3.png,s,1,0.8244556998834014,h,1,0.5583595999050885,0.04551530000753701,0.04745319997891784,0.09852270013652742,0.10047159995883703,0.2958649001084268
RSVPLG03,sg,20251021-142526,1.0.1,20251020-085245,708,Experiment,Both,1,Automatic,main,55,20251021-143046,local,global,300,S,S,A,E,A-S.png,S-E.png,sS,sS,mask-4.png,mask-1.png,s,1,0.4946580999530852,h,0,0.012989599956199527,0.04663360002450645,0.04550200002267957,0.0980895000975579,0.09758300008252263,0.29749220004305243
RSVPLG03,sg,20251021-142526,1.0.1,20251020-085245,708,Experiment,Both,1,Automatic,main,56,20251021-143050,local,local,300,S,S,E,A,E-S.png,A-S.png,sS,sS,mask-3.png,mask-1.png,s,1,0.4592683999799192,s,1,0.05813179980032146,0.04732639994472265,0.04752689995802939,0.09813779988326132,0.0995386999566108,0.2965824999846518
RSVPLG03,sg,20251021-142526,1.0.1,20251020-085245,708,Experiment,Both,1,Automatic,main,57,20251021-143055,global,global,300,H,S,A,E,H-A.png,S-E.png,hH,sS,mask-2.png,mask-2.png,h,1,0.42073450004681945,s,1,0.006510599981993437,0.047662399942055345,0.04630189994350076,0.09883989999070764,0.10016139992512763,0.29777800012379885
RSVPLG03,sg,20251021-142526,1.0.1,20251020-085245,708,Experiment,Both,1,Automatic,main,58,20251021-143059,global,global,300,H,H,A,E,H-A.png,H-E.png,hH,hH,mask-3.png,mask-3.png,s,0,0.703806099947542,s,0,0.05502810003235936,0.04575309995561838,0.046699400059878826,0.0979590998031199,0.09988539991900325,0.29666009987704456
RSVPLG03,sg,20251021-142526,1.0.1,20251020-085245,708,Experiment,Both,1,Automatic,main,59,20251021-143103,global,local,750,S,H,A,E,S-A.png,E-H.png,sS,hH,mask-4.png,mask-2.png,s,1,0.8669747000094503,h,1,0.8774983999319375,0.04851200012490153,0.047968899831175804,0.10061109997332096,0.09995760000310838,0.7438859001267701
RSVPLG03,sg,20251021-142526,1.0.1,20251020-085245,708,Experiment,Both,1,Automatic,main,60,20251021-143109,local,global,300,S,S,A,E,A-S.png,S-E.png,sS,sS,mask-4.png,mask-2.png,s,1,0.4806182999163866,h,0,0.0354608001653105,0.045515500009059906,0.046440300066024065,0.09862609999254346,0.10019250004552305,0.29592259996570647
RSVPLG03,sg,20251021-142526,1.0.1,20251020-085245,708,Experiment,Both,1,Automatic,main,61,20251021-143113,global,local,300,H,H,A,A,H-A.png,A-H.png,hH,hH,mask-3.png,mask-4.png,h,1,1.5829870998859406,s,0,0.012545099947601557,0.04757539997808635,0.04673750000074506,0.0986237998586148,0.09887140011414886,0.2973697998095304
RSVPLG03,sg,20251021-142526,1.0.1,20251020-085245,708,Experiment,Both,1,Automatic,main,62,20251021-143119,global,global,750,S,S,E,A,S-E.png,S-A.png,sS,sS,mask-2.png,mask-3.png,s,1,0.4530410000588745,s,1,0.05673089995980263,0.047081099823117256,0.046731799840927124,0.09808519994840026,0.09981819987297058,0.7423384999856353
RSVPLG03,sg,20251021-142526,1.0.1,20251020-085245,708,Experiment,Both,1,Automatic,main,63,20251021-143123,local,global,300,H,H,E,E,E-H.png,H-E.png,hH,hH,mask-1.png,mask-1.png,s,0,0.625420699827373,h,1,0.5535257998853922,0.044749199878424406,0.04655819991603494,0.09762749983929098,0.09794089989736676,0.29684560000896454
RSVPLG03,sg,20251021-142526,1.0.1,20251020-085245,708,Experiment,Both,1,Automatic,main,64,20251021-143128,local,global,750,S,H,A,A,A-S.png,H-A.png,sS,hH,mask-1.png,mask-3.png,h,0,0.5671357000246644,h,1,0.05702829989604652,0.04780999990180135,0.04743060003966093,0.10006389999762177,0.09852660004980862,0.7437535999342799
RSVPLG03,sg,20251021-142526,1.0.1,20251020-085245,708,Experiment,Both,1,Automatic,main,65,20251021-143133,global,local,300,H,H,A,A,H-A.png,A-H.png,hH,hH,mask-1.png,mask-2.png,s,0,0.6264485002029687,s,0,0.0886556999757886,0.045687900157645345,0.0465873999055475,0.09788710018619895,0.09854709985665977,0.29698220011778176
RSVPLG03,sg,20251021-142526,1.0.1,20251020-085245,708,Experiment,Both,1,Automatic,main,66,20251021-143137,local,global,750,S,H,E,E,E-S.png,H-E.png,sS,hH,mask-1.png,mask-2.png,s,1,0.6637085000984371,h,1,0.5236804001033306,0.04568049986846745,0.04570630006492138,0.09787090006284416,0.09762790007516742,0.7429555999115109
RSVPLG03,sg,20251021-142526,1.0.1,20251020-085245,708,Experiment,Both,1,Automatic,main,67,20251021-143142,global,global,300,S,S,A,E,S-A.png,S-E.png,sS,sS,mask-1.png,mask-1.png,s,1,1.0248282998800278,s,1,0.05828380002640188,0.045671199914067984,0.046709799906238914,0.0978305998723954,0.09941159980371594,0.29582270001992583
RSVPLG03,sg,20251021-142526,1.0.1,20251020-085245,708,Experiment,Both,1,Automatic,main,68,20251021-143147,local,global,750,H,H,A,A,A-H.png,H-A.png,hH,hH,mask-1.png,mask-4.png,h,1,0.3947217999957502,h,1,0.182342299958691,0.04571349988691509,0.047559000086039305,0.09792470000684261,0.09973439993336797,0.7427759999409318
RSVPLG03,sg,20251021-142526,1.0.1,20251020-085245,708,Experiment,Both,1,Automatic,main,69,20251021-143152,global,global,300,S,S,A,E,S-A.png,S-E.png,sS,sS,mask-3.png,mask-3.png,s,1,0.5204338000621647,s,1,0.11978890001773834,0.04866859992034733,0.047672499902546406,0.09986709989607334,0.09984369995072484,0.2974849999882281
RSVPLG03,sg,20251021-142526,1.0.1,20251020-085245,708,Experiment,Both,1,Automatic,main,70,20251021-143156,local,local,300,H,H,A,E,A-H.png,E-H.png,hH,hH,mask-4.png,mask-3.png,h,1,0.6710411000531167,h,1,0.10305290017277002,0.048531000036746264,0.04739359999075532,0.09975489997304976,0.10045929998159409,0.29727800004184246
RSVPLG03,sg,20251021-142526,1.0.1,20251020-085245,708,Experiment,Both,1,Automatic,main,71,20251021-143200,global,global,750,H,H,A,E,H-A.png,H-E.png,hH,hH,mask-1.png,mask-4.png,h,1,0.35558449989184737,h,1,0.08208269998431206,0.04554220009595156,0.04752300004474819,0.09856029995717108,0.09953800006769598,0.7424343999009579
RSVPLG03,sg,20251021-142526,1.0.1,20251020-085245,708,Experiment,Both,1,Automatic,main,72,20251021-143205,global,global,300,H,H,A,A,H-A.png,H-A.png,hH,hH,mask-2.png,mask-1.png,h,1,0.30653170007281005,h,1,0.08234430011361837,0.047511199954897165,0.04672220000065863,0.09990039980039,0.09942100010812283,0.29852919979020953
RSVPLG03,sg,20251021-142526,1.0.1,20251020-085245,708,Experiment,Both,1,Automatic,main,73,20251021-143209,local,global,300,H,H,A,E,A-H.png,H-E.png,hH,hH,mask-4.png,mask-3.png,h,1,0.2973416999448091,h,1,0.08133279997855425,0.045705500058829784,0.04676080006174743,0.09787290007807314,0.09900350007228553,0.2963922000490129
RSVPLG03,sg,20251021-142526,1.0.1,20251020-085245,708,Experiment,Both,1,Automatic,main,74,20251021-143213,local,local,300,H,S,A,E,A-H.png,E-S.png,hH,sS,mask-4.png,mask-3.png,h,1,0.5808755999896675,s,1,0.19655329990200698,0.046570499893277884,0.04750759992748499,0.09858609992079437,0.09955379995517433,0.2971061000134796
RSVPLG03,sg,20251021-142526,1.0.1,20251020-085245,708,Experiment,Both,1,Automatic,main,75,20251021-143217,global,local,750,S,S,E,E,S-E.png,E-S.png,sS,sS,mask-3.png,mask-3.png,s,1,0.322873700177297,s,1,0.12128089996986091,0.046100599924102426,0.04750160011462867,0.09937780001200736,0.09936759993433952,0.7430097998585552
RSVPLG03,sg,20251021-142526,1.0.1,20251020-085245,708,Experiment,Both,1,Automatic,main,76,20251021-143228,global,global,300,S,S,A,E,S-A.png,S-E.png,sS,sS,mask-3.png,mask-4.png,s,1,0.3036393001675606,s,1,0.04830830008722842,0.048429999966174364,0.04752679984085262,0.09976380015723407,0.0984794998075813,0.29804410017095506
RSVPLG03,sg,20251021-142526,1.0.1,20251020-085245,708,Experiment,Both,1,Automatic,main,77,20251021-143232,local,local,750,H,S,A,A,A-H.png,A-S.png,hH,sS,mask-1.png,mask-1.png,h,1,2.1670329000335187,h,0,0.05627020006068051,0.04630769998766482,0.04671499994583428,0.09860790008679032,0.09874200006015599,0.7424010999966413
RSVPLG03,sg,20251021-142526,1.0.1,20251020-085245,708,Experiment,Both,1,Automatic,main,78,20251021-143239,local,local,300,H,H,E,A,E-H.png,A-H.png,hH,hH,mask-3.png,mask-1.png,h,1,0.6736767999827862,h,1,0.044315499952062964,0.04747759993188083,0.04737880011089146,0.09869199991226196,0.0990947000682354,0.29673750000074506
RSVPLG03,sg,20251021-142526,1.0.1,20251020-085245,708,Experiment,Both,1,Automatic,main,79,20251021-143243,global,local,750,S,S,E,A,S-E.png,A-S.png,sS,sS,mask-3.png,mask-1.png,s,1,0.49761990015394986,h,0,0.0317437001504004,0.04645240004174411,0.04769599996507168,0.09862700011581182,0.09806440002284944,0.7425868001300842
RSVPLG03,sg,20251021-142526,1.0.1,20251020-085245,708,Experiment,Both,1,Automatic,main,80,20251021-143248,local,local,300,S,S,A,E,A-S.png,E-S.png,sS,sS,mask-3.png,mask-1.png,s,1,0.803006500005722,h,0,0.01062040007673204,0.04551490000449121,0.04559429991059005,0.09735390008427203,0.09867049986496568,0.2972870001103729
RSVPLG03,sg,20251021-142526,1.0.1,20251020-085245,708,Experiment,Both,1,Automatic,main,81,20251021-143252,global,local,750,H,S,A,A,H-A.png,A-S.png,hH,sS,mask-3.png,mask-3.png,h,1,0.40455209999345243,s,1,0.041183199966326356,0.04746649996377528,0.047866599867120385,0.09848239994607866,0.10071769985370338,0.7419541000854224
RSVPLG03,sg,20251021-142526,1.0.1,20251020-085245,708,Experiment,Both,1,Automatic,main,82,20251021-143257,local,global,750,S,S,E,E,E-S.png,S-E.png,sS,sS,mask-2.png,mask-2.png,s,1,0.37837260006926954,s,1,0.069183100014925,0.04776170011609793,0.045790000120177865,0.09997069998644292,0.09985770005732775,0.7439844000618905
RSVPLG03,sg,20251021-142526,1.0.1,20251020-085245,708,Experiment,Both,1,Automatic,main,83,20251021-143301,global,local,750,S,S,E,E,S-E.png,E-S.png,sS,sS,mask-2.png,mask-1.png,s,1,0.38132299995049834,s,1,0.06080120010301471,0.04749709996394813,0.04583940003067255,0.099558399990201,0.09882429987192154,0.7436355999670923
RSVPLG03,sg,20251021-142526,1.0.1,20251020-085245,708,Experiment,Both,1,Automatic,main,84,20251021-143306,local,global,300,S,S,E,A,E-S.png,S-A.png,sS,sS,mask-4.png,mask-4.png,s,1,0.2589386999607086,s,1,0.051895600045099854,0.04729890008457005,0.04747170000337064,0.09821119997650385,0.09945820015855134,0.29651000001467764
RSVPLG03,sg,20251021-142526,1.0.1,20251020-085245,708,Experiment,Both,1,Automatic,main,85,20251021-143310,local,local,300,H,S,E,A,E-H.png,A-S.png,hH,sS,mask-3.png,mask-2.png,s,0,0.2923301998525858,h,0,0.005678699817508459,0.04751210007816553,0.04636369994841516,0.09968429990112782,0.09861809993162751,0.2969011999666691
RSVPLG03,sg,20251021-142526,1.0.1,20251020-085245,708,Experiment,Both,1,Automatic,main,86,20251021-143314,local,global,750,H,H,A,E,A-H.png,H-E.png,hH,hH,mask-4.png,mask-3.png,s,0,1.0328544001094997,h,1,0.6156252000946552,0.0464393999427557,0.04734749998897314,0.09860789985395968,0.10038409987464547,0.7415442999918014
RSVPLG03,sg,20251021-142526,1.0.1,20251020-085245,708,Experiment,Both,1,Automatic,main,87,20251021-143319,global,local,750,H,S,A,E,H-A.png,E-S.png,hH,sS,mask-1.png,mask-2.png,h,1,0.3009466000366956,s,1,0.12220979994162917,0.04763230006210506,0.04677610006183386,0.09988970006816089,0.09885129984468222,0.7444611000828445
RSVPLG03,sg,20251021-142526,1.0.1,20251020-085245,708,Experiment,Both,1,Automatic,main,88,20251021-143324,global,local,300,S,H,A,E,S-A.png,E-H.png,sS,hH,mask-3.png,mask-1.png,s,1,0.43230440001934767,h,1,1.1365598998963833,0.045696299988776445,0.047499199863523245,0.09786650002934039,0.09969519986771047,0.2963062000926584
RSVPLG03,sg,20251021-142526,1.0.1,20251020-085245,708,Experiment,Both,1,Automatic,main,89,20251021-143329,global,global,300,H,S,E,E,H-E.png,S-E.png,hH,sS,mask-2.png,mask-4.png,h,1,0.2894194999244064,s,1,0.13467380008660257,0.04766810010187328,0.04608200001530349,0.09891420020721853,0.09933869983069599,0.297248300164938
RSVPLG03,sg,20251021-142526,1.0.1,20251020-085245,708,Experiment,Both,1,Automatic,main,90,20251021-143333,local,local,300,H,S,E,E,E-H.png,E-S.png,hH,sS,mask-4.png,mask-4.png,h,1,1.1189885998610407,h,0,0.050729900132864714,0.045779299922287464,0.04655960015952587,0.09797180001623929,0.0976543000433594,0.2970520998351276
RSVPLG03,sg,20251021-142526,1.0.1,20251020-085245,708,Experiment,Both,1,Automatic,main,91,20251021-143338,global,global,300,S,S,E,A,S-E.png,S-A.png,sS,sS,mask-3.png,mask-3.png,s,1,0.3299532001838088,s,1,0.034691400127485394,0.04864900000393391,0.04668499995023012,0.0992803000845015,0.09885569987818599,0.297505300026387
RSVPLG03,sg,20251021-142526,1.0.1,20251020-085245,708,Experiment,Both,1,Automatic,main,92,20251021-143342,local,local,300,H,H,E,E,E-H.png,E-H.png,hH,hH,mask-3.png,mask-2.png,h,1,0.47893709992058575,h,1,0.07496070000343025,0.04669920005835593,0.04770190012641251,0.09969910001382232,0.09884839993901551,0.29756870004348457
RSVPLG03,sg,20251021-142526,1.0.1,20251020-085245,708,Experiment,Both,1,Automatic,main,93,20251021-143346,global,global,300,S,S,E,A,S-E.png,S-A.png,sS,sS,mask-3.png,mask-4.png,s,1,0.24245369993150234,s,1,0.060525899985805154,0.04477429995313287,0.04756080009974539,0.09792289999313653,0.09966609999537468,0.2953386998269707
RSVPLG03,sg,20251021-142526,1.0.1,20251020-085245,708,Experiment,Both,1,Automatic,main,94,20251021-143350,local,global,300,S,H,A,A,A-S.png,H-A.png,sS,hH,mask-1.png,mask-3.png,s,1,0.5364398001693189,h,1,0.05422539985738695,0.045499099884182215,0.0475527998059988,0.09731759992428124,0.09970049979165196,0.2956630000844598
RSVPLG03,sg,20251021-142526,1.0.1,20251020-085245,708,Experiment,Both,1,Automatic,main,95,20251021-143354,local,global,300,S,H,E,A,E-S.png,H-A.png,sS,hH,mask-4.png,mask-3.png,s,1,0.30547269992530346,h,1,0.005051200045272708,0.04573990008793771,0.047694200184196234,0.09798020008020103,0.09925990016199648,0.29665479995310307
RSVPLG03,sg,20251021-142526,1.0.1,20251020-085245,708,Experiment,Both,1,Automatic,main,96,20251021-143358,local,local,750,S,S,E,A,E-S.png,A-S.png,sS,sS,mask-1.png,mask-1.png,h,0,0.8647350000683218,h,0,0.041339399991557,0.04587889998219907,0.04707550001330674,0.09874149993993342,0.10017260001040995,0.741405799984932
RSVPLG03,sg,20251021-142526,1.0.1,20251020-085245,708,Experiment,Both,1,Automatic,main,97,20251021-143403,local,local,750,S,H,E,A,E-S.png,A-H.png,sS,hH,mask-4.png,mask-4.png,s,1,0.21157779986970127,h,1,0.33966409997083247,0.04766639997251332,0.04770960006862879,0.09976530005224049,0.09987960010766983,0.7437161998823285
RSVPLG03,sg,20251021-142526,1.0.1,20251020-085245,708,Experiment,Both,1,Automatic,main,98,20251021-143408,local,global,300,H,H,A,E,A-H.png,H-E.png,hH,hH,mask-4.png,mask-4.png,h,1,0.3075685000512749,h,1,0.03449839982204139,0.047108500031754375,0.04817079985514283,0.09859380009584129,0.09979559993371367,0.295707100071013
RSVPLG03,sg,20251021-142526,1.0.1,20251020-085245,708,Experiment,Both,1,Automatic,main,99,20251021-143412,local,local,300,S,S,A,A,A-S.png,A-S.png,sS,sS,mask-2.png,mask-4.png,h,0,0.4824760998599231,h,0,0.04355780011974275,0.046530299820005894,0.04549870011396706,0.09802399994805455,0.09818620001897216,0.297192599857226
RSVPLG03,sg,20251021-142526,1.0.1,20251020-085245,708,Experiment,Both,1,Automatic,main,100,20251021-143416,local,global,750,S,H,A,E,A-S.png,H-E.png,sS,hH,mask-3.png,mask-1.png,h,0,0.4206634000875056,h,1,0.05649729981087148,0.04718350013718009,0.0471778002101928,0.09958270005881786,0.09839950012974441,0.7429005999583751
RSVPLG03,sg,20251021-142526,1.0.1,20251020-085245,708,Experiment,Both,1,Automatic,main,101,20251021-143422,local,global,300,H,S,E,A,E-H.png,S-A.png,hH,sS,mask-1.png,mask-1.png,s,0,0.5685596000403166,h,0,0.02436970011331141,0.04625610006041825,0.04776529991067946,0.09968129987828434,0.10072009987197816,0.2968542000744492
RSVPLG03,sg,20251021-142526,1.0.1,20251020-085245,708,Experiment,Both,1,Automatic,main,102,20251021-143426,local,local,300,H,S,E,E,E-H.png,E-S.png,hH,sS,mask-4.png,mask-1.png,h,1,0.5709265000186861,h,0,0.02499009994789958,0.04615059983916581,0.04650419997051358,0.09975209995172918,0.09804359986446798,0.2976281000301242
RSVPLG03,sg,20251021-142526,1.0.1,20251020-085245,708,Experiment,Both,1,Automatic,main,103,20251021-143431,local,local,750,H,S,A,E,A-H.png,E-S.png,hH,sS,mask-4.png,mask-2.png,h,1,0.5770573001354933,s,1,0.03253350011073053,0.04728209995664656,0.04771850001998246,0.09936099988408387,0.09974940004758537,0.7424295998644084
RSVPLG03,sg,20251021-142526,1.0.1,20251020-085245,708,Experiment,Both,1,Automatic,main,104,20251021-143435,global,local,300,S,S,A,E,S-A.png,E-S.png,sS,sS,mask-1.png,mask-4.png,s,1,0.553475100081414,h,0,0.7116092999931425,0.0466558001935482,0.04804759984835982,0.10043590003624558,0.10078629991039634,0.29654590017162263
RSVPLG03,sg,20251021-142526,1.0.1,20251020-085245,708,Experiment,Both,1,Automatic,main,105,20251021-143440,local,local,750,S,S,A,E,A-S.png,E-S.png,sS,sS,mask-2.png,mask-4.png,s,1,1.259039199911058,s,1,0.02055979985743761,0.047696900088340044,0.04761829995550215,0.10017050011083484,0.09956880006939173,0.7437398999463767
RSVPLG03,sg,20251021-142526,1.0.1,20251020-085245,708,Experiment,Both,1,Automatic,main,106,20251021-143446,global,local,300,H,H,E,E,H-E.png,E-H.png,hH,hH,mask-4.png,mask-4.png,h,1,0.3849482999648899,h,1,0.24972200021147728,0.04623510013334453,0.04756399989128113,0.09786160010844469,0.09910700004547834,0.2966762001160532
RSVPLG03,sg,20251021-142526,1.0.1,20251020-085245,708,Experiment,Both,1,Automatic,main,107,20251021-143450,global,local,750,S,S,A,E,S-A.png,E-S.png,sS,sS,mask-1.png,mask-2.png,s,1,1.1684565998148173,h,0,1.2970475000329316,0.04670660011470318,0.04673999990336597,0.09890049998648465,0.10007749986834824,0.7422422000672668
RSVPLG03,sg,20251021-142526,1.0.1,20251020-085245,708,Experiment,Both,1,Automatic,main,108,20251021-143455,local,local,300,S,H,E,A,E-S.png,A-H.png,sS,hH,mask-1.png,mask-2.png,s,1,1.0443066000007093,h,1,0.006555499974638224,0.04631619993597269,0.045419400092214346,0.10034199990332127,0.09929640009067953,0.29841109993867576
RSVPLG03,sg,20251021-142526,1.0.1,20251020-085245,708,Experiment,Both,1,Automatic,main,109,20251021-143500,global,global,750,H,S,E,A,H-E.png,S-A.png,hH,sS,mask-2.png,mask-4.png,h,1,0.3671059999614954,s,1,0.13172509986907244,0.04770180000923574,0.04660120001062751,0.09990879986435175,0.09874170017428696,0.744622299913317
RSVPLG03,sg,20251021-142526,1.0.1,20251020-085245,708,Experiment,Both,1,Automatic,main,110,20251021-143505,local,global,750,H,S,E,E,E-H.png,S-E.png,hH,sS,mask-4.png,mask-2.png,s,0,0.7060600998811424,s,1,0.059247100027278066,0.04566029994748533,0.04664769978262484,0.09784780000336468,0.09867769991979003,0.7417258000932634
RSVPLG03,sg,20251021-142526,1.0.1,20251020-085245,708,Experiment,Both,1,Automatic,main,111,20251021-143509,local,global,750,S,H,E,A,E-S.png,H-A.png,sS,hH,mask-4.png,mask-2.png,s,1,0.43296119989827275,h,1,0.0035382998175919056,0.04671599995344877,0.046859600115567446,0.09812620002776384,0.09875260014086962,0.7419708999805152
RSVPLG03,sg,20251021-142526,1.0.1,20251020-085245,708,Experiment,Both,1,Automatic,main,112,20251021-143514,global,global,750,S,S,A,A,S-A.png,S-A.png,sS,sS,mask-1.png,mask-4.png,s,1,0.28691270016133785,s,1,0.03532429994083941,0.04566109995357692,0.04671120014972985,0.09784470009617507,0.09985350002534688,0.7418712999206036
RSVPLG03,sg,20251021-142526,1.0.1,20251020-085245,708,Experiment,Both,1,Automatic,main,113,20251021-143518,local,global,750,S,S,A,A,A-S.png,S-A.png,sS,sS,mask-4.png,mask-3.png,h,0,0.3329708001110703,s,1,0.20272359997034073,0.045665600104257464,0.045857799937948585,0.09786740015260875,0.0976823999080807,0.743259800132364
RSVPLG03,sg,20251021-142526,1.0.1,20251020-085245,708,Experiment,Both,1,Automatic,main,114,20251021-143523,global,local,300,H,S,E,A,H-E.png,A-S.png,hH,sS,mask-2.png,mask-2.png,h,1,0.5053519001230597,h,0,0.032956600189208984,0.0474907997995615,0.04653679998591542,0.0986676998436451,0.09952719998545945,0.2970735998824239
RSVPLG03,sg,20251021-142526,1.0.1,20251020-085245,708,Experiment,Both,1,Automatic,main,115,20251021-143527,global,global,300,H,H,E,A,H-E.png,H-A.png,hH,hH,mask-4.png,mask-3.png,h,1,0.39163350011222064,s,0,0.010232999920845032,0.046737900003790855,0.046522799879312515,0.09854259993880987,0.09977489989250898,0.29675900004804134
RSVPLG03,sg,20251021-142526,1.0.1,20251020-085245,708,Experiment,Both,1,Automatic,main,116,20251021-143531,global,global,300,H,H,A,E,H-A.png,H-E.png,hH,hH,mask-4.png,mask-2.png,h,1,0.32196259987540543,h,1,0.02693150006234646,0.04769450007006526,0.045633999863639474,0.09798670001327991,0.09830589988268912,0.29759810003452003
RSVPLG03,sg,20251021-142526,1.0.1,20251020-085245,708,Experiment,Both,1,Automatic,main,117,20251021-143535,global,global,300,S,H,A,E,S-A.png,H-E.png,sS,hH,mask-3.png,mask-1.png,s,1,0.4638253999873996,h,1,0.08524750010110438,0.045317000010982156,0.04651149990968406,0.0967544000595808,0.098299500066787,0.29614800005219877
RSVPLG03,sg,20251021-142526,1.0.1,20251020-085245,708,Experiment,Both,1,Automatic,main,118,20251021-143540,global,local,750,S,S,A,A,S-A.png,A-S.png,sS,sS,mask-1.png,mask-1.png,s,1,0.613169799791649,h,0,0.05247069988399744,0.04674399993382394,0.048671700060367584,0.09883649996481836,0.10092090000398457,0.7422312998678535
RSVPLG03,sg,20251021-142526,1.0.1,20251020-085245,708,Experiment,Both,1,Automatic,main,119,20251021-143544,local,local,300,H,S,A,A,A-H.png,A-S.png,hH,sS,mask-1.png,mask-2.png,h,1,0.3526310999877751,s,1,0.0017077999655157328,0.04756109998561442,0.04654460004530847,0.10056949988938868,0.09928410011343658,0.2987835998646915
RSVPLG03,sg,20251021-142526,1.0.1,20251020-085245,708,Experiment,Both,1,Automatic,main,120,20251021-143548,local,global,300,H,H,A,E,A-H.png,H-E.png,hH,hH,mask-2.png,mask-1.png,h,1,0.3692495001014322,h,1,0.02887410018593073,0.046689199982210994,0.0468044001609087,0.09798590000718832,0.09999860008247197,0.29605180001817644
RSVPLG03,sg,20251021-142526,1.0.1,20251020-085245,708,Experiment,Both,1,Automatic,main,121,20251021-143553,local,local,750,S,S,E,A,E-S.png,A-S.png,sS,sS,mask-4.png,mask-3.png,h,0,0.9961926999967545,s,1,0.09651689999736845,0.04706830019131303,0.04563339985907078,0.10032300022430718,0.09750459995120764,0.744166900170967
RSVPLG03,sg,20251021-142526,1.0.1,20251020-085245,708,Experiment,Both,1,Automatic,main,122,20251021-143558,global,global,750,S,H,E,A,S-E.png,H-A.png,sS,hH,mask-2.png,mask-4.png,s,1,0.35470380005426705,h,1,0.02595339994877577,0.04683950007893145,0.04572800011374056,0.09846289991401136,0.09734940016642213,0.7442250999156386
RSVPLG03,sg,20251021-142526,1.0.1,20251020-085245,708,Experiment,Both,1,Automatic,main,123,20251021-143602,global,local,300,H,S,E,E,H-E.png,E-S.png,hH,sS,mask-3.png,mask-2.png,h,1,0.43126179999671876,h,0,0.03821810008957982,0.04750700015574694,0.04762209998443723,0.09934990014880896,0.09980820002965629,0.29750260012224317
RSVPLG03,sg,20251021-142526,1.0.1,20251020-085245,708,Experiment,Both,1,Automatic,main,124,20251021-143606,global,local,750,H,S,E,A,H-E.png,A-S.png,hH,sS,mask-4.png,mask-3.png,h,1,0.5437375998590142,s,1,0.1532866999041289,0.04666940006427467,0.04675199999473989,0.09982400014996529,0.10000479989685118,0.7430923001375049
RSVPLG03,sg,20251021-142526,1.0.1,20251020-085245,708,Experiment,Both,1,Automatic,main,125,20251021-143611,local,local,750,H,H,A,E,A-H.png,E-H.png,hH,hH,mask-4.png,mask-1.png,h,1,0.6273903001565486,h,1,0.07219329988583922,0.04750069999136031,0.04693719977512956,0.09878140012733638,0.09900619997642934,0.7432096002157778
RSVPLG03,sg,20251021-143712,1.0.1,20251020-085245,708,Experiment,Both,1,Automatic,warmup,1,20251021-143740,global,local,750,H,S,E,E,H-E.png,E-S.png,hH,sS,mask-3.png,mask-2.png,h,1,0.9444806999526918,s,1,1.0891352000180632,0.03882140014320612,0.047671500127762556,0.09157340019010007,0.09992680000141263,0.740215600002557
RSVPLG03,sg,20251021-143712,1.0.1,20251020-085245,708,Experiment,Both,1,Automatic,warmup,2,20251021-143745,global,global,750,H,S,E,A,H-E.png,S-A.png,hH,sS,mask-2.png,mask-1.png,h,1,0.36354959988966584,s,1,0.8348457000683993,0.04765109997242689,0.046948400093242526,0.1006961998064071,0.09997950005345047,0.7484704998787493
RSVPLG03,sg,20251021-143712,1.0.1,20251020-085245,708,Experiment,Both,1,Automatic,warmup,3,20251021-143750,local,local,300,S,H,E,E,E-S.png,E-H.png,sS,hH,mask-4.png,mask-2.png,s,1,0.618387000169605,s,0,0.03749090014025569,0.047660999931395054,0.04686790006235242,0.09985999995842576,0.09895789995789528,0.30049749999307096
RSVPLG03,sg,20251021-143712,1.0.1,20251020-085245,708,Experiment,Both,1,Automatic,warmup,4,20251021-143755,local,global,750,S,H,E,A,E-S.png,H-A.png,sS,hH,mask-1.png,mask-1.png,s,1,0.23886459995992482,h,1,0.16340290009975433,0.048939399886876345,0.048728200141340494,0.10009369999170303,0.10075119999237359,0.7478861999697983
RSVPLG03,sg,20251021-143712,1.0.1,20251020-085245,708,Experiment,Both,1,Automatic,warmup,5,20251021-143759,global,local,300,S,H,E,A,S-E.png,A-H.png,sS,hH,mask-3.png,mask-3.png,h,0,0.31121050007641315,s,0,0.4557541999965906,0.04767860006541014,0.047510100062936544,0.09880620008334517,0.09960910002700984,0.29920400003902614
RSVPLG03,sg,20251021-143712,1.0.1,20251020-085245,708,Experiment,Both,1,Automatic,main,6,20251021-143803,global,global,750,S,S,E,A,S-E.png,S-A.png,sS,sS,mask-1.png,mask-4.png,s,1,0.3355054999701679,s,1,0.037166699999943376,0.04764459980651736,0.048568000085651875,0.09915279992856085,0.099572200095281,0.7477241999004036
RSVPLG03,sg,20251021-143712,1.0.1,20251020-085245,708,Experiment,Both,1,Automatic,main,7,20251021-143808,global,local,300,S,S,A,A,S-A.png,A-S.png,sS,sS,mask-3.png,mask-4.png,s,1,0.7081460000481457,h,0,0.02001810004003346,0.048133299918845296,0.047462299931794405,0.1014380999840796,0.10037899995222688,0.29986610007472336
RSVPLG03,sg,20251021-143712,1.0.1,20251020-085245,708,Experiment,Both,1,Automatic,main,8,20251021-143812,local,local,300,S,H,E,E,E-S.png,E-H.png,sS,hH,mask-4.png,mask-1.png,s,1,0.5693222000263631,h,1,1.367405999917537,0.04752410016953945,0.04733540001325309,0.09978869999758899,0.10018240008503199,0.2997087000403553
RSVPLG03,sg,20251021-143712,1.0.1,20251020-085245,708,Experiment,Both,1,Automatic,main,9,20251021-143818,global,global,750,H,S,E,A,H-E.png,S-A.png,hH,sS,mask-4.png,mask-2.png,h,1,0.8693278999999166,s,1,0.06835580011829734,0.04779649991542101,0.04753390001133084,0.10084359999746084,0.09953450015746057,0.7497256998904049
RSVPLG03,sg,20251021-143712,1.0.1,20251020-085245,708,Experiment,Both,1,Automatic,main,10,20251021-143823,global,global,750,S,S,A,A,S-A.png,S-A.png,sS,sS,mask-2.png,mask-1.png,s,1,1.2148812001105398,s,1,0.059407500084489584,0.04702210007235408,0.04739790013991296,0.09813700011000037,0.10065000015310943,0.7478966000489891
RSVPLG03,sg,20251021-143712,1.0.1,20251020-085245,708,Experiment,Both,1,Automatic,main,11,20251021-143829,local,local,300,S,H,E,A,E-S.png,A-H.png,sS,hH,mask-4.png,mask-1.png,s,1,0.9022469001356512,h,1,0.10931910015642643,0.04737150017172098,0.04841769998893142,0.09907310013659298,0.10046550002880394,0.298270900035277
RSVPLG03,sg,20251021-143712,1.0.1,20251020-085245,708,Experiment,Both,1,Automatic,main,12,20251021-143833,global,global,300,S,S,E,A,S-E.png,S-A.png,sS,sS,mask-4.png,mask-1.png,s,1,0.7805721999611706,s,1,0.040784900076687336,0.048509599873796105,0.04860390000976622,0.10052719991654158,0.10160940000787377,0.2989878999069333
RSVPLG03,sg,20251021-143712,1.0.1,20251020-085245,708,Experiment,Both,1,Automatic,main,13,20251021-143838,local,local,300,S,S,E,A,E-S.png,A-S.png,sS,sS,mask-1.png,mask-1.png,s,1,0.5347903000656515,h,0,0.22215460008010268,0.04891670006327331,0.046988600166514516,0.09912910009734333,0.09985710005275905,0.29991369997151196
RSVPLG03,sg,20251021-143712,1.0.1,20251020-085245,708,Experiment,Both,1,Automatic,main,14,20251021-143842,global,local,750,H,H,E,A,H-E.png,A-H.png,hH,hH,mask-3.png,mask-2.png,h,1,0.7885038000531495,h,1,0.04304690007120371,0.04739459999836981,0.047508300049230456,0.09984880010597408,0.09950409992597997,0.7490286000538617
RSVPLG03,sg,20251021-143712,1.0.1,20251020-085245,708,Experiment,Both,1,Automatic,main,15,20251021-143847,local,global,750,H,H,A,E,A-H.png,H-E.png,hH,hH,mask-1.png,mask-4.png,h,1,0.5772154000587761,h,1,0.08216019999235868,0.04694300005212426,0.04753559990786016,0.09999939985573292,0.10036709997802973,0.7490294000599533
RSVPLG03,sg,20251021-143712,1.0.1,20251020-085245,708,Experiment,Both,1,Automatic,main,16,20251021-143852,local,global,750,S,S,A,E,A-S.png,S-E.png,sS,sS,mask-4.png,mask-1.png,h,0,0.48414820013567805,s,1,0.14852580009028316,0.04755879985168576,0.04873570008203387,0.09881289978511631,0.10097250016406178,0.747372199781239
RSVPLG03,sg,20251021-143712,1.0.1,20251020-085245,708,Experiment,Both,1,Automatic,main,17,20251021-143857,local,local,300,S,S,E,A,E-S.png,A-S.png,sS,sS,mask-4.png,mask-2.png,h,0,0.5785699000116438,h,0,0.0351579999551177,0.04765580012463033,0.04764060000889003,0.09981380007229745,0.09971620002761483,0.29936830000951886
RSVPLG03,sg,20251021-143712,1.0.1,20251020-085245,708,Experiment,Both,1,Automatic,main,18,20251021-143901,global,local,300,H,S,E,A,H-E.png,A-S.png,hH,sS,mask-4.png,mask-4.png,h,1,0.560273100156337,h,0,0.03761250013485551,0.047680600080639124,0.04868529993109405,0.09985819994471967,0.09989349986426532,0.29947010008618236
RSVPLG03,sg,20251021-143712,1.0.1,20251020-085245,708,Experiment,Both,1,Automatic,main,19,20251021-143906,local,global,300,S,H,E,E,E-S.png,H-E.png,sS,hH,mask-1.png,mask-3.png,s,1,0.6300844999495894,h,1,0.6939743000548333,0.046687599970027804,0.04769079992547631,0.09887350001372397,0.09987449995242059,0.2993610999546945
RSVPLG03,sg,20251021-143712,1.0.1,20251020-085245,708,Experiment,Both,1,Automatic,main,20,20251021-143911,local,global,300,H,H,E,A,E-H.png,H-A.png,hH,hH,mask-1.png,mask-3.png,s,0,1.054675499908626,h,1,0.5244177000131458,0.047444399911910295,0.04642300005070865,0.10027589998207986,0.0994293000549078,0.3004451999440789
RSVPLG03,sg,20251021-143712,1.0.1,20251020-085245,708,Experiment,Both,1,Automatic,main,21,20251021-143916,global,local,750,H,S,E,A,H-E.png,A-S.png,hH,sS,mask-4.png,mask-2.png,h,1,0.4453732999972999,h,0,0.05065049999393523,0.045701100025326014,0.04856740008108318,0.09873139997944236,0.09959109988994896,0.7475382999982685
RSVPLG03,sg,20251021-143712,1.0.1,20251020-085245,708,Experiment,Both,1,Automatic,main,22,20251021-143920,local,local,750,S,S,A,E,A-S.png,E-S.png,sS,sS,mask-2.png,mask-1.png,s,1,0.6306218998506665,s,1,0.09707899997010827,0.04853420006111264,0.04757649987004697,0.10060070012696087,0.09961529984138906,0.7500341001432389
RSVPLG03,sg,20251021-143712,1.0.1,20251020-085245,708,Experiment,Both,1,Automatic,main,23,20251021-143925,local,local,750,S,S,E,E,E-S.png,E-S.png,sS,sS,mask-4.png,mask-3.png,s,1,0.4588423001114279,s,1,0.07395019987598062,0.04650930012576282,0.04576059989631176,0.10044130007736385,0.0999395998660475,0.7492822001222521
RSVPLG03,sg,20251021-143712,1.0.1,20251020-085245,708,Experiment,Both,1,Automatic,main,24,20251021-143930,global,local,750,S,S,A,E,S-A.png,E-S.png,sS,sS,mask-3.png,mask-1.png,s,1,1.146227799821645,h,0,0.5336955001112074,0.04751250008121133,0.04569400008767843,0.10057610017247498,0.09987120004370809,0.749935399973765
RSVPLG03,sg,20251021-143712,1.0.1,20251020-085245,708,Experiment,Both,1,Automatic,main,25,20251021-143936,local,local,750,S,S,A,A,A-S.png,A-S.png,sS,sS,mask-4.png,mask-3.png,s,1,0.5936146001331508,s,1,0.34011980006471276,0.048966299975290895,0.047699599992483854,0.10002309991978109,0.09978589997626841,0.7500652000308037
RSVPLG03,sg,20251021-143712,1.0.1,20251020-085245,708,Experiment,Both,1,Automatic,main,26,20251021-143943,local,global,300,H,H,E,E,E-H.png,H-E.png,hH,hH,mask-1.png,mask-1.png,h,1,1.3515833001583815,h,1,0.0378668000921607,0.04773969994857907,0.04829259985126555,0.09893819992430508,0.10049310000613332,0.2987118000164628
RSVPLG03,sg,20251021-143712,1.0.1,20251020-085245,708,Experiment,Both,1,Automatic,main,27,20251021-143948,local,local,300,S,S,E,E,E-S.png,E-S.png,sS,sS,mask-2.png,mask-3.png,s,1,0.5409123999997973,s,1,0.10551790008321404,0.04736580001190305,0.048279100097715855,0.10033990000374615,0.10132960020564497,0.2996123998891562
RSVPLG03,sg,20251021-143712,1.0.1,20251020-085245,708,Experiment,Both,1,Automatic,main,28,20251021-143953,local,local,750,S,H,E,A,E-S.png,A-H.png,sS,hH,mask-4.png,mask-4.png,s,1,0.374585899990052,h,1,0.8276066998951137,0.04838170018047094,0.04856840008869767,0.10140420007519424,0.09957390022464097,0.7493847999721766
RSVPLG03,sg,20251021-143712,1.0.1,20251020-085245,708,Experiment,Both,1,Automatic,main,29,20251021-143958,local,global,750,S,S,E,A,E-S.png,S-A.png,sS,sS,mask-1.png,mask-2.png,s,1,0.5740912000183016,h,0,0.156885800184682,0.048682000022381544,0.0476606001611799,0.1008390998467803,0.09906180016696453,0.7497975998558104
RSVPLG03,sg,20251021-143712,1.0.1,20251020-085245,708,Experiment,Both,1,Automatic,main,30,20251021-144003,global,local,300,H,H,A,A,H-A.png,A-H.png,hH,hH,mask-4.png,mask-1.png,s,0,0.6673769000917673,s,0,0.7480752000119537,0.04749429994262755,0.04672669991850853,0.09850089997053146,0.09984309994615614,0.2997433999553323
RSVPLG03,sg,20251021-143712,1.0.1,20251020-085245,708,Experiment,Both,1,Automatic,main,31,20251021-144008,local,local,300,S,H,E,E,E-S.png,E-H.png,sS,hH,mask-4.png,mask-2.png,s,1,1.6706618999596685,h,1,0.0566495000384748,0.04756510001607239,0.04840789991430938,0.09848579997196794,0.10124529991298914,0.2981442001182586
RSVPLG03,sg,20251021-143712,1.0.1,20251020-085245,708,Experiment,Both,1,Automatic,main,32,20251021-144014,global,local,750,H,H,E,E,H-E.png,E-H.png,hH,hH,mask-3.png,mask-2.png,h,1,0.4851145998109132,h,1,0.17072460008785129,0.04852269985713065,0.04672500002197921,0.10034179990179837,0.09936219989322126,0.7495327999349684
RSVPLG03,sg,20251021-143712,1.0.1,20251020-085245,708,Experiment,Both,1,Automatic,main,33,20251021-144018,local,global,750,H,S,E,A,E-H.png,S-A.png,hH,sS,mask-2.png,mask-2.png,h,1,1.1135686000343412,h,0,0.3906955998390913,0.047506599919870496,0.046653399942442775,0.10051629994995892,0.0990205998532474,0.748672700021416
RSVPLG03,sg,20251021-143712,1.0.1,20251020-085245,708,Experiment,Both,1,Automatic,main,34,20251021-144024,global,global,300,S,H,A,A,S-A.png,H-A.png,sS,hH,mask-4.png,mask-2.png,s,1,0.5699727998580784,h,1,0.45512429997324944,0.046659399988129735,0.04751790012232959,0.0990557000041008,0.09847069997340441,0.2992822998203337
RSVPLG03,sg,20251021-143712,1.0.1,20251020-085245,708,Experiment,Both,1,Automatic,main,35,20251021-144029,global,global,300,H,H,E,A,H-E.png,H-A.png,hH,hH,mask-2.png,mask-2.png,h,1,1.2260789999272674,s,0,0.9244096998590976,0.0476885000243783,0.04870519996620715,0.0999127000104636,0.10165320010855794,0.29885259992443025
RSVPLG03,sg,20251021-143712,1.0.1,20251020-085245,708,Experiment,Both,1,Automatic,main,36,20251021-144035,global,global,750,H,H,A,A,H-A.png,H-A.png,hH,hH,mask-4.png,mask-4.png,h,1,0.47053899988532066,h,1,0.03231720020994544,0.0486156998667866,0.04771650000475347,0.10082779987715185,0.09944499982520938,0.7486876000184566
RSVPLG03,sg,20251021-143712,1.0.1,20251020-085245,708,Experiment,Both,1,Automatic,main,37,20251021-144039,local,local,750,S,H,E,E,E-S.png,E-H.png,sS,hH,mask-3.png,mask-4.png,s,1,0.2958252001553774,h,1,0.15279760002158582,0.047687700018286705,0.047610800014808774,0.09980139997787774,0.10071379994042218,0.7479024000931531
RSVPLG03,sg,20251021-143712,1.0.1,20251020-085245,708,Experiment,Both,1,Automatic,main,38,20251021-144044,global,global,750,S,H,A,A,S-A.png,H-A.png,sS,hH,mask-1.png,mask-1.png,s,1,1.1767146000638604,h,1,0.29101420007646084,0.04870739998295903,0.04765169997699559,0.10088640009053051,0.0987213000189513,0.7493278000038117
RSVPLG03,sg,20251021-143712,1.0.1,20251020-085245,708,Experiment,Both,1,Automatic,main,39,20251021-144050,global,local,750,H,S,A,E,H-A.png,E-S.png,hH,sS,mask-4.png,mask-3.png,h,1,0.4443393999245018,s,1,0.10861480003222823,0.04859509994275868,0.04676889977417886,0.09980489988811314,0.09980829991400242,0.749026200035587
RSVPLG03,sg,20251021-143712,1.0.1,20251020-085245,708,Experiment,Both,1,Automatic,main,40,20251021-144054,local,global,750,S,S,A,E,A-S.png,S-E.png,sS,sS,mask-2.png,mask-1.png,s,1,0.5149556000251323,h,0,0.012884099967777729,0.04759610001929104,0.04755640006624162,0.09977349988184869,0.09907880006358027,0.7496705998200923
RSVPLG03,sg,20251021-143712,1.0.1,20251020-085245,708,Experiment,Both,1,Automatic,main,41,20251021-144059,local,local,300,H,S,E,E,E-H.png,E-S.png,hH,sS,mask-2.png,mask-3.png,h,1,0.5712051000446081,h,0,0.07771739992313087,0.04767940007150173,0.04754319996573031,0.09977430012077093,0.09997639991343021,0.30033030011691153
RSVPLG03,sg,20251021-143712,1.0.1,20251020-085245,708,Experiment,Both,1,Automatic,main,42,20251021-144103,local,local,750,S,S,E,E,E-S.png,E-S.png,sS,sS,mask-2.png,mask-3.png,s,1,0.7113162998575717,s,1,0.04173510009422898,0.04589310009032488,0.047609200002625585,0.09952280018478632,0.09881190001033247,0.7489204001612961
RSVPLG03,sg,20251021-143712,1.0.1,20251020-085245,708,Experiment,Both,1,Automatic,main,43,20251021-144108,global,local,750,S,H,E,E,S-E.png,E-H.png,sS,hH,mask-3.png,mask-2.png,s,1,1.3890907000750303,h,1,0.04478760017082095,0.04848670004867017,0.047463899943977594,0.10150450002402067,0.100457499967888,0.7489732000976801
RSVPLG03,sg,20251021-143712,1.0.1,20251020-085245,708,Experiment,Both,1,Automatic,main,44,20251021-144114,local,global,300,H,H,E,A,E-H.png,H-A.png,hH,hH,mask-1.png,mask-3.png,h,1,0.5655823999550194,h,1,0.06390190008096397,0.04815950011834502,0.04662069980986416,0.09978200006298721,0.09963129996322095,0.3005471001379192
RSVPLG03,sg,20251021-143712,1.0.1,20251020-085245,708,Experiment,Both,1,Automatic,main,45,20251021-144118,global,local,300,H,S,E,A,H-E.png,A-S.png,hH,sS,mask-2.png,mask-3.png,h,1,0.6129856000188738,h,0,0.05105200014077127,0.04750750004313886,0.04754490009509027,0.09946159995160997,0.09938120003789663,0.29960739985108376
RSVPLG03,sg,20251021-143712,1.0.1,20251020-085245,708,Experiment,Both,1,Automatic,main,46,20251021-144122,local,local,750,H,S,A,A,A-H.png,A-S.png,hH,sS,mask-2.png,mask-2.png,s,0,0.40870749996975064,s,1,1.6890986999496818,0.04847969999536872,0.04753699991852045,0.10159719991497695,0.10053499997593462,0.7494655998889357
RSVPLG03,sg,20251021-143712,1.0.1,20251020-085245,708,Experiment,Both,1,Automatic,main,47,20251021-144129,local,global,300,S,S,A,A,A-S.png,S-A.png,sS,sS,mask-4.png,mask-1.png,h,0,0.6461042000446469,h,0,0.07568459981121123,0.04830279992893338,0.04848810005933046,0.1004414998460561,0.09950669994577765,0.29971449985168874
RSVPLG03,sg,20251021-143712,1.0.1,20251020-085245,708,Experiment,Both,1,Automatic,main,48,20251021-144133,local,global,300,H,H,E,E,E-H.png,H-E.png,hH,hH,mask-1.png,mask-4.png,s,0,1.7014315999113023,h,1,0.5559557999949902,0.04734090017154813,0.04755620006471872,0.09891719999723136,0.10055209998972714,0.29832160007208586
RSVPLG03,sg,20251021-143712,1.0.1,20251020-085245,708,Experiment,Both,1,Automatic,main,49,20251021-144139,local,global,750,H,S,E,E,E-H.png,S-E.png,hH,sS,mask-1.png,mask-4.png,h,1,0.788239800138399,h,0,0.06980710010975599,0.04752029990777373,0.047061200020834804,0.10060759983025491,0.10017969994805753,0.7481215998996049
RSVPLG03,sg,20251021-143712,1.0.1,20251020-085245,708,Experiment,Both,1,Automatic,main,50,20251021-144144,local,local,300,S,H,E,E,E-S.png,E-H.png,sS,hH,mask-3.png,mask-4.png,s,1,0.937720000045374,h,1,1.0500179000664502,0.04636369994841516,0.04801609995774925,0.09966579987667501,0.10034139989875257,0.2980891999322921
RSVPLG03,sg,20251021-143712,1.0.1,20251020-085245,708,Experiment,Both,1,Automatic,main,51,20251021-144151,global,local,750,S,H,E,E,S-E.png,E-H.png,sS,hH,mask-3.png,mask-1.png,s,1,0.9648998999036849,s,0,0.059699200093746185,0.04757569986395538,0.04687239998020232,0.09981959988363087,0.09988899994641542,0.7482242998667061
RSVPLG03,sg,20251021-143712,1.0.1,20251020-085245,708,Experiment,Both,1,Automatic,main,52,20251021-144156,local,local,750,S,H,A,A,A-S.png,A-H.png,sS,hH,mask-2.png,mask-3.png,s,1,0.31115969992242754,h,1,0.2294002000708133,0.04727370012551546,0.04752409993670881,0.0993051000405103,0.1005824999883771,0.7478682000655681
RSVPLG03,sg,20251021-143712,1.0.1,20251020-085245,708,Experiment,Both,1,Automatic,main,53,20251021-144201,global,local,750,H,S,E,E,H-E.png,E-S.png,hH,sS,mask-2.png,mask-4.png,h,1,0.4002708001062274,s,1,0.03791979979723692,0.046480700140818954,0.04652010020799935,0.09867570013739169,0.09966930001974106,0.7479449999518692
RSVPLG03,sg,20251021-143712,1.0.1,20251020-085245,708,Experiment,Both,1,Automatic,main,54,20251021-144205,global,global,750,H,H,E,E,H-E.png,H-E.png,hH,hH,mask-4.png,mask-3.png,h,1,0.880945699987933,h,1,0.05661779991351068,0.04853729996830225,0.04659470007754862,0.10143740009516478,0.0998035001102835,0.7497084999922663
RSVPLG03,sg,20251021-143712,1.0.1,20251020-085245,708,Experiment,Both,1,Automatic,main,55,20251021-144210,global,local,750,S,H,A,E,S-A.png,E-H.png,sS,hH,mask-4.png,mask-3.png,s,1,0.495797400129959,s,0,0.4935437000822276,0.045783499954268336,0.047522000037133694,0.09885969990864396,0.09917360008694232,0.7474656000267714
RSVPLG03,sg,20251021-143712,1.0.1,20251020-085245,708,Experiment,Both,1,Automatic,main,56,20251021-144215,local,global,750,S,H,A,A,A-S.png,H-A.png,sS,hH,mask-4.png,mask-4.png,s,1,1.203589600045234,s,0,0.03726890007965267,0.048256299924105406,0.04595900001004338,0.10031490004621446,0.09910029987804592,0.74914940004237
RSVPLG03,sg,20251021-143712,1.0.1,20251020-085245,708,Experiment,Both,1,Automatic,main,57,20251021-144221,local,local,750,S,H,A,A,A-S.png,A-H.png,sS,hH,mask-4.png,mask-2.png,s,1,0.4573605000041425,h,1,0.10459279990755022,0.046581999864429235,0.04760629986412823,0.09865999990142882,0.09863589983433485,0.748717000009492
RSVPLG03,sg,20251021-143712,1.0.1,20251020-085245,708,Experiment,Both,1,Automatic,main,58,20251021-144226,local,local,750,H,S,A,A,A-H.png,A-S.png,hH,sS,mask-3.png,mask-3.png,s,0,1.1256925999186933,s,1,0.04464960005134344,0.04867230006493628,0.04750630003400147,0.09985910006798804,0.1006833000574261,0.7492307999636978
RSVPLG03,sg,20251021-143712,1.0.1,20251020-085245,708,Experiment,Both,1,Automatic,main,59,20251021-144231,local,local,300,S,H,E,A,E-S.png,A-H.png,sS,hH,mask-4.png,mask-1.png,s,1,0.6655449999962002,h,1,0.09048239979892969,0.04795369994826615,0.048597299959510565,0.10120379994623363,0.10007129982113838,0.29939220007508993
RSVPLG03,sg,20251021-143712,1.0.1,20251020-085245,708,Experiment,Both,1,Automatic,main,60,20251021-144235,global,global,750,H,S,E,E,H-E.png,S-E.png,hH,sS,mask-2.png,mask-1.png,h,1,0.29360500001348555,s,1,0.18361629988066852,0.04774429998360574,0.04608409991487861,0.09798329998739064,0.1000649998895824,0.7487141999881715
RSVPLG03,sg,20251021-143712,1.0.1,20251020-085245,708,Experiment,Both,1,Automatic,main,61,20251021-144240,global,local,300,H,S,E,A,H-E.png,A-S.png,hH,sS,mask-3.png,mask-1.png,h,1,0.8672893999610096,h,0,0.07507489994168282,0.0477657001465559,0.0475106998346746,0.10084410011768341,0.09955569985322654,0.3004782001953572
RSVPLG03,sg,20251021-143712,1.0.1,20251020-085245,708,Experiment,Both,1,Automatic,main,62,20251021-144245,global,global,300,S,S,A,E,S-A.png,S-E.png,sS,sS,mask-2.png,mask-4.png,s,1,0.39433599985204637,s,1,0.05351109988987446,0.04758629994466901,0.04848180012777448,0.0996045998763293,0.09936640015803277,0.2988845999352634
RSVPLG03,sg,20251021-143712,1.0.1,20251020-085245,708,Experiment,Both,1,Automatic,main,63,20251021-144249,global,global,300,H,S,A,A,H-A.png,S-A.png,hH,sS,mask-1.png,mask-4.png,h,1,0.7169230000581592,s,1,0.054522200021892786,0.04835280007682741,0.04741150001063943,0.10032700002193451,0.09940849989652634,0.30059990007430315
RSVPLG03,sg,20251021-143712,1.0.1,20251020-085245,708,Experiment,Both,1,Automatic,main,64,20251021-144253,local,local,300,S,S,E,E,E-S.png,E-S.png,sS,sS,mask-1.png,mask-1.png,s,1,0.5036903000436723,s,1,0.07296209991909564,0.04750000010244548,0.047646200051531196,0.09949399996548891,0.09971170010976493,0.2993974999990314
RSVPLG03,sg,20251021-143712,1.0.1,20251020-085245,708,Experiment,Both,1,Automatic,main,65,20251021-144257,local,local,750,H,H,A,E,A-H.png,E-H.png,hH,hH,mask-3.png,mask-4.png,h,1,0.42394650005735457,h,1,0.03451550006866455,0.04868939984589815,0.046544799814000726,0.10087640001438558,0.09854059992358088,0.7497207999695092
RSVPLG03,sg,20251021-143712,1.0.1,20251020-085245,708,Experiment,Both,1,Automatic,main,66,20251021-144302,global,local,750,S,H,A,A,S-A.png,A-H.png,sS,hH,mask-2.png,mask-3.png,s,1,0.3434137001167983,h,1,0.23419860005378723,0.04746000003069639,0.04876610008068383,0.09877899987623096,0.09982150001451373,0.7467982999514788
RSVPLG03,sg,20251021-143712,1.0.1,20251020-085245,708,Experiment,Both,1,Automatic,main,67,20251021-144307,global,local,300,S,H,E,E,S-E.png,E-H.png,sS,hH,mask-2.png,mask-2.png,s,1,0.3405035000760108,h,1,0.08973530004732311,0.04767690016888082,0.047507999930530787,0.09992070007137954,0.1002505999058485,0.2991626001894474
RSVPLG03,sg,20251021-143712,1.0.1,20251020-085245,708,Experiment,Both,1,Automatic,main,68,20251021-144311,global,global,750,H,S,E,A,H-E.png,S-A.png,hH,sS,mask-2.png,mask-4.png,h,1,0.2958175998646766,s,1,0.1500057999510318,0.047553000040352345,0.047669699881225824,0.09746239986270666,0.09989680000580847,0.7472359000239521
RSVPLG03,sg,20251021-143712,1.0.1,20251020-085245,708,Experiment,Both,1,Automatic,main,69,20251021-144316,global,local,750,S,S,A,A,S-A.png,A-S.png,sS,sS,mask-2.png,mask-2.png,s,1,0.23830630001612008,h,0,0.09190200013108552,0.04751909989863634,0.04855390009470284,0.09951179986819625,0.09977289987728,0.7464588999282569
RSVPLG03,sg,20251021-143712,1.0.1,20251020-085245,708,Experiment,Both,1,Automatic,main,70,20251021-144320,global,global,750,S,S,A,E,S-A.png,S-E.png,sS,sS,mask-3.png,mask-3.png,s,1,0.27763720019720495,s,1,0.07400839985348284,0.04755149991251528,0.04863779991865158,0.10057569993659854,0.09906350006349385,0.7484520999714732
RSVPLG03,sg,20251021-143712,1.0.1,20251020-085245,708,Experiment,Both,1,Automatic,main,71,20251021-144325,global,local,300,H,S,E,A,H-E.png,A-S.png,hH,sS,mask-4.png,mask-4.png,h,1,0.8642150999512523,s,1,0.9600078999064863,0.04767069988884032,0.04748740000650287,0.10111179994419217,0.10037450003437698,0.2992439998779446
RSVPLG03,sg,20251021-143712,1.0.1,20251020-085245,708,Experiment,Both,1,Automatic,main,72,20251021-144329,global,global,750,S,S,E,A,S-E.png,S-A.png,sS,sS,mask-3.png,mask-4.png,s,1,0.37624899996444583,s,1,0.05851450003683567,0.048530900152400136,0.04672400001436472,0.10060969996266067,0.09919729991815984,0.7489994000643492
RSVPLG03,sg,20251021-143712,1.0.1,20251020-085245,708,Experiment,Both,1,Automatic,main,73,20251021-144334,global,local,300,S,H,A,A,S-A.png,A-H.png,sS,hH,mask-3.png,mask-4.png,s,1,0.30723079992458224,h,1,0.058826099848374724,0.04740900010801852,0.04748110007494688,0.09982500015757978,0.09967410005629063,0.29939309996552765
RSVPLG03,sg,20251021-143712,1.0.1,20251020-085245,708,Experiment,Both,1,Automatic,main,74,20251021-144338,local,global,750,H,S,A,E,A-H.png,S-E.png,hH,sS,mask-2.png,mask-3.png,h,1,0.3308397000655532,s,1,0.05452650017105043,0.04760460020042956,0.047824000008404255,0.0994687001220882,0.10002329992130399,0.7482323001604527
RSVPLG03,sg,20251021-143712,1.0.1,20251020-085245,708,Experiment,Both,1,Automatic,main,75,20251021-144342,global,local,300,S,S,E,A,S-E.png,A-S.png,sS,sS,mask-3.png,mask-3.png,s,1,0.8908556001260877,h,0,0.34495549998246133,0.04755820007994771,0.04789260006509721,0.09969830000773072,0.09993689996190369,0.29945040005259216
RSVPLG03,sg,20251021-143712,1.0.1,20251020-085245,708,Experiment,Both,1,Automatic,main,76,20251021-144356,local,global,300,H,H,A,E,A-H.png,H-E.png,hH,hH,mask-1.png,mask-2.png,h,1,0.6348524999339134,h,1,0.05435560015030205,0.047702299896627665,0.047656700015068054,0.09985599992796779,0.10084690013900399,0.299467199947685
RSVPLG03,sg,20251021-143712,1.0.1,20251020-085245,708,Experiment,Both,1,Automatic,main,77,20251021-144400,local,global,750,H,H,E,A,E-H.png,H-A.png,hH,hH,mask-4.png,mask-3.png,h,1,0.5693147999700159,h,1,0.08927780017256737,0.046708600129932165,0.04768889979459345,0.09989810013212264,0.09985519992187619,0.7492425001692027
RSVPLG03,sg,20251021-143712,1.0.1,20251020-085245,708,Experiment,Both,1,Automatic,main,78,20251021-144405,local,local,300,S,H,E,E,E-S.png,E-H.png,sS,hH,mask-2.png,mask-2.png,s,1,0.3371532999444753,h,1,0.5966238998807967,0.047735899919644,0.047582400031387806,0.10084189986810088,0.09889400005340576,0.30044419993646443
RSVPLG03,sg,20251021-143712,1.0.1,20251020-085245,708,Experiment,Both,1,Automatic,main,79,20251021-144409,global,global,750,S,H,A,E,S-A.png,H-E.png,sS,hH,mask-1.png,mask-1.png,s,1,0.3374844000209123,h,1,0.056903300108388066,0.04769839998334646,0.04747039987705648,0.09971380000934005,0.09931669989600778,0.7491824000608176
RSVPLG03,sg,20251021-143712,1.0.1,20251020-085245,708,Experiment,Both,1,Automatic,main,80,20251021-144414,local,local,750,S,S,A,A,A-S.png,A-S.png,sS,sS,mask-2.png,mask-4.png,s,1,0.45648119994439185,s,1,0.15767530002631247,0.047258100006729364,0.04695219988934696,0.10027380008250475,0.0997452000156045,0.7502296001184732
RSVPLG03,sg,20251021-143712,1.0.1,20251020-085245,708,Experiment,Both,1,Automatic,main,81,20251021-144419,local,global,750,H,S,E,A,E-H.png,S-A.png,hH,sS,mask-4.png,mask-2.png,s,0,0.3158882998395711,s,1,0.03799659991636872,0.047518499894067645,0.04753239988349378,0.10053279995918274,0.09953089989721775,0.7488051000982523
RSVPLG03,sg,20251021-143712,1.0.1,20251020-085245,708,Experiment,Both,1,Automatic,main,82,20251021-144423,local,local,300,H,S,E,A,E-H.png,A-S.png,hH,sS,mask-3.png,mask-3.png,h,1,0.38245059992186725,h,0,0.050315799890086055,0.048533800058066845,0.047561399871483445,0.10061859991401434,0.09974859980866313,0.3008642001077533
RSVPLG03,sg,20251021-143712,1.0.1,20251020-085245,708,Experiment,Both,1,Automatic,main,83,20251021-144427,global,local,300,H,H,E,E,H-E.png,E-H.png,hH,hH,mask-3.png,mask-4.png,s,0,0.7185905000660568,h,1,0.8461569000501186,0.04730729991570115,0.04730210010893643,0.09948100009933114,0.099621000001207,0.2998609999194741
RSVPLG03,sg,20251021-143712,1.0.1,20251020-085245,708,Experiment,Both,1,Automatic,main,84,20251021-144432,local,global,750,S,H,E,A,E-S.png,H-A.png,sS,hH,mask-2.png,mask-2.png,s,1,0.6385078001767397,h,1,0.012983700027689338,0.04876999999396503,0.04762490000575781,0.09971390012651682,0.09981180005706847,0.749088800046593
RSVPLG03,sg,20251021-143712,1.0.1,20251020-085245,708,Experiment,Both,1,Automatic,main,85,20251021-144437,local,local,300,S,S,E,E,E-S.png,E-S.png,sS,sS,mask-4.png,mask-4.png,s,1,0.6001822999678552,s,1,0.01833060011267662,0.04862029990181327,0.04780000005848706,0.10179929994046688,0.09992880001664162,0.3003934998996556
RSVPLG03,sg,20251021-143712,1.0.1,20251020-085245,708,Experiment,Both,1,Automatic,main,86,20251021-144441,local,global,300,H,H,E,E,E-H.png,H-E.png,hH,hH,mask-4.png,mask-4.png,s,0,0.2237568001728505,h,1,0.09775990014895797,0.047690500039607286,0.045674100052565336,0.09986350010149181,0.09887630003504455,0.3013568001333624
RSVPLG03,sg,20251021-143712,1.0.1,20251020-085245,708,Experiment,Both,1,Automatic,main,87,20251021-144445,global,global,300,S,H,A,A,S-A.png,H-A.png,sS,hH,mask-3.png,mask-3.png,h,0,0.2151955000590533,s,0,0.019172800006344914,0.04752049990929663,0.04881030018441379,0.10087889991700649,0.10102679999545217,0.2989518998656422
RSVPLG03,sg,20251021-143712,1.0.1,20251020-085245,708,Experiment,Both,1,Automatic,main,88,20251021-144449,local,global,300,H,S,E,E,E-H.png,S-E.png,hH,sS,mask-3.png,mask-1.png,h,1,0.9659382000099868,s,1,0.02259010006673634,0.046377799939364195,0.04646840016357601,0.09920509997755289,0.09848570008762181,0.29914609994739294
RSVPLG03,sg,20251021-143712,1.0.1,20251020-085245,708,Experiment,Both,1,Automatic,main,89,20251021-144454,global,local,750,H,H,A,E,H-A.png,E-H.png,hH,hH,mask-2.png,mask-1.png,h,1,0.7953074998222291,h,1,0.04732959996908903,0.04849780001677573,0.047086199978366494,0.10035800002515316,0.1002032000105828,0.7485849000513554
RSVPLG03,sg,20251021-143712,1.0.1,20251020-085245,708,Experiment,Both,1,Automatic,main,90,20251021-144458,global,global,750,H,H,E,A,H-E.png,H-A.png,hH,hH,mask-4.png,mask-3.png,h,1,0.3573090999852866,h,1,0.05855019995942712,0.04755060002207756,0.04684379999525845,0.10175850009545684,0.09884950006380677,0.7495530000887811
RSVPLG03,sg,20251021-143712,1.0.1,20251020-085245,708,Experiment,Both,1,Automatic,main,91,20251021-144503,global,global,300,H,H,A,E,H-A.png,H-E.png,hH,hH,mask-2.png,mask-1.png,h,1,0.341556099941954,h,1,0.05825029988773167,0.047591499984264374,0.04867430008016527,0.0998458000831306,0.10171940014697611,0.2983742000069469
RSVPLG03,sg,20251021-143712,1.0.1,20251020-085245,708,Experiment,Both,1,Automatic,main,92,20251021-144507,local,global,750,H,S,A,A,A-H.png,S-A.png,hH,sS,mask-2.png,mask-2.png,h,1,0.35600439994595945,s,1,0.07021300005726516,0.04751339997164905,0.0457305999007076,0.10038820002228022,0.09988139988854527,0.7498691000510007
RSVPLG03,sg,20251021-143712,1.0.1,20251020-085245,708,Experiment,Both,1,Automatic,main,93,20251021-144512,global,global,750,S,S,E,E,S-E.png,S-E.png,sS,sS,mask-1.png,mask-1.png,s,1,0.9987747999839485,s,1,0.11735620000399649,0.04664229997433722,0.0476844001095742,0.09979550004936755,0.10069260001182556,0.7477479998487979
RSVPLG03,sg,20251021-143712,1.0.1,20251020-085245,708,Experiment,Both,1,Automatic,main,94,20251021-144517,global,global,300,S,S,A,A,S-A.png,S-A.png,sS,sS,mask-2.png,mask-1.png,s,1,0.36197430011816323,s,1,0.13997199991717935,0.047675399808213115,0.046703399857506156,0.09985659993253648,0.10023869993165135,0.2990961999166757
RSVPLG03,sg,20251021-143712,1.0.1,20251020-085245,708,Experiment,Both,1,Automatic,main,95,20251021-144521,local,global,750,H,S,E,E,E-H.png,S-E.png,hH,sS,mask-2.png,mask-3.png,h,1,0.8899646999780089,s,1,0.07724350015632808,0.04860539990477264,0.04751850012689829,0.09960429999046028,0.09851059992797673,0.7492800999898463
RSVPLG03,sg,20251021-143712,1.0.1,20251020-085245,708,Experiment,Both,1,Automatic,main,96,20251021-144526,global,global,300,S,S,E,E,S-E.png,S-E.png,sS,sS,mask-4.png,mask-4.png,s,1,0.36222380003891885,s,1,0.08876250009052455,0.04749749996699393,0.04755909997038543,0.09968290012329817,0.09962420002557337,0.30010020011104643
RSVPLG03,sg,20251021-143712,1.0.1,20251020-085245,708,Experiment,Both,1,Automatic,main,97,20251021-144530,global,global,750,H,H,E,A,H-E.png,H-A.png,hH,hH,mask-4.png,mask-1.png,h,1,0.07916560000739992,h,1,0.25154459988698363,0.047531599877402186,0.04651480005122721,0.10033889999613166,0.10056099994108081,0.7492951999884099
RSVPLG03,sg,20251021-143712,1.0.1,20251020-085245,708,Experiment,Both,1,Automatic,main,98,20251021-144535,local,local,750,S,H,A,A,A-S.png,A-H.png,sS,hH,mask-1.png,mask-3.png,h,0,0.319855900015682,h,1,0.14082510001026094,0.046175000024959445,0.04651260003447533,0.10018189996480942,0.09969959990121424,0.7485307999886572
RSVPLG03,sg,20251021-143712,1.0.1,20251020-085245,708,Experiment,Both,1,Automatic,main,99,20251021-144539,local,local,300,H,H,A,E,A-H.png,E-H.png,hH,hH,mask-3.png,mask-3.png,h,1,2.101443199906498,s,0,0.077688799938187,0.048302500043064356,0.04728249995969236,0.10032290010713041,0.1002712999470532,0.30003480007871985
RSVPLG03,sg,20251021-143712,1.0.1,20251020-085245,708,Experiment,Both,1,Automatic,main,100,20251021-144545,global,global,750,S,S,E,A,S-E.png,S-A.png,sS,sS,mask-1.png,mask-1.png,s,1,0.2974763000383973,s,1,0.09097440005280077,0.04742600000463426,0.047527499962598085,0.0984239000827074,0.09956779982894659,0.7482154001481831
RSVPLG03,sg,20251021-143712,1.0.1,20251020-085245,708,Experiment,Both,1,Automatic,main,101,20251021-144551,global,local,300,H,S,A,A,H-A.png,A-S.png,hH,sS,mask-1.png,mask-1.png,h,1,0.29616039991378784,h,0,0.21832729992456734,0.04778019990772009,0.045553999952971935,0.09981480007991195,0.09959309990517795,0.30016410001553595
RSVPLG03,sg,20251021-143712,1.0.1,20251020-085245,708,Experiment,Both,1,Automatic,main,102,20251021-144555,global,local,750,H,S,A,A,H-A.png,A-S.png,hH,sS,mask-2.png,mask-2.png,h,1,0.44226670009084046,s,1,0.07430789992213249,0.048878799891099334,0.04752969997934997,0.10163719998672605,0.10055899992585182,0.7502391000743955
RSVPLG03,sg,20251021-143712,1.0.1,20251020-085245,708,Experiment,Both,1,Automatic,main,103,20251021-144600,local,global,300,H,S,A,A,A-H.png,S-A.png,hH,sS,mask-4.png,mask-1.png,h,1,0.37866040016524494,s,1,0.03675680002197623,0.04768520011566579,0.046977899968624115,0.09987669996917248,0.1012309999205172,0.2993147000670433
RSVPLG03,sg,20251021-143712,1.0.1,20251020-085245,708,Experiment,Both,1,Automatic,main,104,20251021-144604,global,global,300,H,H,E,E,H-E.png,H-E.png,hH,hH,mask-4.png,mask-1.png,h,1,0.3402973001357168,h,1,0.09758369997143745,0.048679899889975786,0.04743089992552996,0.10084050009027123,0.09917319985106587,0.2996543000917882
RSVPLG03,sg,20251021-143712,1.0.1,20251020-085245,708,Experiment,Both,1,Automatic,main,105,20251021-144608,local,global,750,H,S,E,E,E-H.png,S-E.png,hH,sS,mask-1.png,mask-2.png,s,0,0.808952100109309,s,1,0.03990060021169484,0.04770200001075864,0.04671250004321337,0.09895649994723499,0.09934980003163218,0.7491389999631792
RSVPLG03,sg,20251021-143712,1.0.1,20251020-085245,708,Experiment,Both,1,Automatic,main,106,20251021-144613,global,local,750,S,S,A,E,S-A.png,E-S.png,sS,sS,mask-1.png,mask-2.png,s,1,0.3524410000536591,s,1,0.0375167999882251,0.04662719997577369,0.04731189995072782,0.10010829987004399,0.1003286000341177,0.7487377000506967
RSVPLG03,sg,20251021-143712,1.0.1,20251020-085245,708,Experiment,Both,1,Automatic,main,107,20251021-144618,global,global,300,S,S,E,A,S-E.png,S-A.png,sS,sS,mask-3.png,mask-4.png,s,1,0.25828639999963343,s,1,0.03695259988307953,0.047754399944096804,0.04675960005261004,0.0988253999967128,0.09898649994283915,0.2992575999815017
RSVPLG03,sg,20251021-143712,1.0.1,20251020-085245,708,Experiment,Both,1,Automatic,main,108,20251021-144622,global,local,750,H,H,A,A,H-A.png,A-H.png,hH,hH,mask-4.png,mask-1.png,h,1,0.28697650018148124,h,1,0.08275919989682734,0.04915550001896918,0.048179099801927805,0.10064380010589957,0.10016719996929169,0.7489933001343161
RSVPLG03,sg,20251021-143712,1.0.1,20251020-085245,708,Experiment,Both,1,Automatic,main,109,20251021-144626,global,global,300,H,S,A,A,H-A.png,S-A.png,hH,sS,mask-2.png,mask-3.png,h,1,0.2640213000122458,s,1,0.12849720008671284,0.04779690015129745,0.047776800114661455,0.0989697000477463,0.1003723000176251,0.29851170000620186
RSVPLG03,sg,20251021-143712,1.0.1,20251020-085245,708,Experiment,Both,1,Automatic,main,110,20251021-144630,global,global,300,H,H,E,E,H-E.png,H-E.png,hH,hH,mask-2.png,mask-1.png,h,1,0.25451590004377067,h,1,0.10803629993461072,0.047823800006881356,0.04839540016837418,0.10058180009946227,0.10127220000140369,0.2989624999463558
RSVPLG03,sg,20251021-143712,1.0.1,20251020-085245,708,Experiment,Both,1,Automatic,main,111,20251021-144634,global,local,300,H,S,A,A,H-A.png,A-S.png,hH,sS,mask-4.png,mask-4.png,h,1,0.24332220014184713,s,1,0.040226199897006154,0.04672669991850853,0.04556709993630648,0.09920949977822602,0.09965609991922975,0.30060099996626377
RSVPLG03,sg,20251021-143712,1.0.1,20251020-085245,708,Experiment,Both,1,Automatic,main,112,20251021-144638,local,global,300,S,S,E,E,E-S.png,S-E.png,sS,sS,mask-1.png,mask-2.png,s,1,0.7252973997965455,s,1,0.0704795999918133,0.048531000036746264,0.04761689994484186,0.10053520021028817,0.10101679991930723,0.2992700000759214
RSVPLG03,sg,20251021-143712,1.0.1,20251020-085245,708,Experiment,Both,1,Automatic,main,113,20251021-144643,local,global,300,S,H,A,E,A-S.png,H-E.png,sS,hH,mask-1.png,mask-1.png,s,1,0.895540300058201,h,1,0.04369439999572933,0.04856270016171038,0.047570599941536784,0.10059800022281706,0.09958869987167418,0.30023720022290945
RSVPLG03,sg,20251021-143712,1.0.1,20251020-085245,708,Experiment,Both,1,Automatic,main,114,20251021-144647,global,local,300,H,S,A,A,H-A.png,A-S.png,hH,sS,mask-1.png,mask-4.png,h,1,0.8905517000239342,s,1,0.004411399830132723,0.04686130001209676,0.046814800007268786,0.09921050001867115,0.09870270011015236,0.2992583999875933
RSVPLG03,sg,20251021-143712,1.0.1,20251020-085245,708,Experiment,Both,1,Automatic,main,115,20251021-144652,local,global,300,S,H,A,A,A-S.png,H-A.png,sS,hH,mask-4.png,mask-3.png,h,0,0.36875690007582307,h,1,0.03328559990040958,0.047292100032791495,0.04678119998425245,0.09887530002743006,0.09975340007804334,0.3002551000099629
RSVPLG03,sg,20251021-143712,1.0.1,20251020-085245,708,Experiment,Both,1,Automatic,main,116,20251021-144656,global,global,300,H,H,E,A,H-E.png,H-A.png,hH,hH,mask-2.png,mask-4.png,h,1,0.2590034999884665,h,1,0.050104300025850534,0.04753040010109544,0.049077900126576424,0.09967210004106164,0.10048350016586483,0.2977386999409646
RSVPLG03,sg,20251021-143712,1.0.1,20251020-085245,708,Experiment,Both,1,Automatic,main,117,20251021-144700,local,global,300,S,H,A,E,A-S.png,H-E.png,sS,hH,mask-1.png,mask-3.png,s,1,0.38263110001571476,h,1,0.028961899923160672,0.047721700044348836,0.04645129991695285,0.10162539989687502,0.09852100000716746,0.30110409995540977
RSVPLG03,sg,20251021-143712,1.0.1,20251020-085245,708,Experiment,Both,1,Automatic,main,118,20251021-144704,global,local,300,H,S,A,A,H-A.png,A-S.png,hH,sS,mask-2.png,mask-4.png,h,1,0.24714890005998313,s,1,0.07607060018926859,0.047556799836456776,0.0483627999201417,0.09910389990545809,0.09967279992997646,0.2988446999806911
RSVPLG03,sg,20251021-143712,1.0.1,20251020-085245,708,Experiment,Both,1,Automatic,main,119,20251021-144708,local,local,750,S,H,A,E,A-S.png,E-H.png,sS,hH,mask-4.png,mask-1.png,h,0,0.7431928999722004,s,0,0.8688038000836968,0.0475212000310421,0.048471900168806314,0.09958579996600747,0.10047110007144511,0.7486264000181109
RSVPLG03,sg,20251021-143712,1.0.1,20251020-085245,708,Experiment,Both,1,Automatic,main,120,20251021-144714,local,local,750,H,H,A,A,A-H.png,A-H.png,hH,hH,mask-1.png,mask-1.png,s,0,0.9978752001188695,h,1,0.6589069000910968,0.046341999899595976,0.04741060012020171,0.09930770006030798,0.10021810000762343,0.7475181999616325
RSVPLG03,sg,20251021-143712,1.0.1,20251020-085245,708,Experiment,Both,1,Automatic,main,121,20251021-144720,global,global,300,H,H,E,A,H-E.png,H-A.png,hH,hH,mask-2.png,mask-2.png,h,1,0.2558919000439346,h,1,0.03897539991885424,0.047737699933350086,0.04744720016606152,0.09893689979799092,0.10013180016539991,0.2988258998375386
