exp,exp_initials,runtime,ver,modtime,sub,blocktype,targets,cuetype,mode,trialtype,trial,trialtime,t1_level,t2_level,t2_lag,t1,t2,distractor1,distractor2,stimfile1,stimfile2,t1_corr,t2_corr,maskfile1,maskfile2,t1_resp,t1_acc,t1_rt,t2_resp,t2_acc,t2_rt,t1_dur,t2_dur,t1mask_soa,t2mask_soa,t1t2_soa
RSVPLG03,JM,20260325-102701,1.0.2,20251105-084826,810,Introduction,T1,1,Automatic,main,1,20260325-102733,local,global,750,S,H,A,A,A-S.png,H-A.png,sS,hH,mask-1.png,mask-3.png,h,0,3.4401390999555588,none,-5,0,0.09453260013833642,0.09679129999130964,0.1963303000666201,0.19964700005948544,0.7473232001066208
RSVPLG03,JM,20260325-102701,1.0.2,20251105-084826,810,Introduction,T1,1,Automatic,main,2,20260325-102741,global,global,750,H,S,E,A,H-E.png,S-A.png,hH,sS,mask-3.png,mask-3.png,s,0,1.8449103999882936,none,-5,0,0.09637699997983873,0.09701799997128546,0.20030750008299947,0.20152590004727244,0.7488434000406414
RSVPLG03,JM,20260325-102701,1.0.2,20251105-084826,810,Introduction,T1,1,Automatic,main,3,20260325-102747,local,local,750,S,H,A,E,A-S.png,E-H.png,sS,hH,mask-2.png,mask-2.png,h,0,1.9027957001235336,none,-5,0,0.09687620005570352,0.09773719985969365,0.19968020007945597,0.1996892997995019,0.7498384001664817
RSVPLG03,JM,20260325-102701,1.0.2,20251105-084826,810,Introduction,T1,1,Automatic,main,4,20260325-102753,local,local,750,S,S,A,E,A-S.png,E-S.png,sS,sS,mask-4.png,mask-3.png,h,0,2.578851900063455,none,-5,0,0.09754540002904832,0.09752310020849109,0.19959029997698963,0.1995607002172619,0.7497076999861747
RSVPLG03,JM,20260325-102701,1.0.2,20251105-084826,810,Introduction,T1,1,Automatic,main,5,20260325-102800,global,global,750,S,S,E,E,S-E.png,S-E.png,sS,sS,mask-2.png,mask-4.png,s,1,0.4721544000785798,none,-5,0,0.09753130003809929,0.09839679999276996,0.19936079997569323,0.20128349983133376,0.749524800106883
RSVPLG03,JM,20260325-102701,1.0.2,20251105-084826,810,Introduction,T1,1,Automatic,main,6,20260325-102805,global,local,750,S,S,A,E,S-A.png,E-S.png,sS,sS,mask-4.png,mask-4.png,s,1,0.4082170999608934,none,-5,0,0.09737450000829995,0.09945740015245974,0.20114230015315115,0.20131120015867054,0.7498077999334782
RSVPLG03,JM,20260325-102701,1.0.2,20251105-084826,810,Introduction,T1,1,Automatic,main,7,20260325-102809,global,local,750,H,S,A,A,H-A.png,A-S.png,hH,sS,mask-4.png,mask-1.png,h,1,0.4003153999801725,none,-5,0,0.09745969995856285,0.09748799982480705,0.19875850016251206,0.19884700002148747,0.7508748001419008
RSVPLG03,JM,20260325-102701,1.0.2,20251105-084826,810,Introduction,T1,1,Automatic,main,8,20260325-102814,local,global,750,H,S,E,A,E-H.png,S-A.png,hH,sS,mask-2.png,mask-1.png,h,1,0.4059190000407398,none,-5,0,0.0962807999458164,0.09952949988655746,0.20035269996151328,0.2025629999116063,0.7484546001069248
RSVPLG03,JM,20260325-102701,1.0.2,20251105-084826,810,Introduction,T1,1,Automatic,main,9,20260325-102818,local,global,750,S,H,A,E,A-S.png,H-E.png,sS,hH,mask-3.png,mask-4.png,h,0,0.69333909987472,none,-5,0,0.09654530021362007,0.09754099999554455,0.19957440020516515,0.20062989997677505,0.7493098000995815
RSVPLG03,JM,20260325-102701,1.0.2,20251105-084826,810,Introduction,T1,1,Automatic,main,10,20260325-102823,local,local,750,H,S,E,A,E-H.png,A-S.png,hH,sS,mask-3.png,mask-4.png,h,1,0.43724820017814636,none,-5,0,0.09665640001185238,0.09754600003361702,0.20069570001214743,0.19957669987343252,0.7508565001189709
RSVPLG03,JM,20260325-102701,1.0.2,20251105-084826,810,Introduction,T1,1,Automatic,main,11,20260325-102828,global,global,750,H,H,A,A,H-A.png,H-A.png,hH,hH,mask-1.png,mask-3.png,h,1,0.47132560005411506,none,-5,0,0.09756439994089305,0.09630870004184544,0.2002508998848498,0.20023129996843636,0.7514561999123544
RSVPLG03,JM,20260325-102701,1.0.2,20251105-084826,810,Introduction,T1,1,Automatic,main,12,20260325-102832,global,local,750,H,H,A,A,H-A.png,A-H.png,hH,hH,mask-1.png,mask-1.png,h,1,0.4142911999952048,none,-5,0,0.09753000014461577,0.09672579984180629,0.20058730011805892,0.19978469982743263,0.750708700157702
RSVPLG03,JM,20260325-102701,1.0.2,20251105-084826,810,Introduction,T1,1,Automatic,main,13,20260325-102837,global,local,750,S,H,E,A,S-E.png,A-H.png,sS,hH,mask-4.png,mask-3.png,s,1,0.3600997000467032,none,-5,0,0.09855229989625514,0.09658859996125102,0.20052949991077185,0.1996331000700593,0.7510963999666274
RSVPLG03,JM,20260325-102701,1.0.2,20251105-084826,810,Introduction,T1,1,Automatic,main,14,20260325-102842,local,global,750,H,H,A,A,A-H.png,H-A.png,hH,hH,mask-4.png,mask-4.png,h,1,0.6713299001567066,none,-5,0,0.09762250003404915,0.09735960001125932,0.1993172001093626,0.19939940003678203,0.750468899961561
RSVPLG03,JM,20260325-102701,1.0.2,20251105-084826,810,Introduction,T1,1,Automatic,main,15,20260325-102846,global,global,750,H,H,A,A,H-A.png,H-A.png,hH,hH,mask-3.png,mask-2.png,h,1,1.007899499963969,none,-5,0,0.09755499986931682,0.09755240008234978,0.19957779999822378,0.19854369992390275,0.7499043999705464
RSVPLG03,JM,20260325-102701,1.0.2,20251105-084826,810,Introduction,T1,1,Automatic,main,16,20260325-102852,local,local,750,H,S,E,A,E-H.png,A-S.png,hH,sS,mask-1.png,mask-1.png,h,1,0.4657596000470221,none,-5,0,0.09748100000433624,0.09740910003893077,0.19858160009607673,0.20025449991226196,0.7495069000869989
RSVPLG03,JM,20260325-102947,1.0.2,20251105-084826,810,Introduction,T1,1,Automatic,main,1,20260325-103003,global,global,750,H,H,A,A,H-A.png,H-A.png,hH,hH,mask-3.png,mask-1.png,h,1,0.3903160998597741,none,-5,0,0.09731590002775192,0.09557889983989298,0.19954479997977614,0.19679289986379445,0.7490352999884635
RSVPLG03,JM,20260325-102947,1.0.2,20251105-084826,810,Introduction,T1,1,Automatic,main,2,20260325-103007,local,global,750,S,S,A,A,A-S.png,S-A.png,sS,sS,mask-3.png,mask-3.png,s,1,0.4122895000036806,none,-5,0,0.09619890013709664,0.09522449993528426,0.19926020014099777,0.19808120001107454,0.7481824001297355
RSVPLG03,JM,20260325-102947,1.0.2,20251105-084826,810,Introduction,T1,1,Automatic,main,3,20260325-103012,global,global,750,H,H,E,A,H-E.png,H-A.png,hH,hH,mask-4.png,mask-2.png,h,1,0.36852679983712733,none,-5,0,0.09733789996244013,0.09676590003073215,0.1984019000083208,0.20065829996019602,0.7479644999839365
RSVPLG03,JM,20260325-102947,1.0.2,20251105-084826,810,Introduction,T1,1,Automatic,main,4,20260325-103016,global,local,750,S,S,A,A,S-A.png,A-S.png,sS,sS,mask-2.png,mask-1.png,s,1,0.353746899869293,none,-5,0,0.09647300001233816,0.09528529993258417,0.1996083001140505,0.1986293001100421,0.7491007000207901
RSVPLG03,JM,20260325-102947,1.0.2,20251105-084826,810,Introduction,T1,1,Automatic,main,5,20260325-103021,global,local,750,H,S,E,E,H-E.png,E-S.png,hH,sS,mask-1.png,mask-4.png,h,1,0.3640574000310153,none,-5,0,0.09583890018984675,0.09547930001281202,0.1990196001715958,0.1993881999514997,0.748147200094536
RSVPLG03,JM,20260325-102947,1.0.2,20251105-084826,810,Introduction,T1,1,Automatic,main,6,20260325-103025,local,global,750,S,H,A,E,A-S.png,H-E.png,sS,hH,mask-4.png,mask-3.png,s,1,0.3887042000424117,none,-5,0,0.09643830009736121,0.09549139998853207,0.20050560007803142,0.19944739993661642,0.7490846000146121
RSVPLG03,JM,20260325-102947,1.0.2,20251105-084826,810,Introduction,T1,1,Automatic,main,7,20260325-103030,local,global,750,S,H,E,E,E-S.png,H-E.png,sS,hH,mask-4.png,mask-3.png,s,1,0.36786959995515645,none,-5,0,0.0956739999819547,0.09554770006798208,0.19765920005738735,0.19850400020368397,0.7479443999473006
RSVPLG03,JM,20260325-102947,1.0.2,20251105-084826,810,Introduction,T1,1,Automatic,main,8,20260325-103034,global,local,750,H,H,E,E,H-E.png,E-H.png,hH,hH,mask-2.png,mask-1.png,h,1,0.3393431000877172,none,-5,0,0.09756439994089305,0.09574429993517697,0.19939780002459884,0.1984870999585837,0.7490395000204444
RSVPLG03,JM,20260325-102947,1.0.2,20251105-084826,810,Introduction,T1,1,Automatic,main,9,20260325-103039,local,local,750,H,H,E,A,E-H.png,A-H.png,hH,hH,mask-3.png,mask-1.png,h,1,0.34580460004508495,none,-5,0,0.09654040005989373,0.09631399996578693,0.19945680000819266,0.19859410007484257,0.7479703000281006
RSVPLG03,JM,20260325-102947,1.0.2,20251105-084826,810,Introduction,T1,1,Automatic,main,10,20260325-103043,local,local,750,S,S,E,E,E-S.png,E-S.png,sS,sS,mask-1.png,mask-4.png,s,1,0.3789032001513988,none,-5,0,0.09626190015114844,0.0966545999981463,0.1995221001561731,0.19933279999531806,0.7468464002013206
RSVPLG03,JM,20260325-102947,1.0.2,20251105-084826,810,Introduction,T1,1,Automatic,main,11,20260325-103048,global,global,750,H,H,A,A,H-A.png,H-A.png,hH,hH,mask-4.png,mask-4.png,h,1,0.35821680002845824,none,-5,0,0.09641229989938438,0.09641230013221502,0.19919479987584054,0.19881580001674592,0.7480608997866511
RSVPLG03,JM,20260325-102947,1.0.2,20251105-084826,810,Introduction,T1,1,Automatic,main,12,20260325-103052,global,global,750,S,H,E,A,S-E.png,H-A.png,sS,hH,mask-1.png,mask-3.png,s,1,0.3803548999130726,none,-5,0,0.09656190010719001,0.0965875000692904,0.19867600011639297,0.1995125999674201,0.748043900122866
RSVPLG03,JM,20260325-102947,1.0.2,20251105-084826,810,Introduction,T1,1,Automatic,main,13,20260325-103057,global,local,750,S,S,A,E,S-A.png,E-S.png,sS,sS,mask-3.png,mask-3.png,s,1,0.3487209999002516,none,-5,0,0.09671459998935461,0.09522200003266335,0.19878190010786057,0.20015309983864427,0.7473908001556993
RSVPLG03,JM,20260325-102947,1.0.2,20251105-084826,810,Introduction,T1,1,Automatic,main,14,20260325-103101,local,local,750,S,H,E,A,E-S.png,A-H.png,sS,hH,mask-2.png,mask-3.png,s,1,0.3345107000786811,none,-5,0,0.09561210009269416,0.09731869981624186,0.19834899995476007,0.19931049994193017,0.7472566000651568
RSVPLG03,JM,20260325-102947,1.0.2,20251105-084826,810,Introduction,T1,1,Automatic,main,15,20260325-103106,local,global,750,H,S,E,E,E-H.png,S-E.png,hH,sS,mask-4.png,mask-3.png,h,1,0.3659839001484215,none,-5,0,0.09565670019946992,0.09558190009556711,0.19850200018845499,0.19864349998533726,0.7481066000182182
RSVPLG03,JM,20260325-102947,1.0.2,20251105-084826,810,Introduction,T1,1,Automatic,main,16,20260325-103110,local,local,750,S,H,E,A,E-S.png,A-H.png,sS,hH,mask-1.png,mask-2.png,s,1,0.3952735001221299,none,-5,0,0.09629809996113181,0.09648199984803796,0.2003075999673456,0.1986748999916017,0.7488138000480831
RSVPLG03,JM,20260325-103132,1.0.2,20251105-084826,810,Practice,T1,1,Automatic,main,1,20260325-103200,local,global,750,H,S,E,E,E-H.png,S-E.png,hH,sS,mask-4.png,mask-2.png,s,0,0.9115026998333633,none,-5,0,0.04085799981839955,0.04766180017031729,0.09412080002948642,0.09963409998454154,0.744505199836567
RSVPLG03,JM,20260325-103132,1.0.2,20251105-084826,810,Practice,T1,1,Automatic,main,2,20260325-103205,global,global,300,S,S,E,E,S-E.png,S-E.png,sS,sS,mask-4.png,mask-1.png,s,1,0.41985029983334243,none,-5,0,0.047653499990701675,0.048723199870437384,0.10183930001221597,0.09995149984024465,0.30045640002936125
RSVPLG03,JM,20260325-103132,1.0.2,20251105-084826,810,Practice,T1,1,Automatic,main,3,20260325-103209,global,global,750,S,H,E,E,S-E.png,H-E.png,sS,hH,mask-3.png,mask-1.png,s,1,0.44793010014109313,none,-5,0,0.047684499993920326,0.04580810014158487,0.09987680008634925,0.09912790008820593,0.7498312999960035
RSVPLG03,JM,20260325-103132,1.0.2,20251105-084826,810,Practice,T1,1,Automatic,main,4,20260325-103214,local,local,750,S,S,A,A,A-S.png,A-S.png,sS,sS,mask-1.png,mask-2.png,s,1,0.40769090014509857,none,-5,0,0.04665770009160042,0.045695200096815825,0.0998498999979347,0.09891499998047948,0.7502542000729591
RSVPLG03,JM,20260325-103132,1.0.2,20251105-084826,810,Practice,T1,1,Automatic,main,5,20260325-103218,global,local,300,S,S,A,E,S-A.png,E-S.png,sS,sS,mask-1.png,mask-4.png,s,1,0.42376290005631745,none,-5,0,0.048557600006461143,0.04567100014537573,0.0997438000049442,0.09887270000763237,0.3013474000617862
RSVPLG03,JM,20260325-103132,1.0.2,20251105-084826,810,Practice,T1,1,Automatic,main,6,20260325-103222,local,global,300,H,S,E,E,E-H.png,S-E.png,hH,sS,mask-2.png,mask-2.png,h,1,0.5566318000201136,none,-5,0,0.04656179994344711,0.046801399905234575,0.10070029995404184,0.10099119995720685,0.29981340002268553
RSVPLG03,JM,20260325-103132,1.0.2,20251105-084826,810,Practice,T1,1,Automatic,main,7,20260325-103226,local,global,300,H,H,A,A,A-H.png,H-A.png,hH,hH,mask-2.png,mask-1.png,h,1,0.40816479991190135,none,-5,0,0.047480500070378184,0.04927840013988316,0.10023260000161827,0.10024950001388788,0.3002001999411732
RSVPLG03,JM,20260325-103132,1.0.2,20251105-084826,810,Practice,T1,1,Automatic,main,8,20260325-103230,local,local,300,S,S,E,E,E-S.png,E-S.png,sS,sS,mask-4.png,mask-2.png,s,1,0.37278049997985363,none,-5,0,0.047660599928349257,0.047938100062310696,0.09964190004393458,0.09981569997034967,0.29984760005027056
RSVPLG03,JM,20260325-103132,1.0.2,20251105-084826,810,Practice,T1,1,Automatic,main,9,20260325-103234,local,local,300,S,H,E,A,E-S.png,A-H.png,sS,hH,mask-1.png,mask-2.png,s,1,0.336327200056985,none,-5,0,0.04863169998861849,0.04669349989853799,0.10083730006590486,0.099911900004372,0.30178460013121367
RSVPLG03,JM,20260325-103132,1.0.2,20251105-084826,810,Practice,T1,1,Automatic,main,10,20260325-103238,global,local,300,H,H,A,A,H-A.png,A-H.png,hH,hH,mask-3.png,mask-3.png,h,1,0.343386999797076,none,-5,0,0.04647200019098818,0.04670419986359775,0.09916199999861419,0.0999007998034358,0.3007059001829475
RSVPLG03,JM,20260325-103132,1.0.2,20251105-084826,810,Practice,T1,1,Automatic,main,11,20260325-103242,global,global,300,H,S,A,E,H-A.png,S-E.png,hH,sS,mask-4.png,mask-4.png,h,1,0.3635493000037968,none,-5,0,0.04667059984058142,0.04566029994748533,0.09888399997726083,0.09984169993549585,0.30022770003415644
RSVPLG03,JM,20260325-103132,1.0.2,20251105-084826,810,Practice,T1,1,Automatic,main,12,20260325-103246,local,global,750,S,S,A,A,A-S.png,S-A.png,sS,sS,mask-2.png,mask-1.png,s,1,0.41078880010172725,none,-5,0,0.04767480003647506,0.04767029988579452,0.0998686000239104,0.10185059998184443,0.7498667000327259
RSVPLG03,JM,20260325-103132,1.0.2,20251105-084826,810,Practice,T1,1,Automatic,main,13,20260325-103250,global,local,750,H,H,E,E,H-E.png,E-H.png,hH,hH,mask-3.png,mask-3.png,h,1,0.9261429000180215,none,-5,0,0.0476803001947701,0.04879629984498024,0.09883960010483861,0.09996360004879534,0.749284400139004
RSVPLG03,JM,20260325-103132,1.0.2,20251105-084826,810,Practice,T1,1,Automatic,main,14,20260325-103255,global,global,750,S,S,E,A,S-E.png,S-A.png,sS,sS,mask-3.png,mask-1.png,s,1,0.6458603998180479,none,-5,0,0.04751649987883866,0.04750490002334118,0.09959609992802143,0.09956700005568564,0.7500694999471307
RSVPLG03,JM,20260325-103132,1.0.2,20251105-084826,810,Practice,T1,1,Automatic,main,15,20260325-103300,global,local,750,S,S,E,E,S-E.png,E-S.png,sS,sS,mask-2.png,mask-3.png,h,0,0.42907349998131394,none,-5,0,0.04750980017706752,0.045718600042164326,0.09954200009815395,0.1000458998605609,0.7501696001272649
RSVPLG03,JM,20260325-103132,1.0.2,20251105-084826,810,Practice,T1,1,Automatic,main,16,20260325-103304,local,local,750,S,H,A,A,A-S.png,A-H.png,sS,hH,mask-4.png,mask-3.png,h,0,0.5507185000460595,none,-5,0,0.0459948000498116,0.047286299988627434,0.10005320003256202,0.100265400018543,0.749704800080508
RSVPLG03,JM,20260325-103336,1.0.2,20251105-084826,810,Introduction,Both,1,Automatic,main,1,20260325-103356,global,local,750,S,H,A,E,S-A.png,E-H.png,sS,hH,mask-2.png,mask-1.png,s,1,0.8334088001865894,h,1,0.7901421999558806,0.09230840019881725,0.09787820000201464,0.1931138001382351,0.20087749999947846,0.7440467001870275
RSVPLG03,JM,20260325-103336,1.0.2,20251105-084826,810,Introduction,Both,1,Automatic,main,2,20260325-103402,global,local,750,S,H,E,A,S-E.png,A-H.png,sS,hH,mask-2.png,mask-2.png,s,1,0.6011410998180509,h,1,0.7391071999445558,0.09765219991095364,0.09866799996234477,0.2006590999662876,0.20137910009361804,0.7497689998708665
RSVPLG03,JM,20260325-103336,1.0.2,20251105-084826,810,Introduction,Both,1,Automatic,main,3,20260325-103408,global,global,750,H,S,A,E,H-A.png,S-E.png,hH,sS,mask-4.png,mask-1.png,h,1,0.5088908998295665,s,1,0.5963721999432892,0.09657110017724335,0.0983853000216186,0.1985094000119716,0.20127969980239868,0.7492876001633704
RSVPLG03,JM,20260325-103336,1.0.2,20251105-084826,810,Introduction,Both,1,Automatic,main,4,20260325-103413,global,global,750,S,S,A,A,S-A.png,S-A.png,sS,sS,mask-1.png,mask-4.png,s,1,0.5678611001931131,s,1,0.4873446999117732,0.09776069992221892,0.0978498999029398,0.2014947000425309,0.20094699994660914,0.7511124999728054
RSVPLG03,JM,20260325-103336,1.0.2,20251105-084826,810,Introduction,Both,1,Automatic,main,5,20260325-103418,local,global,750,S,H,A,A,A-S.png,H-A.png,sS,hH,mask-3.png,mask-3.png,s,1,0.7004104000516236,h,1,0.3771886001341045,0.0974254000466317,0.09771899995394051,0.19947410002350807,0.19981020013801754,0.7502621999010444
RSVPLG03,JM,20260325-103336,1.0.2,20251105-084826,810,Introduction,Both,1,Automatic,main,6,20260325-103424,local,local,750,S,H,E,A,E-S.png,A-H.png,sS,hH,mask-1.png,mask-1.png,s,1,0.4732662998139858,h,1,0.4509254000149667,0.09840300003997982,0.09733540005981922,0.20116220018826425,0.19919409998692572,0.7517433001194149
RSVPLG03,JM,20260325-103336,1.0.2,20251105-084826,810,Introduction,Both,1,Automatic,main,7,20260325-103429,local,local,750,S,H,E,E,E-S.png,E-H.png,sS,hH,mask-3.png,mask-1.png,s,1,0.6319347000680864,s,0,0.3596405000425875,0.09736100002191961,0.09736720006912947,0.19924030010588467,0.1992532000876963,0.7507456999737769
RSVPLG03,JM,20260325-103336,1.0.2,20251105-084826,810,Introduction,Both,1,Automatic,main,8,20260325-103434,local,local,750,S,H,E,A,E-S.png,A-H.png,sS,hH,mask-4.png,mask-3.png,s,1,0.49631699989549816,h,1,0.2870207999367267,0.09673350001685321,0.09870660002343357,0.19998140004463494,0.20082600018940866,0.7484132000245154
RSVPLG03,JM,20260325-103336,1.0.2,20251105-084826,810,Introduction,Both,1,Automatic,main,9,20260325-103439,local,global,750,S,H,A,A,A-S.png,H-A.png,sS,hH,mask-1.png,mask-2.png,s,1,0.4223187000025064,h,1,0.3101971000432968,0.09770429995842278,0.09867239999584854,0.1987594999372959,0.2005005998071283,0.7484673000872135
RSVPLG03,JM,20260325-103336,1.0.2,20251105-084826,810,Introduction,Both,1,Automatic,main,10,20260325-103444,global,global,750,H,H,A,E,H-A.png,H-E.png,hH,hH,mask-4.png,mask-2.png,h,1,0.658447900088504,s,0,0.39048609999008477,0.0976675997953862,0.09776200004853308,0.20072239986620843,0.19980479986406863,0.7503277999348938
RSVPLG03,JM,20260325-103336,1.0.2,20251105-084826,810,Introduction,Both,1,Automatic,main,11,20260325-103450,local,global,750,H,S,A,E,A-H.png,S-E.png,hH,sS,mask-1.png,mask-3.png,h,1,0.7829303999897093,s,1,0.3141079999040812,0.09753630007617176,0.09752710000611842,0.20058589987456799,0.2005494001787156,0.7499102998990566
RSVPLG03,JM,20260325-103336,1.0.2,20251105-084826,810,Introduction,Both,1,Automatic,main,12,20260325-103455,global,global,750,S,H,A,A,S-A.png,H-A.png,sS,hH,mask-1.png,mask-1.png,s,1,0.491353299934417,h,1,0.28782420000061393,0.09736330015584826,0.09736000001430511,0.20022980007342994,0.20002170000225306,0.7503317000810057
RSVPLG03,JM,20260325-103336,1.0.2,20251105-084826,810,Introduction,Both,1,Automatic,main,13,20260325-103500,global,local,750,S,S,A,A,S-A.png,A-S.png,sS,sS,mask-2.png,mask-4.png,s,1,0.4078347999602556,s,1,0.31247739982791245,0.09874769998714328,0.09765549981966615,0.20101609989069402,0.20071629993617535,0.7493783000390977
RSVPLG03,JM,20260325-103336,1.0.2,20251105-084826,810,Introduction,Both,1,Automatic,main,14,20260325-103505,local,global,750,H,S,A,A,A-H.png,S-A.png,hH,sS,mask-4.png,mask-3.png,h,1,0.4187931998167187,s,1,0.2270129998214543,0.09652770007960498,0.09755200007930398,0.19836760009638965,0.19853650010190904,0.7502025000285357
RSVPLG03,JM,20260325-103336,1.0.2,20251105-084826,810,Introduction,Both,1,Automatic,main,15,20260325-103510,global,local,750,S,H,E,A,S-E.png,A-H.png,sS,hH,mask-3.png,mask-3.png,s,1,0.45840150001458824,h,1,0.1368505998980254,0.09752719989046454,0.09675000002607703,0.19957349984906614,0.2007200000807643,0.7493945998139679
RSVPLG03,JM,20260325-103336,1.0.2,20251105-084826,810,Introduction,Both,1,Automatic,main,16,20260325-103515,local,local,750,H,S,E,A,E-H.png,A-S.png,hH,sS,mask-4.png,mask-2.png,s,0,0.4429939000401646,h,0,0.6475872001610696,0.09740679990500212,0.09739559981971979,0.20030630007386208,0.20028109988197684,0.750167400110513
RSVPLG03,JM,20260325-103549,1.0.2,20251105-084826,810,Practice,Both,1,Automatic,main,1,20260325-103606,local,local,300,S,S,E,A,E-S.png,A-S.png,sS,sS,mask-2.png,mask-2.png,s,1,1.1559061000589281,h,0,0.4246427998878062,0.04612670000642538,0.0483619999140501,0.0984279999975115,0.10056859999895096,0.2980377001222223
RSVPLG03,JM,20260325-103549,1.0.2,20251105-084826,810,Practice,Both,1,Automatic,main,2,20260325-103611,global,global,750,H,H,E,A,H-E.png,H-A.png,hH,hH,mask-4.png,mask-3.png,h,1,0.7573345999699086,h,1,0.13029010011814535,0.04740049992688,0.04650339996442199,0.09920619986951351,0.09991910005919635,0.7500749998725951
RSVPLG03,JM,20260325-103549,1.0.2,20251105-084826,810,Practice,Both,1,Automatic,main,3,20260325-103616,global,local,750,H,H,A,E,H-A.png,E-H.png,hH,hH,mask-3.png,mask-1.png,h,1,0.7010280999820679,h,1,0.09044010005891323,0.04761040001176298,0.04870910011231899,0.09980689990334213,0.10090499999932945,0.7486743999179453
RSVPLG03,JM,20260325-103549,1.0.2,20251105-084826,810,Practice,Both,1,Automatic,main,4,20260325-103621,local,local,750,H,H,A,A,A-H.png,A-H.png,hH,hH,mask-2.png,mask-3.png,h,1,0.37485159980133176,h,1,0.11613300000317395,0.047804499976336956,0.045669599901884794,0.10198009992018342,0.09845670009963214,0.7520783999934793
RSVPLG03,JM,20260325-103549,1.0.2,20251105-084826,810,Practice,Both,1,Automatic,main,5,20260325-103626,local,global,750,H,H,E,A,E-H.png,H-A.png,hH,hH,mask-1.png,mask-1.png,h,1,0.38806160003878176,h,1,0.10319150006398559,0.04765600012615323,0.047849500086158514,0.10000830003991723,0.09956220001913607,0.749798099976033
RSVPLG03,JM,20260325-103549,1.0.2,20251105-084826,810,Practice,Both,1,Automatic,main,6,20260325-103630,global,global,300,S,S,E,A,S-E.png,S-A.png,sS,sS,mask-1.png,mask-2.png,s,1,1.4588160999119282,h,0,0.11949239997193217,0.047358299838379025,0.04779149987734854,0.10037390002980828,0.10017819982022047,0.2990490000229329
RSVPLG03,JM,20260325-103549,1.0.2,20251105-084826,810,Practice,Both,1,Automatic,main,7,20260325-103636,local,local,300,H,S,A,E,A-H.png,E-S.png,hH,sS,mask-3.png,mask-1.png,h,1,0.5770014999434352,s,1,0.13266449980437756,0.04791890014894307,0.04766989988274872,0.10111739998683333,0.09887099987827241,0.30074160010553896
RSVPLG03,JM,20260325-103549,1.0.2,20251105-084826,810,Practice,Both,1,Automatic,main,8,20260325-103640,global,global,750,S,S,E,E,S-E.png,S-E.png,sS,sS,mask-4.png,mask-4.png,s,1,0.5076586999930441,s,1,0.06806649989448488,0.046628099866211414,0.04777299985289574,0.09983159997500479,0.09985969983972609,0.7497574000153691
RSVPLG03,JM,20260325-103549,1.0.2,20251105-084826,810,Practice,Both,1,Automatic,main,9,20260325-103645,global,local,300,H,S,E,E,H-E.png,E-S.png,hH,sS,mask-4.png,mask-4.png,h,1,2.077070700004697,h,0,0.8124373001046479,0.046934499870985746,0.04658680013380945,0.09998729988001287,0.09891690011136234,0.3008774998597801
RSVPLG03,JM,20260325-103549,1.0.2,20251105-084826,810,Practice,Both,1,Automatic,main,10,20260325-103651,local,global,300,S,S,A,E,A-S.png,S-E.png,sS,sS,mask-4.png,mask-3.png,h,0,1.2291413000784814,s,1,0.12149800010956824,0.04754119995050132,0.04752989998087287,0.10056170006282628,0.10051809996366501,0.29984740004874766
RSVPLG03,JM,20260325-103549,1.0.2,20251105-084826,810,Practice,Both,1,Automatic,main,11,20260325-103656,global,local,300,S,S,E,E,S-E.png,E-S.png,sS,sS,mask-1.png,mask-3.png,s,1,0.717737500090152,h,0,0.08151599997654557,0.04753420013003051,0.048573700012639165,0.10052370000630617,0.10064979991875589,0.29955830005928874
RSVPLG03,JM,20260325-103549,1.0.2,20251105-084826,810,Practice,Both,1,Automatic,main,12,20260325-103701,global,local,750,H,S,A,A,H-A.png,A-S.png,hH,sS,mask-1.png,mask-1.png,h,1,0.3972034000325948,s,1,0.027512600179761648,0.04705159994773567,0.045703700045123696,0.10011080000549555,0.098887600004673,0.7506063999608159
RSVPLG03,JM,20260325-103549,1.0.2,20251105-084826,810,Practice,Both,1,Automatic,main,13,20260325-103705,global,global,300,S,S,E,A,S-E.png,S-A.png,sS,sS,mask-3.png,mask-1.png,h,0,0.6992504999507219,s,1,0.02706320001743734,0.047587200067937374,0.047612099908292294,0.09942620014771819,0.09970010002143681,0.30011120019480586
RSVPLG03,JM,20260325-103549,1.0.2,20251105-084826,810,Practice,Both,1,Automatic,main,14,20260325-103710,local,local,750,H,H,E,E,E-H.png,E-H.png,hH,hH,mask-4.png,mask-1.png,h,1,0.39709279988892376,h,1,0.10339060006663203,0.046677400125190616,0.04777330020442605,0.09987049992196262,0.10001560021191835,0.7500968999229372
RSVPLG03,JM,20260325-103549,1.0.2,20251105-084826,810,Practice,Both,1,Automatic,main,15,20260325-103714,local,global,300,H,H,A,E,A-H.png,H-E.png,hH,hH,mask-3.png,mask-2.png,h,1,0.3996412002015859,h,1,0.08416870003566146,0.04818210005760193,0.045106299920007586,0.10055520012974739,0.09884029999375343,0.30051220022141933
RSVPLG03,JM,20260325-103549,1.0.2,20251105-084826,810,Practice,Both,1,Automatic,main,16,20260325-103718,local,global,750,H,H,A,A,A-H.png,H-A.png,hH,hH,mask-3.png,mask-4.png,h,1,0.3001020001247525,h,1,0.04971499997191131,0.047584000043570995,0.045709299854934216,0.10069180000573397,0.09987479983828962,0.751476300181821
RSVPLG03,JM,20260325-103743,1.0.2,20251105-084826,810,Practice,Both,1,Automatic,main,1,20260325-103757,local,local,750,S,H,A,A,A-S.png,A-H.png,sS,hH,mask-3.png,mask-1.png,s,1,3.036235800012946,h,1,0.34660240006633103,0.03934910008683801,0.04667700012214482,0.09210100001655519,0.09986710012890399,0.7387300999835134
RSVPLG03,JM,20260325-103743,1.0.2,20251105-084826,810,Practice,Both,1,Automatic,main,2,20260325-103805,global,local,750,S,S,A,A,S-A.png,A-S.png,sS,sS,mask-4.png,mask-2.png,s,1,0.6314463999588042,h,0,0.31475879997015,0.046889400109648705,0.046718599973246455,0.09942290000617504,0.09798039984889328,0.747928700176999
RSVPLG03,JM,20260325-103743,1.0.2,20251105-084826,810,Practice,Both,1,Automatic,main,3,20260325-103810,local,global,300,H,S,A,E,A-H.png,S-E.png,hH,sS,mask-1.png,mask-4.png,h,1,0.6764404999557883,s,1,0.1026089999359101,0.04718800005502999,0.045936199836432934,0.10039309994317591,0.0981181999668479,0.30022320011630654
RSVPLG03,JM,20260325-103743,1.0.2,20251105-084826,810,Practice,Both,1,Automatic,main,4,20260325-103814,global,local,300,H,H,E,A,H-E.png,A-H.png,hH,hH,mask-4.png,mask-4.png,h,1,0.6043820001650602,h,1,0.1334834999870509,0.04787070001475513,0.047451999969780445,0.10004590009339154,0.0998446000739932,0.2988650999031961
RSVPLG03,JM,20260325-103743,1.0.2,20251105-084826,810,Practice,Both,1,Automatic,main,5,20260325-103819,local,local,300,S,S,A,E,A-S.png,E-S.png,sS,sS,mask-3.png,mask-1.png,h,0,2.8497212999500334,s,1,0.05737120006233454,0.04769930010661483,0.04869189998134971,0.09855200001038611,0.10086939996108413,0.2983101001009345
RSVPLG03,JM,20260325-103743,1.0.2,20251105-084826,810,Practice,Both,1,Automatic,main,6,20260325-103825,global,local,750,H,S,E,A,H-E.png,A-S.png,hH,sS,mask-4.png,mask-3.png,h,1,0.3859540999401361,h,0,0.05347219994291663,0.04721809993498027,0.047712699975818396,0.09956389991566539,0.099916199920699,0.7472506000194699
RSVPLG03,JM,20260325-103743,1.0.2,20251105-084826,810,Practice,Both,1,Automatic,main,7,20260325-103830,local,global,750,S,H,E,E,E-S.png,H-E.png,sS,hH,mask-4.png,mask-1.png,s,1,0.5608002999797463,h,1,0.08662509988062084,0.04673600010573864,0.04847220005467534,0.0993939999025315,0.10000360012054443,0.7461971999146044
RSVPLG03,JM,20260325-103743,1.0.2,20251105-084826,810,Practice,Both,1,Automatic,main,8,20260325-103835,local,global,750,H,S,A,A,A-H.png,S-A.png,hH,sS,mask-3.png,mask-4.png,h,1,1.1604042001999915,s,1,0.04329899977892637,0.0475163001101464,0.0477932000067085,0.10036560008302331,0.09989829990081489,0.7465826000552624
RSVPLG03,JM,20260325-103743,1.0.2,20251105-084826,810,Practice,Both,1,Automatic,main,9,20260325-103840,global,global,300,S,S,E,E,S-E.png,S-E.png,sS,sS,mask-2.png,mask-4.png,s,1,0.5354569999035448,s,1,0.48488200013525784,0.04652690002694726,0.046672899974510074,0.09965760004706681,0.09922039997763932,0.29926929995417595
RSVPLG03,JM,20260325-103743,1.0.2,20251105-084826,810,Practice,Both,1,Automatic,main,10,20260325-103845,global,global,300,H,H,A,A,H-A.png,H-A.png,hH,hH,mask-4.png,mask-1.png,h,1,0.6566953998990357,h,1,0.27770940004847944,0.04673719988204539,0.04791530012153089,0.09914899989962578,0.09894810011610389,0.29795819986611605
RSVPLG03,JM,20260325-103743,1.0.2,20251105-084826,810,Practice,Both,1,Automatic,main,11,20260325-103849,global,local,300,H,S,E,E,H-E.png,E-S.png,hH,sS,mask-4.png,mask-1.png,h,1,0.7930071000009775,s,1,0.03794329985976219,0.047563600121065974,0.045587100088596344,0.09945560013875365,0.09967550006695092,0.30014250008389354
RSVPLG03,JM,20260325-103743,1.0.2,20251105-084826,810,Practice,Both,1,Automatic,main,12,20260325-103854,global,global,750,S,H,E,E,S-E.png,H-E.png,sS,hH,mask-3.png,mask-1.png,s,1,0.3882494999561459,h,1,0.12544420012272894,0.04778709984384477,0.04832870000973344,0.10025219991803169,0.10029069986194372,0.7478680999483913
RSVPLG03,JM,20260325-103743,1.0.2,20251105-084826,810,Practice,Both,1,Automatic,main,13,20260325-103859,local,global,300,S,H,A,E,A-S.png,H-E.png,sS,hH,mask-1.png,mask-2.png,s,1,0.3997344998642802,h,1,0.10653969994746149,0.04621249996125698,0.04717430006712675,0.10014800005592406,0.09895969997160137,0.29946039989590645
RSVPLG03,JM,20260325-103743,1.0.2,20251105-084826,810,Practice,Both,1,Automatic,main,14,20260325-103903,local,local,750,S,S,E,A,E-S.png,A-S.png,sS,sS,mask-4.png,mask-3.png,s,1,0.7433480999898165,s,1,0.3411960999947041,0.046579299960285425,0.0460956001188606,0.09976030001416802,0.1000895001925528,0.7474566998425871
RSVPLG03,JM,20260325-103743,1.0.2,20251105-084826,810,Practice,Both,1,Automatic,main,15,20260325-103908,local,local,300,S,H,A,A,A-S.png,A-H.png,sS,hH,mask-2.png,mask-4.png,h,0,1.6415649999398738,s,0,0.2288467998150736,0.046727600041776896,0.04751319997012615,0.0979315999429673,0.09885050007142127,0.2976732000242919
RSVPLG03,JM,20260325-103743,1.0.2,20251105-084826,810,Practice,Both,1,Automatic,main,16,20260325-103913,global,global,750,S,H,E,A,S-E.png,H-A.png,sS,hH,mask-4.png,mask-2.png,s,1,0.6005235000047833,h,1,0.10902450000867248,0.045694899978116155,0.047994500026106834,0.09865120006725192,0.10150299989618361,0.7447361999657005
RSVPLG03,JM,20260325-103936,1.0.2,20251105-084826,810,Experiment,T1,1,Automatic,warmup,1,20260325-104010,local,global,750,S,S,A,E,A-S.png,S-E.png,sS,sS,mask-4.png,mask-2.png,s,1,0.4699200999457389,none,-5,0,0.041020600125193596,0.04869149997830391,0.09292500000447035,0.09989829990081489,0.7432609000243247
RSVPLG03,JM,20260325-103936,1.0.2,20251105-084826,810,Experiment,T1,1,Automatic,warmup,2,20260325-104014,local,local,300,H,H,A,E,A-H.png,E-H.png,hH,hH,mask-3.png,mask-2.png,h,1,0.33661080012097955,none,-5,0,0.04774360009469092,0.04698539990931749,0.10130030009895563,0.09973619994707406,0.3004626000765711
RSVPLG03,JM,20260325-103936,1.0.2,20251105-084826,810,Experiment,T1,1,Automatic,warmup,3,20260325-104018,local,global,300,H,H,A,E,A-H.png,H-E.png,hH,hH,mask-1.png,mask-2.png,h,1,0.3283052002079785,none,-5,0,0.04771970002911985,0.046674099983647466,0.0999304000288248,0.09886709996499121,0.3005381999537349
RSVPLG03,JM,20260325-103936,1.0.2,20251105-084826,810,Experiment,T1,1,Automatic,warmup,4,20260325-104022,global,local,750,H,S,E,A,H-E.png,A-S.png,hH,sS,mask-4.png,mask-3.png,h,1,0.34673239989206195,none,-5,0,0.04852010007016361,0.047519100131466985,0.1005432999227196,0.09948790003545582,0.7508201999589801
RSVPLG03,JM,20260325-103936,1.0.2,20251105-084826,810,Experiment,T1,1,Automatic,main,5,20260325-104026,global,global,300,H,H,A,E,H-A.png,H-E.png,hH,hH,mask-4.png,mask-1.png,h,1,0.34582739998586476,none,-5,0,0.04750620014965534,0.04762930003926158,0.09919870016165078,0.0998019000981003,0.2998772000428289
RSVPLG03,JM,20260325-103936,1.0.2,20251105-084826,810,Experiment,T1,1,Automatic,main,6,20260325-104030,local,local,750,H,S,E,A,E-H.png,A-S.png,hH,sS,mask-2.png,mask-2.png,h,1,0.3827297000680119,none,-5,0,0.047725200187414885,0.04882910009473562,0.09879159997217357,0.10103400005027652,0.74946069996804
RSVPLG03,JM,20260325-103936,1.0.2,20251105-084826,810,Experiment,T1,1,Automatic,main,7,20260325-104035,local,local,300,S,S,A,E,A-S.png,E-S.png,sS,sS,mask-4.png,mask-1.png,h,0,0.33100449992343783,none,-5,0,0.04817269998602569,0.04732240014709532,0.10021120007149875,0.10036889999173582,0.2998156000394374
RSVPLG03,JM,20260325-103936,1.0.2,20251105-084826,810,Experiment,T1,1,Automatic,main,8,20260325-104038,global,local,300,H,S,E,E,H-E.png,E-S.png,hH,sS,mask-3.png,mask-4.png,h,1,0.34824390010908246,none,-5,0,0.04790759994648397,0.04772559995763004,0.10097049991600215,0.09876930015161633,0.30058169993571937
RSVPLG03,JM,20260325-103936,1.0.2,20251105-084826,810,Experiment,T1,1,Automatic,main,9,20260325-104042,global,global,300,H,S,A,A,H-A.png,S-A.png,hH,sS,mask-2.png,mask-2.png,h,1,0.45188549999147654,none,-5,0,0.04655349999666214,0.047517200000584126,0.09961790009401739,0.10057659982703626,0.2998536000959575
RSVPLG03,JM,20260325-103936,1.0.2,20251105-084826,810,Experiment,T1,1,Automatic,main,10,20260325-104046,local,global,300,H,H,A,E,A-H.png,H-E.png,hH,hH,mask-1.png,mask-2.png,h,1,0.3739431998692453,none,-5,0,0.04767209989950061,0.046676799887791276,0.09987760009244084,0.09987649996764958,0.30051620001904666
RSVPLG03,JM,20260325-103936,1.0.2,20251105-084826,810,Experiment,T1,1,Automatic,main,11,20260325-104050,global,local,750,S,S,A,E,S-A.png,E-S.png,sS,sS,mask-3.png,mask-3.png,s,1,0.32844540011137724,none,-5,0,0.04772570007480681,0.04770440002903342,0.09815090009942651,0.10001499997451901,0.7499762999359518
RSVPLG03,JM,20260325-103936,1.0.2,20251105-084826,810,Experiment,T1,1,Automatic,main,12,20260325-104055,local,local,750,S,S,A,A,A-S.png,A-S.png,sS,sS,mask-1.png,mask-3.png,h,0,0.3658501000609249,none,-5,0,0.04869009996764362,0.04670020006597042,0.10081500001251698,0.09981180005706847,0.7518904998432845
RSVPLG03,JM,20260325-103936,1.0.2,20251105-084826,810,Experiment,T1,1,Automatic,main,13,20260325-104059,local,local,750,H,H,E,A,E-H.png,A-H.png,hH,hH,mask-1.png,mask-4.png,h,1,0.35663209995254874,none,-5,0,0.04751780000515282,0.04652870004065335,0.1019357000477612,0.09954450000077486,0.7525271999184042
RSVPLG03,JM,20260325-103936,1.0.2,20251105-084826,810,Experiment,T1,1,Automatic,main,14,20260325-104104,local,local,300,H,S,E,E,E-H.png,E-S.png,hH,sS,mask-4.png,mask-3.png,h,1,0.8601071001030505,none,-5,0,0.04828400001861155,0.04821340017952025,0.09849809994921088,0.10022600018419325,0.3000980999786407
RSVPLG03,JM,20260325-103936,1.0.2,20251105-084826,810,Experiment,T1,1,Automatic,main,15,20260325-104108,local,local,750,H,S,E,A,E-H.png,A-S.png,hH,sS,mask-3.png,mask-2.png,h,1,0.31094200001098216,none,-5,0,0.0457112998701632,0.04676740011200309,0.09981289994902909,0.09981410019099712,0.749846899881959
RSVPLG03,JM,20260325-103936,1.0.2,20251105-084826,810,Experiment,T1,1,Automatic,main,16,20260325-104112,local,global,750,S,H,E,E,E-S.png,H-E.png,sS,hH,mask-3.png,mask-1.png,s,1,0.30680790008045733,none,-5,0,0.046814899891614914,0.046693600015714765,0.1000785999931395,0.09906559996306896,0.7507283999584615
RSVPLG03,JM,20260325-103936,1.0.2,20251105-084826,810,Experiment,T1,1,Automatic,main,17,20260325-104117,local,local,750,S,S,A,E,A-S.png,E-S.png,sS,sS,mask-1.png,mask-1.png,h,0,0.26997960009612143,none,-5,0,0.048687499947845936,0.046700699953362346,0.09989879978820682,0.09991020010784268,0.7520259998273104
RSVPLG03,JM,20260325-103936,1.0.2,20251105-084826,810,Experiment,T1,1,Automatic,main,18,20260325-104121,global,global,750,S,S,E,E,S-E.png,S-E.png,sS,sS,mask-3.png,mask-3.png,s,1,0.24364020000211895,none,-5,0,0.047511500073596835,0.04738210001960397,0.10152620007283986,0.10012160008773208,0.7505729999393225
RSVPLG03,JM,20260325-103936,1.0.2,20251105-084826,810,Experiment,T1,1,Automatic,main,19,20260325-104125,local,local,300,S,S,E,E,E-S.png,E-S.png,sS,sS,mask-1.png,mask-1.png,s,1,0.3916335999965668,none,-5,0,0.04756499989889562,0.04752049990929663,0.10055610002018511,0.09961850009858608,0.30018969997763634
RSVPLG03,JM,20260325-103936,1.0.2,20251105-084826,810,Experiment,T1,1,Automatic,main,20,20260325-104129,global,global,750,S,H,E,A,S-E.png,H-A.png,sS,hH,mask-4.png,mask-3.png,s,1,0.25562640000134706,none,-5,0,0.04745449987240136,0.047542700078338385,0.10032540000975132,0.10165040008723736,0.7499124999158084
RSVPLG03,JM,20260325-103936,1.0.2,20251105-084826,810,Experiment,T1,1,Automatic,main,21,20260325-104133,global,local,300,S,S,A,A,S-A.png,A-S.png,sS,sS,mask-3.png,mask-1.png,s,1,0.3803548999130726,none,-5,0,0.04751379997469485,0.04561599995940924,0.09957179985940456,0.0996203999966383,0.3008910999633372
RSVPLG03,JM,20260325-103936,1.0.2,20251105-084826,810,Experiment,T1,1,Automatic,main,22,20260325-104137,global,global,300,S,S,A,A,S-A.png,S-A.png,sS,sS,mask-4.png,mask-4.png,s,1,0.32148650009185076,none,-5,0,0.04883070010691881,0.04771049995906651,0.10106780007481575,0.09996200003661215,0.30070660007186234
RSVPLG03,JM,20260325-103936,1.0.2,20251105-084826,810,Experiment,T1,1,Automatic,main,23,20260325-104141,local,global,750,H,S,E,E,E-H.png,S-E.png,hH,sS,mask-1.png,mask-1.png,h,1,0.2896652000490576,none,-5,0,0.047690900042653084,0.04762349999509752,0.09993560006842017,0.09922520001418889,0.7513449001125991
RSVPLG03,JM,20260325-103936,1.0.2,20251105-084826,810,Experiment,T1,1,Automatic,main,24,20260325-104146,local,local,300,H,H,A,A,A-H.png,A-H.png,hH,hH,mask-1.png,mask-2.png,h,1,0.38085600011982024,none,-5,0,0.04675680003128946,0.048529899911955,0.09914999990724027,0.10148470010608435,0.2990534999407828
RSVPLG03,JM,20260325-103936,1.0.2,20251105-084826,810,Experiment,T1,1,Automatic,main,25,20260325-104150,global,global,300,H,H,A,A,H-A.png,H-A.png,hH,hH,mask-4.png,mask-1.png,h,1,0.37880870001390576,none,-5,0,0.046738400124013424,0.047770699951797724,0.09892929997295141,0.09997520013712347,0.29955839994363487
RSVPLG03,JM,20260325-103936,1.0.2,20251105-084826,810,Experiment,T1,1,Automatic,main,26,20260325-104159,local,global,750,S,H,E,A,E-S.png,H-A.png,sS,hH,mask-3.png,mask-1.png,s,1,0.3341641998849809,none,-5,0,0.04750310000963509,0.04748229985125363,0.10050170007161796,0.09967579995281994,0.750145000172779
RSVPLG03,JM,20260325-103936,1.0.2,20251105-084826,810,Experiment,T1,1,Automatic,main,27,20260325-104203,global,global,750,S,H,E,A,S-E.png,H-A.png,sS,hH,mask-3.png,mask-2.png,s,1,0.3376556998118758,none,-5,0,0.046576600056141615,0.04878790001384914,0.0995919001288712,0.10099689988419414,0.7493348000571132
RSVPLG03,JM,20260325-103936,1.0.2,20251105-084826,810,Experiment,T1,1,Automatic,main,28,20260325-104207,global,local,750,H,S,E,A,H-E.png,A-S.png,hH,sS,mask-1.png,mask-4.png,h,1,0.33174119982868433,none,-5,0,0.04761689994484186,0.047617900185287,0.09969669999554753,0.09981920011341572,0.7495927999261767
RSVPLG03,JM,20260325-103936,1.0.2,20251105-084826,810,Experiment,T1,1,Automatic,main,29,20260325-104212,local,local,750,H,H,E,E,E-H.png,E-H.png,hH,hH,mask-3.png,mask-2.png,h,1,0.3228750000707805,none,-5,0,0.04767100000753999,0.046473999973386526,0.10166419995948672,0.09868870000354946,0.7521756999194622
RSVPLG03,JM,20260325-103936,1.0.2,20251105-084826,810,Experiment,T1,1,Automatic,main,30,20260325-104216,local,global,300,S,H,E,E,E-S.png,H-E.png,sS,hH,mask-4.png,mask-3.png,s,1,0.4889574002008885,none,-5,0,0.0474480998236686,0.04751179995946586,0.10048120003193617,0.09885159996338189,0.3003032999113202
RSVPLG03,JM,20260325-103936,1.0.2,20251105-084826,810,Experiment,T1,1,Automatic,main,31,20260325-104220,global,global,300,H,H,E,E,H-E.png,H-E.png,hH,hH,mask-4.png,mask-3.png,h,1,0.34399939980357885,none,-5,0,0.047676100162789226,0.046649300027638674,0.09985090000554919,0.09985949983820319,0.30039170011878014
RSVPLG03,JM,20260325-103936,1.0.2,20251105-084826,810,Experiment,T1,1,Automatic,main,32,20260325-104224,global,global,750,S,S,E,E,S-E.png,S-E.png,sS,sS,mask-4.png,mask-3.png,s,1,0.3267980997916311,none,-5,0,0.047780599910765886,0.04768089996650815,0.10136929992586374,0.10191179998219013,0.7503627999685705
RSVPLG03,JM,20260325-103936,1.0.2,20251105-084826,810,Experiment,T1,1,Automatic,main,33,20260325-104228,global,global,300,H,S,E,E,H-E.png,S-E.png,hH,sS,mask-4.png,mask-4.png,h,1,0.4231481000315398,none,-5,0,0.0481279999949038,0.04818149982020259,0.10031870007514954,0.10037059988826513,0.29993070010095835
RSVPLG03,JM,20260325-103936,1.0.2,20251105-084826,810,Experiment,T1,1,Automatic,main,34,20260325-104232,local,global,300,H,H,A,A,A-H.png,H-A.png,hH,hH,mask-2.png,mask-2.png,h,1,0.3343608002178371,none,-5,0,0.04735289979726076,0.0477421001996845,0.09998299996368587,0.09921230003237724,0.30042659980244935
RSVPLG03,JM,20260325-103936,1.0.2,20251105-084826,810,Experiment,T1,1,Automatic,main,35,20260325-104236,local,local,750,H,S,A,E,A-H.png,E-S.png,hH,sS,mask-2.png,mask-4.png,h,1,0.23395489994436502,none,-5,0,0.04771489999257028,0.04572930000722408,0.1001186000648886,0.09992310008965433,0.75177580001764
RSVPLG03,JM,20260325-103936,1.0.2,20251105-084826,810,Experiment,T1,1,Automatic,main,36,20260325-104241,local,local,750,H,H,E,A,E-H.png,A-H.png,hH,hH,mask-2.png,mask-1.png,h,1,0.2560604000464082,none,-5,0,0.04667389998212457,0.04761849995702505,0.10009000007994473,0.09982439992018044,0.7500231000594795
RSVPLG03,JM,20260325-103936,1.0.2,20251105-084826,810,Experiment,T1,1,Automatic,main,37,20260325-104245,global,local,300,S,H,E,E,S-E.png,E-H.png,sS,hH,mask-4.png,mask-2.png,s,1,0.33142870012670755,none,-5,0,0.04764369991607964,0.04766150005161762,0.0997252999804914,0.0996777000837028,0.3002255999017507
RSVPLG03,JM,20260325-103936,1.0.2,20251105-084826,810,Experiment,T1,1,Automatic,main,38,20260325-104249,global,global,750,S,H,E,A,S-E.png,H-A.png,sS,hH,mask-2.png,mask-2.png,s,1,0.24974970007315278,none,-5,0,0.04748369986191392,0.046015899861231446,0.09847029997035861,0.09913380001671612,0.7506778999231756
RSVPLG03,JM,20260325-103936,1.0.2,20251105-084826,810,Experiment,T1,1,Automatic,main,39,20260325-104253,local,global,300,S,S,A,E,A-S.png,S-E.png,sS,sS,mask-1.png,mask-1.png,h,0,0.39774480019696057,none,-5,0,0.04767669993452728,0.04870339995250106,0.10187810007482767,0.10191009985283017,0.30026270006783307
RSVPLG03,JM,20260325-103936,1.0.2,20251105-084826,810,Experiment,T1,1,Automatic,main,40,20260325-104257,local,global,750,S,S,A,E,A-S.png,S-E.png,sS,sS,mask-4.png,mask-4.png,h,0,1.1018894000444561,none,-5,0,0.04770009987987578,0.04893060005269945,0.10000399989075959,0.1016795001924038,0.7500649997964501
RSVPLG03,JM,20260325-103936,1.0.2,20251105-084826,810,Experiment,T1,1,Automatic,main,41,20260325-104302,local,global,750,S,H,E,A,E-S.png,H-A.png,sS,hH,mask-4.png,mask-2.png,s,1,0.2987384998705238,none,-5,0,0.047726600198075175,0.0478322000708431,0.1003527999855578,0.09940700000151992,0.7514526001177728
RSVPLG03,JM,20260325-103936,1.0.2,20251105-084826,810,Experiment,T1,1,Automatic,main,42,20260325-104306,global,local,750,S,S,A,E,S-A.png,E-S.png,sS,sS,mask-2.png,mask-4.png,s,1,0.34507549996487796,none,-5,0,0.04568980005569756,0.04768840014003217,0.09978930000215769,0.09989680000580847,0.7495176999364048
RSVPLG03,JM,20260325-103936,1.0.2,20251105-084826,810,Experiment,T1,1,Automatic,main,43,20260325-104311,local,global,750,S,H,E,A,E-S.png,H-A.png,sS,hH,mask-2.png,mask-2.png,s,1,0.25592130003497005,none,-5,0,0.04679189994931221,0.048622499918565154,0.10000249999575317,0.10045899986289442,0.7498870000708848
RSVPLG03,JM,20260325-103936,1.0.2,20251105-084826,810,Experiment,T1,1,Automatic,main,44,20260325-104315,global,local,300,H,H,E,A,H-E.png,A-H.png,hH,hH,mask-2.png,mask-1.png,h,1,0.3853343001101166,none,-5,0,0.04611029988154769,0.04766319994814694,0.09890089998953044,0.10084460000507534,0.2995672000106424
RSVPLG03,JM,20260325-103936,1.0.2,20251105-084826,810,Experiment,T1,1,Automatic,main,45,20260325-104319,local,global,750,H,S,E,A,E-H.png,S-A.png,hH,sS,mask-2.png,mask-1.png,h,1,0.3338384998496622,none,-5,0,0.04752290016040206,0.04752209992147982,0.09954700013622642,0.10053299996070564,0.7498002001084387
RSVPLG03,JM,20260325-103936,1.0.2,20251105-084826,810,Experiment,T1,1,Automatic,main,46,20260325-104323,local,global,750,H,S,E,A,E-H.png,S-A.png,hH,sS,mask-4.png,mask-2.png,h,1,0.07848549983464181,none,-5,0,0.048528899904340506,0.04768570000305772,0.09957439987920225,0.09990080003626645,0.7504759998992085
RSVPLG03,JM,20260325-103936,1.0.2,20251105-084826,810,Experiment,T1,1,Automatic,main,47,20260325-104327,global,global,750,H,H,E,A,H-E.png,H-A.png,hH,hH,mask-4.png,mask-2.png,h,1,0.3354032998904586,none,-5,0,0.047588400077074766,0.047789999982342124,0.1006442999932915,0.10009169997647405,0.7510081001091748
RSVPLG03,JM,20260325-103936,1.0.2,20251105-084826,810,Experiment,T1,1,Automatic,main,48,20260325-104332,global,local,750,H,H,E,E,H-E.png,E-H.png,hH,hH,mask-3.png,mask-2.png,h,1,0.3506018000189215,none,-5,0,0.047758799977600574,0.04849950014613569,0.09996989998035133,0.10087510012090206,0.7499587999191135
RSVPLG03,JM,20260325-103936,1.0.2,20251105-084826,810,Experiment,T1,1,Automatic,main,49,20260325-104336,global,global,750,H,H,A,E,H-A.png,H-E.png,hH,hH,mask-4.png,mask-2.png,h,1,0.8343416000716388,none,-5,0,0.046758600044995546,0.04891079990193248,0.09983199997805059,0.09946639998815954,0.7498962001409382
RSVPLG03,JM,20260325-103936,1.0.2,20251105-084826,810,Experiment,T1,1,Automatic,main,50,20260325-104341,local,local,300,H,S,A,E,A-H.png,E-S.png,hH,sS,mask-4.png,mask-1.png,h,1,0.6557708999607712,none,-5,0,0.04670079983770847,0.0483391999732703,0.0988886000122875,0.10156750003807247,0.2984261999372393
RSVPLG03,JM,20260325-103936,1.0.2,20251105-084826,810,Experiment,T1,1,Automatic,main,51,20260325-104350,local,global,300,S,S,A,A,A-S.png,S-A.png,sS,sS,mask-2.png,mask-2.png,h,0,0.44555220007896423,none,-5,0,0.04760379996150732,0.0466414000838995,0.10064109996892512,0.09972779988311231,0.30124290008097887
RSVPLG03,JM,20260325-103936,1.0.2,20251105-084826,810,Experiment,T1,1,Automatic,main,52,20260325-104354,local,global,750,H,H,A,A,A-H.png,H-A.png,hH,hH,mask-1.png,mask-2.png,h,1,0.23286179988645017,none,-5,0,0.0486308999825269,0.04673859989270568,0.10081070009618998,0.09994439990259707,0.7520721000619233
RSVPLG03,JM,20260325-103936,1.0.2,20251105-084826,810,Experiment,T1,1,Automatic,main,53,20260325-104358,global,global,300,S,H,E,A,S-E.png,H-A.png,sS,hH,mask-4.png,mask-4.png,h,0,0.40244569978676736,none,-5,0,0.047893699957057834,0.047649700194597244,0.10029360000044107,0.1000355000142008,0.30014629987999797
RSVPLG03,JM,20260325-103936,1.0.2,20251105-084826,810,Experiment,T1,1,Automatic,main,54,20260325-104402,global,global,300,H,H,A,E,H-A.png,H-E.png,hH,hH,mask-2.png,mask-4.png,h,1,0.35714670014567673,none,-5,0,0.04685300006531179,0.04569300008006394,0.09924890007823706,0.09944020002149045,0.30089160008355975
RSVPLG03,JM,20260325-103936,1.0.2,20251105-084826,810,Experiment,T1,1,Automatic,main,55,20260325-104406,global,global,750,H,S,E,E,H-E.png,S-E.png,hH,sS,mask-2.png,mask-1.png,h,1,0.29581949999555945,none,-5,0,0.04770699981600046,0.04768499988131225,0.09836949990130961,0.1004847998265177,0.749876799993217
RSVPLG03,JM,20260325-103936,1.0.2,20251105-084826,810,Experiment,T1,1,Automatic,main,56,20260325-104410,global,local,750,S,H,A,E,S-A.png,E-H.png,sS,hH,mask-3.png,mask-2.png,s,1,0.22821940016001463,none,-5,0,0.04680590005591512,0.047692300053313375,0.09901530016213655,0.09823699994012713,0.7510339000727981
RSVPLG03,JM,20260325-103936,1.0.2,20251105-084826,810,Experiment,T1,1,Automatic,main,57,20260325-104414,global,local,300,H,S,E,A,H-E.png,A-S.png,hH,sS,mask-4.png,mask-1.png,h,1,0.4557141000404954,none,-5,0,0.046674600103870034,0.04682609997689724,0.09987969999201596,0.09925909992307425,0.29967900016345084
RSVPLG03,JM,20260325-103936,1.0.2,20251105-084826,810,Experiment,T1,1,Automatic,main,58,20260325-104418,global,local,300,S,S,E,A,S-E.png,A-S.png,sS,sS,mask-4.png,mask-3.png,s,1,0.43352549988776445,none,-5,0,0.04753480013459921,0.04753180011175573,0.09954309999011457,0.10059019993059337,0.2998152000363916
RSVPLG03,JM,20260325-103936,1.0.2,20251105-084826,810,Experiment,T1,1,Automatic,main,59,20260325-104422,global,global,750,S,S,A,E,S-A.png,S-E.png,sS,sS,mask-1.png,mask-2.png,s,1,0.36158810020424426,none,-5,0,0.047498200088739395,0.04771880013868213,0.09947810019366443,0.10035140020772815,0.7502752000000328
RSVPLG03,JM,20260325-103936,1.0.2,20251105-084826,810,Experiment,T1,1,Automatic,main,60,20260325-104427,local,global,300,S,S,A,A,A-S.png,S-A.png,sS,sS,mask-2.png,mask-3.png,s,1,0.4116342000197619,none,-5,0,0.047527800081297755,0.048483600141480565,0.10054420004598796,0.10051730019040406,0.2998039999511093
RSVPLG03,JM,20260325-103936,1.0.2,20251105-084826,810,Experiment,T1,1,Automatic,main,61,20260325-104431,local,global,750,H,H,A,A,A-H.png,H-A.png,hH,hH,mask-4.png,mask-2.png,h,1,0.21522799995727837,none,-5,0,0.04769010003656149,0.04770289990119636,0.09991220012307167,0.09990909998305142,0.7498008001130074
RSVPLG03,JM,20260325-103936,1.0.2,20251105-084826,810,Experiment,T1,1,Automatic,main,62,20260325-104435,global,local,300,S,H,A,E,S-A.png,E-H.png,sS,hH,mask-2.png,mask-3.png,s,1,0.42668729997240007,none,-5,0,0.047754399944096804,0.04793839994817972,0.10006590001285076,0.10111960000358522,0.2999968999065459
RSVPLG03,JM,20260325-103936,1.0.2,20251105-084826,810,Experiment,T1,1,Automatic,main,63,20260325-104439,local,global,300,S,S,A,E,A-S.png,S-E.png,sS,sS,mask-2.png,mask-1.png,s,1,0.3739970999304205,none,-5,0,0.04773940006271005,0.04770200001075864,0.09896329999901354,0.10190790006890893,0.29865900008007884
RSVPLG03,JM,20260325-103936,1.0.2,20251105-084826,810,Experiment,T1,1,Automatic,main,64,20260325-104443,local,local,300,S,H,E,E,E-S.png,E-H.png,sS,hH,mask-2.png,mask-2.png,s,1,0.3257409001234919,none,-5,0,0.04749369993805885,0.04727809992618859,0.09866619994863868,0.09863790008239448,0.30029099993407726
RSVPLG03,JM,20260325-103936,1.0.2,20251105-084826,810,Experiment,T1,1,Automatic,main,65,20260325-104447,global,global,750,H,H,A,A,H-A.png,H-A.png,hH,hH,mask-1.png,mask-1.png,h,1,0.3742511000018567,none,-5,0,0.04769460018724203,0.04769250005483627,0.09987240005284548,0.10090610012412071,0.7495166000444442
RSVPLG03,JM,20260325-103936,1.0.2,20251105-084826,810,Experiment,T1,1,Automatic,main,66,20260325-104451,global,global,300,S,H,A,A,S-A.png,H-A.png,sS,hH,mask-1.png,mask-3.png,s,1,0.5780534001532942,none,-5,0,0.047975199995562434,0.047702400013804436,0.09984720009379089,0.09991350001655519,0.30185350007377565
RSVPLG03,JM,20260325-103936,1.0.2,20251105-084826,810,Experiment,T1,1,Automatic,main,67,20260325-104455,global,local,750,S,S,E,E,S-E.png,E-S.png,sS,sS,mask-3.png,mask-3.png,s,1,0.29537080018781126,none,-5,0,0.048560099909082055,0.04749249992892146,0.10057289991527796,0.10050679999403656,0.750595899997279
RSVPLG03,JM,20260325-103936,1.0.2,20251105-084826,810,Experiment,T1,1,Automatic,main,68,20260325-104500,local,global,300,S,H,A,A,A-S.png,H-A.png,sS,hH,mask-1.png,mask-3.png,s,1,0.4990295998286456,none,-5,0,0.045748099917545915,0.046049300115555525,0.09936899994499981,0.09942720015533268,0.3002021999564022
RSVPLG03,JM,20260325-103936,1.0.2,20251105-084826,810,Experiment,T1,1,Automatic,main,69,20260325-104504,local,local,300,H,S,A,A,A-H.png,A-S.png,hH,sS,mask-4.png,mask-2.png,h,1,0.3262135998811573,none,-5,0,0.0475399000570178,0.04752470017410815,0.09858410013839602,0.09873130009509623,0.2998581000138074
RSVPLG03,JM,20260325-103936,1.0.2,20251105-084826,810,Experiment,T1,1,Automatic,main,70,20260325-104507,local,local,750,H,S,A,E,A-H.png,E-S.png,hH,sS,mask-1.png,mask-3.png,h,1,0.33417599997483194,none,-5,0,0.04841739987023175,0.04752000002190471,0.10140779986977577,0.0994917000643909,0.7516112998127937
RSVPLG03,JM,20260325-103936,1.0.2,20251105-084826,810,Experiment,T1,1,Automatic,main,71,20260325-104512,local,global,300,H,H,E,E,E-H.png,H-E.png,hH,hH,mask-2.png,mask-2.png,h,1,0.3922839998267591,none,-5,0,0.04726070002652705,0.047697899863123894,0.098495899932459,0.0989772998727858,0.29959370009601116
RSVPLG03,JM,20260325-103936,1.0.2,20251105-084826,810,Experiment,T1,1,Automatic,main,72,20260325-104516,global,global,300,H,H,A,E,H-A.png,H-E.png,hH,hH,mask-3.png,mask-4.png,h,1,0.3550324998795986,none,-5,0,0.04748870013281703,0.04756460012868047,0.10070790001191199,0.10174840013496578,0.30033380002714694
RSVPLG03,JM,20260325-103936,1.0.2,20251105-084826,810,Experiment,T1,1,Automatic,main,73,20260325-104520,local,global,300,H,H,A,A,A-H.png,H-A.png,hH,hH,mask-1.png,mask-1.png,h,1,0.27773369988426566,none,-5,0,0.047357199946418405,0.047377599868923426,0.09971749992109835,0.10063409991562366,0.2988430999685079
RSVPLG03,JM,20260325-103936,1.0.2,20251105-084826,810,Experiment,T1,1,Automatic,main,74,20260325-104523,local,local,750,S,S,E,E,E-S.png,E-S.png,sS,sS,mask-1.png,mask-3.png,h,0,0.43604870000854135,none,-5,0,0.04703040001913905,0.048718699952587485,0.10014169989153743,0.10001119994558394,0.75047089997679
RSVPLG03,JM,20260325-103936,1.0.2,20251105-084826,810,Experiment,T1,1,Automatic,main,75,20260325-104528,local,global,300,H,S,E,A,E-H.png,S-A.png,hH,sS,mask-4.png,mask-1.png,h,1,0.4332869998179376,none,-5,0,0.04787459992803633,0.04681790014728904,0.10027859988622367,0.10021080006845295,0.3003274998627603
RSVPLG03,JM,20260325-103936,1.0.2,20251105-084826,810,Experiment,T1,1,Automatic,main,76,20260325-104535,global,global,300,H,S,A,E,H-A.png,S-E.png,hH,sS,mask-4.png,mask-2.png,h,1,0.3670061999000609,none,-5,0,0.04576390003785491,0.04792760009877384,0.10015129996463656,0.1002853000536561,0.29972829995676875
RSVPLG03,JM,20260325-103936,1.0.2,20251105-084826,810,Experiment,T1,1,Automatic,main,77,20260325-104539,local,local,300,H,H,A,E,A-H.png,E-H.png,hH,hH,mask-3.png,mask-1.png,h,1,0.1182886001188308,none,-5,0,0.04651009989902377,0.04613079992122948,0.09860179992392659,0.10022030002437532,0.3003517999313772
RSVPLG03,JM,20260325-103936,1.0.2,20251105-084826,810,Experiment,T1,1,Automatic,main,78,20260325-104543,local,local,750,H,H,E,A,E-H.png,A-H.png,hH,hH,mask-2.png,mask-4.png,h,1,0.3424180999863893,none,-5,0,0.046708199894055724,0.046693400014191866,0.09993129991926253,0.09990280005149543,0.7501468998380005
RSVPLG03,JM,20260325-103936,1.0.2,20251105-084826,810,Experiment,T1,1,Automatic,main,79,20260325-104547,global,local,750,H,S,E,E,H-E.png,E-S.png,hH,sS,mask-1.png,mask-4.png,h,1,0.22624389990232885,none,-5,0,0.04633900010958314,0.04772659996524453,0.10040650004521012,0.099782400066033,0.7500762001145631
RSVPLG03,JM,20260325-103936,1.0.2,20251105-084826,810,Experiment,T1,1,Automatic,main,80,20260325-104551,global,global,750,H,S,E,E,H-E.png,S-E.png,hH,sS,mask-1.png,mask-4.png,h,1,0.25872679986059666,none,-5,0,0.047846300061792135,0.04809450008906424,0.10022110003046691,0.09925940004177392,0.752303299959749
RSVPLG03,JM,20260325-103936,1.0.2,20251105-084826,810,Experiment,T1,1,Automatic,main,81,20260325-104556,global,local,300,S,S,E,A,S-E.png,A-S.png,sS,sS,mask-1.png,mask-1.png,h,0,0.3997492999769747,none,-5,0,0.04739840002730489,0.04820719989947975,0.10064180009067059,0.1006448999978602,0.3001934001222253
RSVPLG03,JM,20260325-103936,1.0.2,20251105-084826,810,Experiment,T1,1,Automatic,main,82,20260325-104600,local,local,300,H,H,E,E,E-H.png,E-H.png,hH,hH,mask-2.png,mask-1.png,h,1,1.2022629999555647,none,-5,0,0.04575919988565147,0.04857470002025366,0.09982859995216131,0.10026370012201369,0.2991795998532325
RSVPLG03,JM,20260325-103936,1.0.2,20251105-084826,810,Experiment,T1,1,Automatic,main,83,20260325-104604,local,global,750,S,H,A,A,A-S.png,H-A.png,sS,hH,mask-4.png,mask-2.png,s,1,0.2713321999181062,none,-5,0,0.04672079998999834,0.047774899983778596,0.09993579983711243,0.10099259996786714,0.7490143999457359
RSVPLG03,JM,20260325-103936,1.0.2,20251105-084826,810,Experiment,T1,1,Automatic,main,84,20260325-104609,global,local,300,S,S,E,A,S-E.png,A-S.png,sS,sS,mask-2.png,mask-1.png,s,1,0.3925933998543769,none,-5,0,0.04770129988901317,0.0467501999810338,0.10093549988232553,0.0997248999774456,0.30071599991060793
RSVPLG03,JM,20260325-103936,1.0.2,20251105-084826,810,Experiment,T1,1,Automatic,main,85,20260325-104613,global,global,750,H,H,E,E,H-E.png,H-E.png,hH,hH,mask-2.png,mask-1.png,h,1,0.39565439987927675,none,-5,0,0.047379299998283386,0.04751649987883866,0.10042400006204844,0.09881339990533888,0.7497610000427812
RSVPLG03,JM,20260325-103936,1.0.2,20251105-084826,810,Experiment,T1,1,Automatic,main,86,20260325-104617,local,local,300,H,S,E,E,E-H.png,E-S.png,hH,sS,mask-2.png,mask-3.png,h,1,1.1979951998218894,none,-5,0,0.04768509999848902,0.04762950004078448,0.10075129987671971,0.09983920003287494,0.30039969994686544
RSVPLG03,JM,20260325-103936,1.0.2,20251105-084826,810,Experiment,T1,1,Automatic,main,87,20260325-104622,local,global,750,H,H,A,E,A-H.png,H-E.png,hH,hH,mask-1.png,mask-2.png,h,1,0.3150065999943763,none,-5,0,0.04770589992403984,0.04794449987821281,0.10092739993706346,0.10020409990102053,0.7510949000716209
RSVPLG03,JM,20260325-103936,1.0.2,20251105-084826,810,Experiment,T1,1,Automatic,main,88,20260325-104626,global,local,750,S,S,A,E,S-A.png,E-S.png,sS,sS,mask-4.png,mask-1.png,s,1,0.3481197999790311,none,-5,0,0.04851539991796017,0.047631099820137024,0.10007809987291694,0.09844390000216663,0.7524965000338852
RSVPLG03,JM,20260325-103936,1.0.2,20251105-084826,810,Experiment,T1,1,Automatic,main,89,20260325-104631,local,local,300,H,H,A,A,A-H.png,A-H.png,hH,hH,mask-1.png,mask-3.png,h,1,0.3158682999201119,none,-5,0,0.04789320006966591,0.04682300006970763,0.10012120008468628,0.0999901001341641,0.3002828999888152
RSVPLG03,JM,20260325-103936,1.0.2,20251105-084826,810,Experiment,T1,1,Automatic,main,90,20260325-104634,global,local,750,H,S,A,E,H-A.png,E-S.png,hH,sS,mask-4.png,mask-4.png,h,1,0.35998630011454225,none,-5,0,0.04688809998333454,0.04691929998807609,0.0992695998866111,0.10039369994774461,0.749727200018242
RSVPLG03,JM,20260325-103936,1.0.2,20251105-084826,810,Experiment,T1,1,Automatic,main,91,20260325-104639,global,local,750,S,S,E,E,S-E.png,E-S.png,sS,sS,mask-3.png,mask-3.png,s,1,0.3057315000332892,none,-5,0,0.04868619982153177,0.04868100001476705,0.09998789988458157,0.10088070016354322,0.7502334997989237
RSVPLG03,JM,20260325-103936,1.0.2,20251105-084826,810,Experiment,T1,1,Automatic,main,92,20260325-104643,global,local,750,S,S,E,E,S-E.png,E-S.png,sS,sS,mask-1.png,mask-2.png,s,1,0.32174809998832643,none,-5,0,0.047306900145486,0.04781349981203675,0.10009220009669662,0.09985599992796779,0.7504913001321256
RSVPLG03,JM,20260325-103936,1.0.2,20251105-084826,810,Experiment,T1,1,Automatic,main,93,20260325-104648,global,global,300,S,S,E,A,S-E.png,S-A.png,sS,sS,mask-3.png,mask-1.png,s,1,0.4861190998926759,none,-5,0,0.046714199939742684,0.047592899994924664,0.09992179996334016,0.09967919997870922,0.29949959996156394
RSVPLG03,JM,20260325-103936,1.0.2,20251105-084826,810,Experiment,T1,1,Automatic,main,94,20260325-104652,local,local,750,S,S,E,A,E-S.png,A-S.png,sS,sS,mask-4.png,mask-4.png,s,1,0.15607769996859133,none,-5,0,0.046854899963364005,0.047857899917289615,0.10025419993326068,0.10092410002835095,0.7501012999564409
RSVPLG03,JM,20260325-103936,1.0.2,20251105-084826,810,Experiment,T1,1,Automatic,main,95,20260325-104656,global,local,300,S,H,A,A,S-A.png,A-H.png,sS,hH,mask-2.png,mask-1.png,s,1,0.4118977999314666,none,-5,0,0.04772659996524453,0.0487209998536855,0.09881950006820261,0.10015549999661744,0.2994625000283122
RSVPLG03,JM,20260325-103936,1.0.2,20251105-084826,810,Experiment,T1,1,Automatic,main,96,20260325-104700,local,local,300,H,S,E,E,E-H.png,E-S.png,hH,sS,mask-4.png,mask-4.png,h,1,1.2085824001114815,none,-5,0,0.046609000070020556,0.04767540004104376,0.10070790001191199,0.10184470005333424,0.29905589995905757
RSVPLG03,JM,20260325-103936,1.0.2,20251105-084826,810,Experiment,T1,1,Automatic,main,97,20260325-104705,global,local,750,H,S,E,E,H-E.png,E-S.png,hH,sS,mask-2.png,mask-3.png,h,1,0.3934694000054151,none,-5,0,0.04674050002358854,0.04861419997178018,0.09991970006376505,0.10190850007347763,0.7491015000268817
RSVPLG03,JM,20260325-103936,1.0.2,20251105-084826,810,Experiment,T1,1,Automatic,main,98,20260325-104709,global,local,300,H,S,E,E,H-E.png,E-S.png,hH,sS,mask-3.png,mask-2.png,h,1,0.3212400998454541,none,-5,0,0.04759690002538264,0.04663130012340844,0.0997649000491947,0.09865120006725192,0.3004511999897659
RSVPLG03,JM,20260325-103936,1.0.2,20251105-084826,810,Experiment,T1,1,Automatic,main,99,20260325-104713,global,local,300,H,S,A,A,H-A.png,A-S.png,hH,sS,mask-4.png,mask-1.png,h,1,0.37069690017960966,none,-5,0,0.04771800013259053,0.04770180000923574,0.09926469996571541,0.09990320005454123,0.29971079993993044
RSVPLG03,JM,20260325-103936,1.0.2,20251105-084826,810,Experiment,T1,1,Automatic,main,100,20260325-104717,local,global,300,S,S,E,E,E-S.png,S-E.png,sS,sS,mask-3.png,mask-3.png,s,1,0.4351818000432104,none,-5,0,0.047425400000065565,0.047632599947974086,0.09794360003434122,0.10067699989303946,0.29873180016875267
RSVPLG03,JM,20260325-104744,1.0.2,20251105-084826,810,Experiment,Both,1,Automatic,warmup,1,20260325-104800,global,global,750,S,S,A,E,S-A.png,S-E.png,sS,sS,mask-1.png,mask-4.png,s,1,0.42244080011732876,s,1,0.07560310000553727,0.04527879995293915,0.04741750005632639,0.09841100010089576,0.10041640000417829,0.7497429000213742
RSVPLG03,JM,20260325-104744,1.0.2,20251105-084826,810,Experiment,Both,1,Automatic,warmup,2,20260325-104805,global,local,750,H,S,A,A,H-A.png,A-S.png,hH,sS,mask-2.png,mask-4.png,h,1,0.40203170012682676,s,1,0.112866299925372,0.046694899909198284,0.04594859993085265,0.09990449994802475,0.10023349989205599,0.7524280999787152
RSVPLG03,JM,20260325-104744,1.0.2,20251105-084826,810,Experiment,Both,1,Automatic,warmup,3,20260325-104809,global,local,300,H,S,A,E,H-A.png,E-S.png,hH,sS,mask-1.png,mask-4.png,h,1,0.4996121998410672,s,1,0.21403430006466806,0.0477785998955369,0.0474394999910146,0.10088969999924302,0.10067180008627474,0.3005406998563558
RSVPLG03,JM,20260325-104744,1.0.2,20251105-084826,810,Experiment,Both,1,Automatic,warmup,4,20260325-104814,local,global,300,H,S,E,A,E-H.png,S-A.png,hH,sS,mask-2.png,mask-4.png,s,0,0.38326329994015396,h,0,0.23430719994939864,0.04769910010509193,0.04711170005612075,0.09989910013973713,0.10006129997782409,0.29957110015675426
RSVPLG03,JM,20260325-104744,1.0.2,20251105-084826,810,Experiment,Both,1,Automatic,main,5,20260325-104818,local,local,300,H,S,E,A,E-H.png,A-S.png,hH,sS,mask-1.png,mask-2.png,s,0,0.42657950008288026,h,0,0.10755499987863004,0.047939199954271317,0.046092999866232276,0.09994650003500283,0.0991420999635011,0.30064340005628765
RSVPLG03,JM,20260325-104744,1.0.2,20251105-084826,810,Experiment,Both,1,Automatic,main,6,20260325-104822,local,local,750,H,S,E,E,E-H.png,E-S.png,hH,sS,mask-4.png,mask-2.png,h,1,0.3177628999110311,s,1,0.2112247000914067,0.04670719988644123,0.046929300064221025,0.09923089994117618,0.10035800002515316,0.7507986000273377
RSVPLG03,JM,20260325-104744,1.0.2,20251105-084826,810,Experiment,Both,1,Automatic,main,7,20260325-104827,global,global,300,H,S,A,E,H-A.png,S-E.png,hH,sS,mask-4.png,mask-3.png,h,1,0.4071371001191437,h,0,0.20017369999550283,0.04740580008365214,0.048150100046768785,0.09961170004680753,0.10031390003859997,0.3002534999977797
RSVPLG03,JM,20260325-104744,1.0.2,20251105-084826,810,Experiment,Both,1,Automatic,main,8,20260325-104831,local,global,750,S,H,E,E,E-S.png,H-E.png,sS,hH,mask-4.png,mask-2.png,s,1,0.39953809999860823,h,1,0.1047116001136601,0.0469646998681128,0.04770329990424216,0.09935120004229248,0.10089130001142621,0.7515308000147343
RSVPLG03,JM,20260325-104744,1.0.2,20251105-084826,810,Experiment,Both,1,Automatic,main,9,20260325-104836,local,local,750,S,S,E,A,E-S.png,A-S.png,sS,sS,mask-3.png,mask-4.png,s,1,0.37449729978106916,s,1,0.09353050007484853,0.04669630015268922,0.04771509999409318,0.09988220012746751,0.1009112000465393,0.7507194001227617
RSVPLG03,JM,20260325-104744,1.0.2,20251105-084826,810,Experiment,Both,1,Automatic,main,10,20260325-104841,local,global,300,S,H,E,E,E-S.png,H-E.png,sS,hH,mask-1.png,mask-2.png,s,1,0.5900208000093699,h,1,0.08056090003810823,0.047674400033429265,0.04760499997064471,0.1009040002245456,0.09981639985926449,0.30046630022116005
RSVPLG03,JM,20260325-104744,1.0.2,20251105-084826,810,Experiment,Both,1,Automatic,main,11,20260325-104845,global,global,750,S,H,E,E,S-E.png,H-E.png,sS,hH,mask-2.png,mask-2.png,s,1,1.2883924001362175,h,1,0.8547694999724627,0.04771359986625612,0.04771199985407293,0.1008967999368906,0.09998820000328124,0.7527278000488877
RSVPLG03,JM,20260325-104744,1.0.2,20251105-084826,810,Experiment,Both,1,Automatic,main,12,20260325-104851,local,global,300,S,S,E,A,E-S.png,S-A.png,sS,sS,mask-3.png,mask-1.png,s,1,0.5265734000131488,s,1,0.12139179999940097,0.04772250005044043,0.047626900020986795,0.09966640011407435,0.10054670018143952,0.3000360999722034
RSVPLG03,JM,20260325-104744,1.0.2,20251105-084826,810,Experiment,Both,1,Automatic,main,13,20260325-104856,local,global,750,S,S,A,A,A-S.png,S-A.png,sS,sS,mask-3.png,mask-4.png,s,1,0.37230670009739697,s,1,0.08481830009259284,0.04668710008263588,0.04673589998856187,0.09936959994956851,0.09895920008420944,0.7515745998825878
RSVPLG03,JM,20260325-104744,1.0.2,20251105-084826,810,Experiment,Both,1,Automatic,main,14,20260325-104900,local,local,750,H,S,A,E,A-H.png,E-S.png,hH,sS,mask-2.png,mask-4.png,h,1,0.49712110008113086,s,1,0.03826389997266233,0.04751479998230934,0.04656909988261759,0.09951059985905886,0.09934559999965131,0.7525802999734879
RSVPLG03,JM,20260325-104744,1.0.2,20251105-084826,810,Experiment,Both,1,Automatic,main,15,20260325-104905,global,local,300,H,H,E,A,H-E.png,A-H.png,hH,hH,mask-2.png,mask-2.png,h,1,0.7380041000433266,h,1,0.0660876000765711,0.04776910017244518,0.04871929995715618,0.10080870008096099,0.10092290001921356,0.3005016001407057
RSVPLG03,JM,20260325-104744,1.0.2,20251105-084826,810,Experiment,Both,1,Automatic,main,16,20260325-104909,local,local,300,H,S,E,A,E-H.png,A-S.png,hH,sS,mask-2.png,mask-1.png,h,1,0.7097811000421643,h,0,0.08047550008632243,0.046678800135850906,0.047683400101959705,0.10089990007691085,0.10186850000172853,0.2995231000240892
RSVPLG03,JM,20260325-104744,1.0.2,20251105-084826,810,Experiment,Both,1,Automatic,main,17,20260325-104914,global,local,750,H,S,E,E,H-E.png,E-S.png,hH,sS,mask-2.png,mask-4.png,h,1,0.4467281000688672,s,1,0.05542270001024008,0.04753340012393892,0.04671400017105043,0.10045940009877086,0.0998887000605464,0.752642699982971
RSVPLG03,JM,20260325-104744,1.0.2,20251105-084826,810,Experiment,Both,1,Automatic,main,18,20260325-104918,global,local,750,S,S,A,A,S-A.png,A-S.png,sS,sS,mask-2.png,mask-1.png,s,1,1.3881260000634938,s,1,0.05507900007069111,0.046737900003790855,0.047568899812176824,0.10000010021030903,0.09924339991994202,0.7516901001799852
RSVPLG03,JM,20260325-104744,1.0.2,20251105-084826,810,Experiment,Both,1,Automatic,main,19,20260325-104924,global,local,750,H,H,A,A,H-A.png,A-H.png,hH,hH,mask-3.png,mask-4.png,h,1,0.519461499992758,h,1,0.05882629984989762,0.04755220003426075,0.04768100008368492,0.10063769994303584,0.09891679999418557,0.7528283998835832
RSVPLG03,JM,20260325-104744,1.0.2,20251105-084826,810,Experiment,Both,1,Automatic,main,20,20260325-104929,global,global,300,S,S,E,E,S-E.png,S-E.png,sS,sS,mask-4.png,mask-4.png,s,1,0.7810012998525053,s,1,0.03709200001321733,0.046856299974024296,0.04767520003952086,0.10011029988527298,0.09993000002577901,0.3007821999490261
RSVPLG03,JM,20260325-104744,1.0.2,20251105-084826,810,Experiment,Both,1,Automatic,main,21,20260325-104933,global,global,300,H,S,A,E,H-A.png,S-E.png,hH,sS,mask-4.png,mask-3.png,h,1,0.46567329997196794,h,0,0.07414939999580383,0.04813799983821809,0.0457350998185575,0.10026219999417663,0.09995199996046722,0.30127519997768104
RSVPLG03,JM,20260325-104744,1.0.2,20251105-084826,810,Experiment,Both,1,Automatic,main,22,20260325-104937,local,global,300,H,S,E,E,E-H.png,S-E.png,hH,sS,mask-3.png,mask-4.png,h,1,0.4114371999166906,s,1,0.054929699981585145,0.047752900049090385,0.047540999948978424,0.0998496999964118,0.1005577000323683,0.3012586000841111
RSVPLG03,JM,20260325-104744,1.0.2,20251105-084826,810,Experiment,Both,1,Automatic,main,23,20260325-104942,global,global,750,H,H,E,A,H-E.png,H-A.png,hH,hH,mask-2.png,mask-3.png,h,1,0.3309745001606643,s,0,0.04228940000757575,0.048007800010964274,0.04855499998666346,0.1000554000493139,0.09946249984204769,0.7510069001000375
RSVPLG03,JM,20260325-104744,1.0.2,20251105-084826,810,Experiment,Both,1,Automatic,main,24,20260325-104946,global,global,300,S,H,E,E,S-E.png,H-E.png,sS,hH,mask-2.png,mask-2.png,h,0,0.48673900007270277,h,1,0.05328679992817342,0.047671400010585785,0.04852270008996129,0.10056810011155903,0.10144619992934167,0.3006959001068026
RSVPLG03,JM,20260325-104744,1.0.2,20251105-084826,810,Experiment,Both,1,Automatic,main,25,20260325-104950,local,global,300,S,H,A,A,A-S.png,H-A.png,sS,hH,mask-4.png,mask-3.png,s,1,0.620741699822247,h,1,0.0843216001521796,0.04752660007216036,0.046808000188320875,0.10058100009337068,0.10005280002951622,0.29985459987074137
RSVPLG03,JM,20260325-104744,1.0.2,20251105-084826,810,Experiment,Both,1,Automatic,main,26,20260325-105003,local,global,750,H,S,A,E,A-H.png,S-E.png,hH,sS,mask-2.png,mask-1.png,h,1,0.5540862998459488,h,0,0.04558910010382533,0.04768530000001192,0.048027100041508675,0.10093199997209013,0.10023740003816783,0.7519243999850005
RSVPLG03,JM,20260325-104744,1.0.2,20251105-084826,810,Experiment,Both,1,Automatic,main,27,20260325-105007,local,local,300,H,S,E,E,E-H.png,E-S.png,hH,sS,mask-3.png,mask-2.png,h,1,0.6054150999989361,h,0,0.03733620001003146,0.04850599984638393,0.049169200006872416,0.10159499989822507,0.10079890000633895,0.3002842999994755
RSVPLG03,JM,20260325-104744,1.0.2,20251105-084826,810,Experiment,Both,1,Automatic,main,28,20260325-105012,global,local,300,S,H,E,E,S-E.png,E-H.png,sS,hH,mask-1.png,mask-3.png,h,0,0.6816663001663983,s,0,0.06877720006741583,0.04705729987472296,0.04662670008838177,0.09919349988922477,0.09911060007289052,0.30006499984301627
RSVPLG03,JM,20260325-104744,1.0.2,20251105-084826,810,Experiment,Both,1,Automatic,main,29,20260325-105016,local,local,300,H,S,E,A,E-H.png,A-S.png,hH,sS,mask-1.png,mask-3.png,h,1,0.4143274000380188,s,1,0.5045972000807524,0.04623079998418689,0.04843480000272393,0.09916209988296032,0.09943330008536577,0.2997458998579532
RSVPLG03,JM,20260325-104744,1.0.2,20251105-084826,810,Experiment,Both,1,Automatic,main,30,20260325-105021,global,local,750,S,S,E,A,S-E.png,A-S.png,sS,sS,mask-4.png,mask-4.png,h,0,0.40266300016082823,s,1,0.06672649993561208,0.047665199963375926,0.048081599874421954,0.09977989993058145,0.10021409997716546,0.7516419000457972
RSVPLG03,JM,20260325-104744,1.0.2,20251105-084826,810,Experiment,Both,1,Automatic,main,31,20260325-105025,global,global,750,S,S,A,E,S-A.png,S-E.png,sS,sS,mask-3.png,mask-3.png,s,1,0.784605799941346,s,1,0.08796670008450747,0.047680400079116225,0.046718799974769354,0.09984960011206567,0.10092550003901124,0.7521025000605732
RSVPLG03,JM,20260325-104744,1.0.2,20251105-084826,810,Experiment,Both,1,Automatic,main,32,20260325-105030,local,global,750,H,H,A,E,A-H.png,H-E.png,hH,hH,mask-4.png,mask-2.png,h,1,0.3655842998996377,s,0,0.4972572000697255,0.04771630000323057,0.04753759992308915,0.10062270006164908,0.09858360001817346,0.7524671000428498
RSVPLG03,JM,20260325-104744,1.0.2,20251105-084826,810,Experiment,Both,1,Automatic,main,33,20260325-105035,local,local,300,H,S,E,A,E-H.png,A-S.png,hH,sS,mask-2.png,mask-1.png,h,1,0.4658915000036359,h,0,0.05406260001473129,0.047492400044575334,0.04750479990616441,0.09938160004094243,0.09961609984748065,0.30062550003640354
RSVPLG03,JM,20260325-104744,1.0.2,20251105-084826,810,Experiment,Both,1,Automatic,main,34,20260325-105040,global,global,750,S,H,A,A,S-A.png,H-A.png,sS,hH,mask-3.png,mask-2.png,h,0,0.5823019000235945,s,0,0.024456700077280402,0.047490800032392144,0.04751329985447228,0.09948340011760592,0.09953069989569485,0.7524093000683933
RSVPLG03,JM,20260325-104744,1.0.2,20251105-084826,810,Experiment,Both,1,Automatic,main,35,20260325-105044,local,local,750,H,H,A,E,A-H.png,E-H.png,hH,hH,mask-2.png,mask-2.png,h,1,0.47662459989078343,s,0,0.012501199962571263,0.04752000002190471,0.047508199932053685,0.10052870004437864,0.09951869980432093,0.7527594000566751
RSVPLG03,JM,20260325-104744,1.0.2,20251105-084826,810,Experiment,Both,1,Automatic,main,36,20260325-105049,global,global,300,H,H,A,A,H-A.png,H-A.png,hH,hH,mask-4.png,mask-4.png,h,1,0.37593579990789294,h,1,0.059282299829646945,0.046484800055623055,0.04829249996691942,0.0995293001178652,0.1003278000280261,0.2992265000939369
RSVPLG03,JM,20260325-104744,1.0.2,20251105-084826,810,Experiment,Both,1,Automatic,main,37,20260325-105053,local,local,300,H,S,E,E,E-H.png,E-S.png,hH,sS,mask-3.png,mask-3.png,h,1,0.5550808999687433,s,1,0.1101724999025464,0.0475208000279963,0.047530399868264794,0.10153519990853965,0.09962140000425279,0.3018493000417948
RSVPLG03,JM,20260325-104744,1.0.2,20251105-084826,810,Experiment,Both,1,Automatic,main,38,20260325-105057,local,global,750,H,S,E,A,E-H.png,S-A.png,hH,sS,mask-2.png,mask-3.png,h,1,0.3217337999958545,s,1,0.6630351999774575,0.046546499943360686,0.04688669997267425,0.09958070004358888,0.09834479982964694,0.7525236001238227
RSVPLG03,JM,20260325-104744,1.0.2,20251105-084826,810,Experiment,Both,1,Automatic,main,39,20260325-105103,global,global,300,S,H,E,E,S-E.png,H-E.png,sS,hH,mask-3.png,mask-3.png,h,0,0.8209083001129329,s,0,0.006001400062814355,0.04759519989602268,0.04670950002036989,0.100777099840343,0.0999314000364393,0.3004513999912888
RSVPLG03,JM,20260325-104744,1.0.2,20251105-084826,810,Experiment,Both,1,Automatic,main,40,20260325-105107,local,global,750,S,H,E,A,E-S.png,H-A.png,sS,hH,mask-4.png,mask-4.png,s,1,0.658627700060606,h,1,0.09408370009623468,0.045702300034463406,0.04680989985354245,0.09990260004997253,0.09972779988311231,0.750688600121066
RSVPLG03,JM,20260325-104744,1.0.2,20251105-084826,810,Experiment,Both,1,Automatic,main,41,20260325-105112,local,local,300,H,S,E,A,E-H.png,A-S.png,hH,sS,mask-1.png,mask-2.png,h,1,0.5532635999843478,s,1,0.004779999842867255,0.046698000049218535,0.04754739999771118,0.09973650006577373,0.10057089990004897,0.3009614001493901
RSVPLG03,JM,20260325-104744,1.0.2,20251105-084826,810,Experiment,Both,1,Automatic,main,42,20260325-105116,local,global,300,H,S,A,A,A-H.png,S-A.png,hH,sS,mask-2.png,mask-3.png,h,1,0.3650408999528736,s,1,0.01421729987487197,0.047534900018945336,0.048436300130560994,0.09865740011446178,0.10216400003992021,0.29838629998266697
RSVPLG03,JM,20260325-104744,1.0.2,20251105-084826,810,Experiment,Both,1,Automatic,main,43,20260325-105121,global,local,750,H,H,A,E,H-A.png,E-H.png,hH,hH,mask-2.png,mask-4.png,h,1,0.45088190003298223,h,1,0.0718303001485765,0.0469890998210758,0.04672370012849569,0.10026969993487,0.09965750016272068,0.7530852998606861
RSVPLG03,JM,20260325-104744,1.0.2,20251105-084826,810,Experiment,Both,1,Automatic,main,44,20260325-105125,local,global,750,H,S,E,E,E-H.png,S-E.png,hH,sS,mask-3.png,mask-1.png,h,1,0.7747063999995589,s,1,0.0016008999664336443,0.048502600053325295,0.0467652000952512,0.10034520016051829,0.09978220006451011,0.7532830000855029
RSVPLG03,JM,20260325-104744,1.0.2,20251105-084826,810,Experiment,Both,1,Automatic,main,45,20260325-105130,local,local,300,H,S,E,E,E-H.png,E-S.png,hH,sS,mask-4.png,mask-1.png,s,0,1.2097031001467258,s,1,0.09261139994487166,0.04772679996676743,0.04683550004847348,0.09876560000702739,0.10007819999009371,0.30043609999120235
RSVPLG03,JM,20260325-104744,1.0.2,20251105-084826,810,Experiment,Both,1,Automatic,main,46,20260325-105135,global,global,300,S,S,A,A,S-A.png,S-A.png,sS,sS,mask-2.png,mask-3.png,h,0,0.939071100205183,s,1,0.5952737999614328,0.04751399997621775,0.04852310009300709,0.09858740004710853,0.10152649995870888,0.2988811999093741
RSVPLG03,JM,20260325-104744,1.0.2,20251105-084826,810,Experiment,Both,1,Automatic,main,47,20260325-105140,global,local,300,H,S,A,E,H-A.png,E-S.png,hH,sS,mask-3.png,mask-2.png,h,1,0.4758298001252115,s,1,0.030116500100120902,0.04859739984385669,0.04667080007493496,0.10080219991505146,0.09890109999105334,0.30223959987051785
RSVPLG03,JM,20260325-104744,1.0.2,20251105-084826,810,Experiment,Both,1,Automatic,main,48,20260325-105145,global,local,300,S,H,A,A,S-A.png,A-H.png,sS,hH,mask-4.png,mask-2.png,s,1,0.40936830011196434,h,1,0.025118499994277954,0.04774020006880164,0.04816840006969869,0.10026350012049079,0.10151110007427633,0.29960000002756715
RSVPLG03,JM,20260325-104744,1.0.2,20251105-084826,810,Experiment,Both,1,Automatic,main,49,20260325-105149,global,local,300,S,S,A,E,S-A.png,E-S.png,sS,sS,mask-1.png,mask-2.png,s,1,0.7870573000982404,s,1,0.08577189990319312,0.048848200123757124,0.04761630017310381,0.10155300004407763,0.1014370999764651,0.3009345999453217
RSVPLG03,JM,20260325-104744,1.0.2,20251105-084826,810,Experiment,Both,1,Automatic,main,50,20260325-105153,global,global,750,S,H,A,E,S-A.png,H-E.png,sS,hH,mask-3.png,mask-1.png,h,0,0.47978920000605285,s,0,0.2513070001732558,0.04724649991840124,0.049351399997249246,0.09925030008889735,0.10038479999639094,0.7498760998714715
RSVPLG03,JM,20260325-104744,1.0.2,20251105-084826,810,Experiment,Both,1,Automatic,main,51,20260325-105201,local,global,300,S,H,E,E,E-S.png,H-E.png,sS,hH,mask-1.png,mask-4.png,s,1,0.6244437999557704,h,1,0.04148090002126992,0.04734759987331927,0.046706699999049306,0.1008819998241961,0.09997849981300533,0.3018616000190377
RSVPLG03,JM,20260325-104744,1.0.2,20251105-084826,810,Experiment,Both,1,Automatic,main,52,20260325-105205,local,local,750,S,S,A,A,A-S.png,A-S.png,sS,sS,mask-3.png,mask-2.png,h,0,0.3708395001012832,h,0,0.054530899971723557,0.04631939996033907,0.04876610008068383,0.09952399996109307,0.10165430000051856,0.7501649998594075
RSVPLG03,JM,20260325-104744,1.0.2,20251105-084826,810,Experiment,Both,1,Automatic,main,53,20260325-105210,global,local,300,S,H,E,A,S-E.png,A-H.png,sS,hH,mask-2.png,mask-3.png,s,1,0.5322487000375986,h,1,0.04241689993068576,0.048758900025859475,0.04767710017040372,0.10096550011076033,0.09988620015792549,0.3008457999676466
RSVPLG03,JM,20260325-104744,1.0.2,20251105-084826,810,Experiment,Both,1,Automatic,main,54,20260325-105214,local,local,750,S,S,E,E,E-S.png,E-S.png,sS,sS,mask-3.png,mask-4.png,s,1,0.352851300034672,s,1,0.05472999997437,0.048425500048324466,0.04654569993726909,0.10050890012644231,0.09965889994055033,0.7526315001305193
RSVPLG03,JM,20260325-104744,1.0.2,20251105-084826,810,Experiment,Both,1,Automatic,main,55,20260325-105219,global,global,300,S,S,A,A,S-A.png,S-A.png,sS,sS,mask-2.png,mask-3.png,h,0,1.03849109984003,s,1,0.038847099989652634,0.047708299942314625,0.0477118999697268,0.09992890013381839,0.10023490013554692,0.2996108999941498
RSVPLG03,JM,20260325-104744,1.0.2,20251105-084826,810,Experiment,Both,1,Automatic,main,56,20260325-105224,local,global,300,S,H,A,A,A-S.png,H-A.png,sS,hH,mask-2.png,mask-3.png,h,0,0.6295035998336971,h,1,0.07240899978205562,0.04870390007272363,0.04770029988139868,0.10100580006837845,0.10064129997044802,0.3007774001453072
RSVPLG03,JM,20260325-104744,1.0.2,20251105-084826,810,Experiment,Both,1,Automatic,main,57,20260325-105228,global,local,300,S,S,A,A,S-A.png,A-S.png,sS,sS,mask-3.png,mask-1.png,s,1,0.397227699868381,h,0,0.3564762999303639,0.04767260001972318,0.047680400079116225,0.09909750008955598,0.09989070007577538,0.30053650005720556
RSVPLG03,JM,20260325-104744,1.0.2,20251105-084826,810,Experiment,Both,1,Automatic,main,58,20260325-105232,global,local,300,H,S,A,E,H-A.png,E-S.png,hH,sS,mask-4.png,mask-3.png,h,1,0.6845811000093818,s,1,0.15277300006709993,0.04770769993774593,0.04772000014781952,0.0998102999292314,0.10082369996234775,0.2994283000007272
RSVPLG03,JM,20260325-104744,1.0.2,20251105-084826,810,Experiment,Both,1,Automatic,main,59,20260325-105237,global,global,750,S,H,E,A,S-E.png,H-A.png,sS,hH,mask-3.png,mask-3.png,s,1,0.5632697001565248,h,1,0.08881659992039204,0.04851759993471205,0.047542399959638715,0.10154949990101159,0.09955319995060563,0.7530064000748098
RSVPLG03,JM,20260325-104744,1.0.2,20251105-084826,810,Experiment,Both,1,Automatic,main,60,20260325-105242,local,local,300,S,S,E,E,E-S.png,E-S.png,sS,sS,mask-2.png,mask-4.png,h,0,1.3359488998539746,h,0,0.20441889995709062,0.04753979993984103,0.047521400032565,0.09895089990459383,0.10060649993829429,0.3003245999570936
RSVPLG03,JM,20260325-104744,1.0.2,20251105-084826,810,Experiment,Both,1,Automatic,main,61,20260325-105247,global,global,750,S,S,E,E,S-E.png,S-E.png,sS,sS,mask-4.png,mask-1.png,s,1,0.4128771999385208,s,1,0.14052370004355907,0.04756750003434718,0.047702400013804436,0.10060440003871918,0.09985440014861524,0.7525954998563975
RSVPLG03,JM,20260325-104744,1.0.2,20251105-084826,810,Experiment,Both,1,Automatic,main,62,20260325-105251,global,local,750,S,H,A,A,S-A.png,A-H.png,sS,hH,mask-3.png,mask-3.png,h,0,0.45033200015313923,s,0,0.16039799991995096,0.04645379981957376,0.04753040010109544,0.09931509988382459,0.10163459996692836,0.7508504998404533
RSVPLG03,JM,20260325-104744,1.0.2,20251105-084826,810,Experiment,Both,1,Automatic,main,63,20260325-105256,global,local,750,S,S,E,A,S-E.png,A-S.png,sS,sS,mask-2.png,mask-3.png,s,1,0.5815338999964297,s,1,0.4762623000424355,0.04768020007759333,0.04775239992886782,0.09969000006094575,0.09976679994724691,0.7525867000222206
RSVPLG03,JM,20260325-104744,1.0.2,20251105-084826,810,Experiment,Both,1,Automatic,main,64,20260325-105301,global,global,300,H,S,E,A,H-E.png,S-A.png,hH,sS,mask-3.png,mask-4.png,h,1,1.0825382999610156,s,1,0.23772560013458133,0.04681410011835396,0.046336600091308355,0.09964750008657575,0.09913749992847443,0.3004864000249654
RSVPLG03,JM,20260325-104744,1.0.2,20251105-084826,810,Experiment,Both,1,Automatic,main,65,20260325-105306,local,global,750,S,H,A,A,A-S.png,H-A.png,sS,hH,mask-1.png,mask-2.png,h,0,0.36364610004238784,h,1,0.04444979992695153,0.04658140009269118,0.047535200137645006,0.09966710000298917,0.09961430006660521,0.7512854000087827
RSVPLG03,JM,20260325-104744,1.0.2,20251105-084826,810,Experiment,Both,1,Automatic,main,66,20260325-105311,local,local,300,H,S,E,E,E-H.png,E-S.png,hH,sS,mask-1.png,mask-4.png,h,1,0.749341000104323,s,1,0.04634879995137453,0.04799649980850518,0.04654140002094209,0.09947099979035556,0.10066180001012981,0.30025149998255074
RSVPLG03,JM,20260325-104744,1.0.2,20251105-084826,810,Experiment,Both,1,Automatic,main,67,20260325-105315,global,local,300,H,H,A,E,H-A.png,E-H.png,hH,hH,mask-2.png,mask-2.png,h,1,0.4105899999849498,h,1,0.07226559985429049,0.04873479995876551,0.04783340007998049,0.10086430003866553,0.10000420012511313,0.30108659993857145
RSVPLG03,JM,20260325-104744,1.0.2,20251105-084826,810,Experiment,Both,1,Automatic,main,68,20260325-105320,local,global,300,H,S,A,E,A-H.png,S-E.png,hH,sS,mask-1.png,mask-2.png,h,1,0.39220190001651645,h,0,0.054440899984911084,0.04759410000406206,0.0475921998731792,0.0999696000944823,0.09986740001477301,0.2996214001905173
RSVPLG03,JM,20260325-104744,1.0.2,20251105-084826,810,Experiment,Both,1,Automatic,main,69,20260325-105324,global,global,750,H,H,A,E,H-A.png,H-E.png,hH,hH,mask-3.png,mask-3.png,h,1,0.48379390011541545,h,1,0.059060300001874566,0.046939299907535315,0.047333599999547005,0.09986030007712543,0.10035070008598268,0.7525883999187499
RSVPLG03,JM,20260325-104744,1.0.2,20251105-084826,810,Experiment,Both,1,Automatic,main,70,20260325-105328,global,local,300,H,H,E,A,H-E.png,A-H.png,hH,hH,mask-4.png,mask-1.png,h,1,0.5282481000758708,h,1,0.051592200063169,0.04788270010612905,0.048009300138801336,0.09914380009286106,0.10050559998489916,0.30008070007897913
RSVPLG03,JM,20260325-104744,1.0.2,20251105-084826,810,Experiment,Both,1,Automatic,main,71,20260325-105332,local,global,750,H,S,A,A,A-H.png,S-A.png,hH,sS,mask-1.png,mask-1.png,h,1,0.6493012998253107,h,0,0.06761960010044277,0.0480277999304235,0.04670870001427829,0.10028399992734194,0.09882179996930063,0.7524182999040931
RSVPLG03,JM,20260325-104744,1.0.2,20251105-084826,810,Experiment,Both,1,Automatic,main,72,20260325-105337,local,local,750,H,S,E,A,E-H.png,A-S.png,hH,sS,mask-1.png,mask-4.png,h,1,0.7076262000482529,s,1,0.8722196000162512,0.04769630008377135,0.04768720013089478,0.0996789000928402,0.10097880009561777,0.7506285000126809
RSVPLG03,JM,20260325-104744,1.0.2,20251105-084826,810,Experiment,Both,1,Automatic,main,73,20260325-105343,local,local,300,S,S,E,E,E-S.png,E-S.png,sS,sS,mask-1.png,mask-2.png,s,1,0.6675425998400897,h,0,0.07365959999151528,0.0476838001050055,0.04687319998629391,0.09987749997526407,0.10007059993222356,0.3005179001484066
RSVPLG03,JM,20260325-104744,1.0.2,20251105-084826,810,Experiment,Both,1,Automatic,main,74,20260325-105347,global,local,750,S,H,A,E,S-A.png,E-H.png,sS,hH,mask-1.png,mask-1.png,h,0,0.7551138999406248,h,1,0.03752050013281405,0.04800850013270974,0.047730599995702505,0.09918590006418526,0.10035500000230968,0.7521842999849468
RSVPLG03,JM,20260325-104744,1.0.2,20251105-084826,810,Experiment,Both,1,Automatic,main,75,20260325-105352,local,local,750,S,S,E,A,E-S.png,A-S.png,sS,sS,mask-2.png,mask-4.png,s,1,0.41304400004446507,h,0,0.02555350004695356,0.047602999955415726,0.047028700122609735,0.09967359993606806,0.10112940007820725,0.7511743998620659
RSVPLG03,JM,20260325-104744,1.0.2,20251105-084826,810,Experiment,Both,1,Automatic,main,76,20260325-105359,local,global,750,S,S,E,E,E-S.png,S-E.png,sS,sS,mask-4.png,mask-4.png,h,0,0.4488440998829901,s,1,0.59321069996804,0.04679509997367859,0.04838180006481707,0.0998732999432832,0.10043660015799105,0.7513593998737633
RSVPLG03,JM,20260325-104744,1.0.2,20251105-084826,810,Experiment,Both,1,Automatic,main,77,20260325-105404,local,global,300,H,S,A,A,A-H.png,S-A.png,hH,sS,mask-4.png,mask-1.png,h,1,0.5395412999205291,h,0,0.060318199917674065,0.0478171999566257,0.04766779998317361,0.09925039997324347,0.10089670005254447,0.30050319992005825
RSVPLG03,JM,20260325-104744,1.0.2,20251105-084826,810,Experiment,Both,1,Automatic,main,78,20260325-105408,local,local,300,H,S,E,E,E-H.png,E-S.png,hH,sS,mask-2.png,mask-3.png,s,0,0.4854135001078248,h,0,0.820942300138995,0.04754530009813607,0.04701860016211867,0.09957570000551641,0.1002466999925673,0.29987609991803765
RSVPLG03,JM,20260325-104744,1.0.2,20251105-084826,810,Experiment,Both,1,Automatic,main,79,20260325-105413,local,global,300,H,H,E,A,E-H.png,H-A.png,hH,hH,mask-1.png,mask-4.png,h,1,0.5556427000556141,h,1,0.06973550003021955,0.04831940005533397,0.046748700086027384,0.10042989999055862,0.10101910005323589,0.30127709987573326
RSVPLG03,JM,20260325-104744,1.0.2,20251105-084826,810,Experiment,Both,1,Automatic,main,80,20260325-105417,local,global,750,S,S,E,E,E-S.png,S-E.png,sS,sS,mask-3.png,mask-3.png,s,1,0.3495142001193017,h,0,0.2371838998515159,0.047260299790650606,0.04779199999757111,0.10038769990205765,0.1001601000316441,0.7522334998939186
RSVPLG03,JM,20260325-104744,1.0.2,20251105-084826,810,Experiment,Both,1,Automatic,main,81,20260325-105422,global,global,750,H,S,E,E,H-E.png,S-E.png,hH,sS,mask-2.png,mask-1.png,s,0,0.22620190004818141,s,1,0.08907400001771748,0.04687399999238551,0.04750240012072027,0.09994359989650548,0.09952839999459684,0.7522840998135507
RSVPLG03,JM,20260325-104744,1.0.2,20251105-084826,810,Experiment,Both,1,Automatic,main,82,20260325-105426,local,local,750,S,H,A,A,A-S.png,A-H.png,sS,hH,mask-4.png,mask-2.png,h,0,0.5783128999173641,s,0,1.2762482999823987,0.04751390009187162,0.04753299988806248,0.1015348001383245,0.10082349996082485,0.7518047001212835
RSVPLG03,JM,20260325-104744,1.0.2,20251105-084826,810,Experiment,Both,1,Automatic,main,83,20260325-105432,local,local,750,S,H,E,A,E-S.png,A-H.png,sS,hH,mask-2.png,mask-4.png,h,0,0.590377900050953,s,0,0.2957020001485944,0.04773300001397729,0.04768399987369776,0.099760000128299,0.10172410006634891,0.7507619000971317
RSVPLG03,JM,20260325-104744,1.0.2,20251105-084826,810,Experiment,Both,1,Automatic,main,84,20260325-105437,global,local,750,H,H,A,A,H-A.png,A-H.png,hH,hH,mask-3.png,mask-1.png,h,1,0.6760116000659764,s,0,0.16929490002803504,0.04624699987471104,0.04796779993921518,0.09897779999300838,0.0994522999972105,0.7514237998984754
RSVPLG03,JM,20260325-104744,1.0.2,20251105-084826,810,Experiment,Both,1,Automatic,main,85,20260325-105442,local,global,750,S,H,A,E,A-S.png,H-E.png,sS,hH,mask-1.png,mask-4.png,h,0,0.4940153998322785,h,1,0.041187699884176254,0.04664049996063113,0.0482330999802798,0.09847870003432035,0.10024560010060668,0.7517382998485118
RSVPLG03,JM,20260325-104744,1.0.2,20251105-084826,810,Experiment,Both,1,Automatic,main,86,20260325-105447,global,local,750,S,S,E,E,S-E.png,E-S.png,sS,sS,mask-4.png,mask-1.png,h,0,0.4917741999961436,s,1,0.016391800018027425,0.04951150016859174,0.04669709992595017,0.10029820003546774,0.09991479991003871,0.752801800146699
RSVPLG03,JM,20260325-104744,1.0.2,20251105-084826,810,Experiment,Both,1,Automatic,main,87,20260325-105452,global,global,300,H,S,E,E,H-E.png,S-E.png,hH,sS,mask-1.png,mask-3.png,h,1,0.4323748000897467,s,1,0.04155999980866909,0.04588850005529821,0.04768290021456778,0.10018589999526739,0.10016979998908937,0.29983519995585084
RSVPLG03,JM,20260325-104744,1.0.2,20251105-084826,810,Experiment,Both,1,Automatic,main,88,20260325-105456,global,local,750,H,S,A,E,H-A.png,E-S.png,hH,sS,mask-3.png,mask-4.png,h,1,0.45582869998179376,s,1,0.012385300127789378,0.04733110009692609,0.04746980010531843,0.1005343000870198,0.09881470003165305,0.7526891999877989
RSVPLG03,JM,20260325-104744,1.0.2,20251105-084826,810,Experiment,Both,1,Automatic,main,89,20260325-105501,global,local,750,H,S,E,E,H-E.png,E-S.png,hH,sS,mask-2.png,mask-3.png,h,1,0.38270279997959733,s,1,0.5108495000749826,0.04660869995132089,0.04768429999239743,0.09948390000499785,0.09909519995562732,0.7514237998984754
RSVPLG03,JM,20260325-104744,1.0.2,20251105-084826,810,Experiment,Both,1,Automatic,main,90,20260325-105505,global,local,300,H,S,A,E,H-A.png,E-S.png,hH,sS,mask-4.png,mask-3.png,h,1,0.4197146000806242,s,1,0.5485086000990123,0.04655879992060363,0.0475364001467824,0.10063469992019236,0.1006402000784874,0.30004279990680516
RSVPLG03,JM,20260325-104744,1.0.2,20251105-084826,810,Experiment,Both,1,Automatic,main,91,20260325-105509,global,global,750,H,H,E,E,H-E.png,H-E.png,hH,hH,mask-4.png,mask-1.png,h,1,0.3855776998680085,h,1,0.06067949999123812,0.04748990014195442,0.04689760017208755,0.09896040009334683,0.09977350011467934,0.7517504000570625
RSVPLG03,JM,20260325-104744,1.0.2,20251105-084826,810,Experiment,Both,1,Automatic,main,92,20260325-105514,global,local,300,H,S,E,E,H-E.png,E-S.png,hH,sS,mask-4.png,mask-4.png,h,1,0.7820498999208212,s,1,0.7629078000318259,0.04852660000324249,0.047366300132125616,0.1005546001251787,0.10037700016982853,0.30081439996138215
RSVPLG03,JM,20260325-104744,1.0.2,20251105-084826,810,Experiment,Both,1,Automatic,main,93,20260325-105519,local,local,750,H,S,E,E,E-H.png,E-S.png,hH,sS,mask-2.png,mask-4.png,h,1,0.360900100087747,s,1,0.02282280009239912,0.0475210000295192,0.04751760000362992,0.10056710010394454,0.10053909989073873,0.7505279001779854
RSVPLG03,JM,20260325-104744,1.0.2,20251105-084826,810,Experiment,Both,1,Automatic,main,94,20260325-105524,global,global,300,H,H,A,E,H-A.png,H-E.png,hH,hH,mask-4.png,mask-2.png,h,1,0.5485404999926686,h,1,0.057768499944359064,0.04647920001298189,0.047715900000184774,0.09934339998289943,0.1005969000980258,0.2989928999450058
RSVPLG03,JM,20260325-104744,1.0.2,20251105-084826,810,Experiment,Both,1,Automatic,main,95,20260325-105528,global,global,750,S,S,E,A,S-E.png,S-A.png,sS,sS,mask-4.png,mask-1.png,h,0,1.4257081001996994,h,0,0.058340700110420585,0.04749480006285012,0.047638599993661046,0.09912559995427728,0.10175650008022785,0.7507382999174297
RSVPLG03,JM,20260325-104744,1.0.2,20251105-084826,810,Experiment,Both,1,Automatic,main,96,20260325-105533,global,global,750,H,H,A,E,H-A.png,H-E.png,hH,hH,mask-3.png,mask-2.png,h,1,0.3382351000327617,h,1,0.05325370002537966,0.04832870000973344,0.047806299990043044,0.10042700008489192,0.1009408999234438,0.7517792000435293
RSVPLG03,JM,20260325-104744,1.0.2,20251105-084826,810,Experiment,Both,1,Automatic,main,97,20260325-105538,local,global,300,S,H,A,E,A-S.png,H-E.png,sS,hH,mask-2.png,mask-1.png,s,1,0.8619826999492943,h,1,0.04447630001232028,0.04660560004413128,0.04748860001564026,0.09964099992066622,0.09958799998275936,0.3000862000044435
RSVPLG03,JM,20260325-104744,1.0.2,20251105-084826,810,Experiment,Both,1,Automatic,main,98,20260325-105543,local,global,300,H,H,A,E,A-H.png,H-E.png,hH,hH,mask-2.png,mask-1.png,h,1,0.4157360000535846,s,0,0.05285860016010702,0.046704000094905496,0.04767480003647506,0.10018380009569228,0.09885920002125204,0.301655099960044
RSVPLG03,JM,20260325-104744,1.0.2,20251105-084826,810,Experiment,Both,1,Automatic,main,99,20260325-105547,local,local,750,H,S,A,A,A-H.png,A-S.png,hH,sS,mask-1.png,mask-2.png,h,1,0.40038270014338195,h,0,0.05985850002616644,0.046708400128409266,0.04754940001294017,0.1000507001299411,0.09858079999685287,0.7518570001702756
RSVPLG03,JM,20260325-104744,1.0.2,20251105-084826,810,Experiment,Both,1,Automatic,main,100,20260325-105551,global,global,300,H,H,A,A,H-A.png,H-A.png,hH,hH,mask-3.png,mask-1.png,h,1,0.44643629994243383,h,1,0.08869729982689023,0.04751070006750524,0.04751179995946586,0.09951340011321008,0.10160510009154677,0.29978860006667674
