exp,exp_initials,runtime,ver,modtime,sub,blocktype,targets,cuetype,mode,trialtype,trial,trialtime,t1_level,t2_level,t2_lag,t1,t2,distractor1,distractor2,stimfile1,stimfile2,t1_corr,t2_corr,maskfile1,maskfile2,t1_resp,t1_acc,t1_rt,t2_resp,t2_acc,t2_rt,t1_dur,t2_dur,t1mask_soa,t2mask_soa,t1t2_soa
RSVPLG03,JM,20260218-092724,1.0.2,20251105-084826,764,Introduction,T1,1,Automatic,main,1,20260218-092829,global,global,750,S,H,E,E,S-E.png,H-E.png,sS,hH,mask-1.png,mask-1.png,none,-6,0,none,-5,0,0.09311630018055439,0.0967052998021245,0.195491099730134,0.19971949979662895,0.7463921001181006
RSVPLG03,JM,20260218-092911,1.0.2,20251105-084826,764,Practice,T1,1,Automatic,main,1,20260218-092939,local,local,750,H,S,A,A,A-H.png,A-S.png,hH,sS,mask-4.png,mask-1.png,h,1,7.414816099219024,none,-5,0,0.04019160009920597,0.04762919992208481,0.09308600053191185,0.10040409956127405,0.7441872004419565
RSVPLG03,JM,20260218-092911,1.0.2,20251105-084826,764,Practice,T1,1,Automatic,main,2,20260218-092950,local,global,750,H,S,A,A,A-H.png,S-A.png,hH,sS,mask-2.png,mask-2.png,s,0,4.056843999773264,none,-5,0,0.04677290003746748,0.04753340035676956,0.09927379991859198,0.0996161000803113,0.7500064000487328
RSVPLG03,JM,20260218-092911,1.0.2,20251105-084826,764,Practice,T1,1,Automatic,main,3,20260218-092958,local,global,750,S,H,E,A,E-S.png,H-A.png,sS,hH,mask-1.png,mask-4.png,none,-6,0,none,-5,0,0.04725850000977516,0.04900440014898777,0.10036880057305098,0.1013059001415968,0.7503880001604557
RSVPLG03,JM,20260218-093114,1.0.2,20251105-084826,764,Introduction,T1,1,Automatic,main,1,20260218-093306,global,global,750,S,H,E,E,S-E.png,H-E.png,sS,hH,mask-4.png,mask-4.png,h,0,1.8209357997402549,none,-5,0,0.09434880036860704,0.09854079969227314,0.1948780007660389,0.2001852998510003,0.7453877003863454
RSVPLG03,JM,20260218-093114,1.0.2,20251105-084826,764,Introduction,T1,1,Automatic,main,2,20260218-093312,global,local,750,H,S,A,E,H-A.png,E-S.png,hH,sS,mask-4.png,mask-4.png,h,1,1.0346160000190139,none,-5,0,0.09746410045772791,0.09802909940481186,0.19976700004190207,0.20057970006018877,0.7489105006679893
RSVPLG03,JM,20260218-093114,1.0.2,20251105-084826,764,Introduction,T1,1,Automatic,main,3,20260218-093317,global,local,750,H,S,A,A,H-A.png,A-S.png,hH,sS,mask-2.png,mask-3.png,h,1,1.0237712003290653,none,-5,0,0.09667829982936382,0.0987070007249713,0.1993519002571702,0.200322600081563,0.7492707995697856
RSVPLG03,JM,20260218-093114,1.0.2,20251105-084826,764,Introduction,T1,1,Automatic,main,4,20260218-093322,local,local,750,H,H,A,A,A-H.png,A-H.png,hH,hH,mask-3.png,mask-1.png,none,-6,0,none,-5,0,0.09769209939986467,0.09779889974743128,0.20144569966942072,0.19880309980362654,0.751363099552691
RSVPLG03,JM,20260218-093636,1.0.2,20251105-084826,764,Introduction,T1,1,Automatic,main,1,20260218-093709,global,global,750,H,H,E,A,H-E.png,H-A.png,hH,hH,mask-2.png,mask-3.png,h,1,1.184786799363792,none,-5,0,0.09011530037969351,0.09678339958190918,0.19313810020685196,0.20144470036029816,0.7435191003605723
RSVPLG03,JM,20260218-093636,1.0.2,20251105-084826,764,Introduction,T1,1,Automatic,main,2,20260218-093714,global,local,750,H,S,A,E,H-A.png,E-S.png,hH,sS,mask-4.png,mask-3.png,h,1,0.5772405993193388,none,-5,0,0.09763689991086721,0.09770689997822046,0.20042110048234463,0.20166199933737516,0.7514502005651593
RSVPLG03,JM,20260218-093636,1.0.2,20251105-084826,764,Introduction,T1,1,Automatic,main,3,20260218-093719,global,global,750,H,H,E,A,H-E.png,H-A.png,hH,hH,mask-2.png,mask-4.png,s,0,3.461202399805188,none,-5,0,0.09667130000889301,0.09935550019145012,0.2004282996058464,0.20024080015718937,0.7503431998193264
RSVPLG03,JM,20260218-093636,1.0.2,20251105-084826,764,Introduction,T1,1,Automatic,main,4,20260218-093726,global,local,750,H,S,A,E,H-A.png,E-S.png,hH,sS,mask-4.png,mask-1.png,s,0,0.9453098997473717,none,-5,0,0.09776580054312944,0.0987924998626113,0.1999150002375245,0.19986119959503412,0.7503922004252672
RSVPLG03,JM,20260218-093636,1.0.2,20251105-084826,764,Introduction,T1,1,Automatic,main,5,20260218-093732,local,global,750,S,S,A,E,A-S.png,S-E.png,sS,sS,mask-4.png,mask-1.png,h,0,0.8876393996179104,none,-5,0,0.09739769995212555,0.09746319986879826,0.20047929976135492,0.20033179968595505,0.7511900998651981
RSVPLG03,JM,20260218-093636,1.0.2,20251105-084826,764,Introduction,T1,1,Automatic,main,6,20260218-093737,local,global,750,H,S,E,A,E-H.png,S-A.png,hH,sS,mask-1.png,mask-3.png,h,1,0.5722665004432201,none,-5,0,0.09736169967800379,0.09659470058977604,0.19930139929056168,0.20054220035672188,0.7516445992514491
RSVPLG03,JM,20260218-093636,1.0.2,20251105-084826,764,Introduction,T1,1,Automatic,main,7,20260218-093741,global,local,750,H,S,A,E,H-A.png,E-S.png,hH,sS,mask-1.png,mask-3.png,s,0,0.5487219002097845,none,-5,0,0.0974337998777628,0.09946329984813929,0.1988558005541563,0.20185449998825788,0.7498098006471992
RSVPLG03,JM,20260218-093636,1.0.2,20251105-084826,764,Introduction,T1,1,Automatic,main,8,20260218-093746,local,local,750,H,S,E,E,E-H.png,E-S.png,hH,sS,mask-4.png,mask-2.png,h,1,0.5133485998958349,none,-5,0,0.09657980035990477,0.09840460028499365,0.19952489994466305,0.20126730017364025,0.7505697002634406
RSVPLG03,JM,20260218-093636,1.0.2,20251105-084826,764,Introduction,T1,1,Automatic,main,9,20260218-093751,local,local,750,H,H,A,A,A-H.png,A-H.png,hH,hH,mask-3.png,mask-3.png,h,1,0.3977737994864583,none,-5,0,0.09695289935916662,0.09857570007443428,0.20091879926621914,0.20170089974999428,0.7510562995448709
RSVPLG03,JM,20260218-093636,1.0.2,20251105-084826,764,Introduction,T1,1,Automatic,main,10,20260218-093755,global,global,750,S,S,A,A,S-A.png,S-A.png,sS,sS,mask-1.png,mask-2.png,s,1,0.46511169988662004,none,-5,0,0.09742799960076809,0.09842630010098219,0.1994568994268775,0.20026319939643145,0.7504420001059771
RSVPLG03,JM,20260218-093636,1.0.2,20251105-084826,764,Introduction,T1,1,Automatic,main,11,20260218-093800,local,local,750,H,H,E,A,E-H.png,A-H.png,hH,hH,mask-3.png,mask-3.png,h,1,0.5160908000543714,none,-5,0,0.09736519958823919,0.09841239918023348,0.2002356993034482,0.2012811992317438,0.7512889001518488
RSVPLG03,JM,20260218-093636,1.0.2,20251105-084826,764,Introduction,T1,1,Automatic,main,12,20260218-093805,local,global,750,S,H,A,E,A-S.png,H-E.png,sS,hH,mask-4.png,mask-3.png,s,1,0.4913822999224067,none,-5,0,0.096883499994874,0.09864049963653088,0.2000561999157071,0.20070070028305054,0.7512742998078465
RSVPLG03,JM,20260218-093636,1.0.2,20251105-084826,764,Introduction,T1,1,Automatic,main,13,20260218-093809,global,global,750,H,H,E,E,H-E.png,H-E.png,hH,hH,mask-3.png,mask-3.png,s,0,0.48230820056051016,none,-5,0,0.09790199995040894,0.09758559986948967,0.20078289974480867,0.20062420051544905,0.751044699922204
RSVPLG03,JM,20260218-093636,1.0.2,20251105-084826,764,Introduction,T1,1,Automatic,main,14,20260218-093814,local,global,750,H,S,A,A,A-H.png,S-A.png,hH,sS,mask-3.png,mask-1.png,h,1,0.4390014000236988,none,-5,0,0.09623580053448677,0.09620430041104555,0.1997660007327795,0.19935720041394234,0.7519030999392271
RSVPLG03,JM,20260218-093636,1.0.2,20251105-084826,764,Introduction,T1,1,Automatic,main,15,20260218-093819,global,local,750,S,S,A,E,S-A.png,E-S.png,sS,sS,mask-2.png,mask-1.png,s,1,0.4118789993226528,none,-5,0,0.09850490000098944,0.09854579996317625,0.20060140080749989,0.20151610020548105,0.7514418000355363
RSVPLG03,JM,20260218-093636,1.0.2,20251105-084826,764,Introduction,T1,1,Automatic,main,16,20260218-093823,local,local,750,S,S,E,A,E-S.png,A-S.png,sS,sS,mask-2.png,mask-3.png,h,0,0.49145170021802187,none,-5,0,0.09821569919586182,0.0971724996343255,0.1992170000448823,0.200191599316895,0.7513423999771476
RSVPLG03,JM,20260218-093851,1.0.2,20251105-084826,764,Introduction,T1,1,Automatic,main,1,20260218-093908,local,local,750,H,S,A,A,A-H.png,A-S.png,hH,sS,mask-2.png,mask-2.png,h,1,0.4058374995365739,none,-5,0,0.09546210058033466,0.09782269969582558,0.199528600089252,0.19969079922884703,0.7478396007791162
RSVPLG03,JM,20260218-093851,1.0.2,20251105-084826,764,Introduction,T1,1,Automatic,main,2,20260218-093912,global,global,750,H,H,E,A,H-E.png,H-A.png,hH,hH,mask-3.png,mask-1.png,s,0,0.3887227000668645,none,-5,0,0.09749680012464523,0.09651840012520552,0.20027920044958591,0.19981899950653315,0.7500012004747987
RSVPLG03,JM,20260218-093851,1.0.2,20251105-084826,764,Introduction,T1,1,Automatic,main,3,20260218-093917,global,global,750,S,H,A,A,S-A.png,H-A.png,sS,hH,mask-2.png,mask-4.png,s,1,1.2156099993735552,none,-5,0,0.09751440025866032,0.09750779997557402,0.2008295003324747,0.20054730027914047,0.7490563997998834
RSVPLG03,JM,20260218-093851,1.0.2,20251105-084826,764,Introduction,T1,1,Automatic,main,4,20260218-093922,global,global,750,S,H,E,E,S-E.png,H-E.png,sS,hH,mask-4.png,mask-1.png,s,1,0.3735694997012615,none,-5,0,0.09679190069437027,0.0967099005356431,0.19993120059370995,0.1987392008304596,0.7496207999065518
RSVPLG03,JM,20260218-093851,1.0.2,20251105-084826,764,Introduction,T1,1,Automatic,main,5,20260218-093927,global,global,750,S,H,E,E,S-E.png,H-E.png,sS,hH,mask-3.png,mask-1.png,s,1,0.3329092999920249,none,-5,0,0.09769209939986467,0.09753130003809929,0.20074940007179976,0.20124030020087957,0.7486004997044802
RSVPLG03,JM,20260218-093851,1.0.2,20251105-084826,764,Introduction,T1,1,Automatic,main,6,20260218-093931,global,local,750,S,S,E,A,S-E.png,A-S.png,sS,sS,mask-2.png,mask-3.png,s,1,0.4031250001862645,none,-5,0,0.09658380039036274,0.09713989961892366,0.20055949967354536,0.20016769971698523,0.7482976000756025
RSVPLG03,JM,20260218-093851,1.0.2,20251105-084826,764,Introduction,T1,1,Automatic,main,7,20260218-093936,local,global,750,H,S,A,E,A-H.png,S-E.png,hH,sS,mask-1.png,mask-3.png,h,1,0.36814699973911047,none,-5,0,0.09769309964030981,0.09753509983420372,0.19988279975950718,0.19958660006523132,0.7488390998914838
RSVPLG03,JM,20260218-093851,1.0.2,20251105-084826,764,Introduction,T1,1,Automatic,main,8,20260218-093941,local,global,750,H,H,A,E,A-H.png,H-E.png,hH,hH,mask-1.png,mask-4.png,h,1,0.35961550008505583,none,-5,0,0.09886469971388578,0.09743009973317385,0.20013630017638206,0.200309700332582,0.7493636999279261
RSVPLG03,JM,20260218-093851,1.0.2,20251105-084826,764,Introduction,T1,1,Automatic,main,9,20260218-093945,local,local,750,S,S,E,E,E-S.png,E-S.png,sS,sS,mask-4.png,mask-2.png,s,1,0.35293810069561005,none,-5,0,0.09735800046473742,0.09785789996385574,0.1993003999814391,0.19964180048555136,0.7483326997607946
RSVPLG03,JM,20260218-093851,1.0.2,20251105-084826,764,Introduction,T1,1,Automatic,main,10,20260218-093950,global,local,750,H,S,A,A,H-A.png,A-S.png,hH,sS,mask-4.png,mask-3.png,s,0,1.6172482008114457,none,-5,0,0.09636379964649677,0.09744010027498007,0.19923149980604649,0.20038270018994808,0.7488808995112777
RSVPLG03,JM,20260218-093851,1.0.2,20251105-084826,764,Introduction,T1,1,Automatic,main,11,20260218-093955,global,local,750,H,S,E,A,H-E.png,A-S.png,hH,sS,mask-4.png,mask-1.png,h,1,0.5577651998028159,none,-5,0,0.0973690003156662,0.09751310013234615,0.20134110003709793,0.1997597999870777,0.7494168998673558
RSVPLG03,JM,20260218-093851,1.0.2,20251105-084826,764,Introduction,T1,1,Automatic,main,12,20260218-094000,global,local,750,S,H,E,E,S-E.png,E-H.png,sS,hH,mask-1.png,mask-4.png,h,0,0.41512469947338104,none,-5,0,0.0973534993827343,0.09707080014050007,0.1984062995761633,0.20020140055567026,0.7479417994618416
RSVPLG03,JM,20260218-093851,1.0.2,20251105-084826,764,Introduction,T1,1,Automatic,main,13,20260218-094005,local,local,750,H,H,E,A,E-H.png,A-H.png,hH,hH,mask-3.png,mask-4.png,h,1,0.38722530007362366,none,-5,0,0.09741759952157736,0.09645539987832308,0.19886840041726828,0.19969880022108555,0.7493725996464491
RSVPLG03,JM,20260218-093851,1.0.2,20251105-084826,764,Introduction,T1,1,Automatic,main,14,20260218-094009,local,local,750,S,H,E,A,E-S.png,A-H.png,sS,hH,mask-1.png,mask-1.png,h,0,0.21119889989495277,none,-5,0,0.097545700147748,0.09753840044140816,0.20059500075876713,0.20061120018363,0.7492118999361992
RSVPLG03,JM,20260218-093851,1.0.2,20251105-084826,764,Introduction,T1,1,Automatic,main,15,20260218-094014,local,global,750,S,S,A,A,A-S.png,S-A.png,sS,sS,mask-1.png,mask-4.png,s,1,0.44761460088193417,none,-5,0,0.09740789979696274,0.09783919993788004,0.19951380044221878,0.1990375006571412,0.7480995999649167
RSVPLG03,JM,20260218-093851,1.0.2,20251105-084826,764,Introduction,T1,1,Automatic,main,16,20260218-094018,local,global,750,S,H,E,A,E-S.png,H-A.png,sS,hH,mask-4.png,mask-2.png,s,1,0.4004747997969389,none,-5,0,0.096459299325943,0.09741530008614063,0.19839399959892035,0.20027280040085316,0.7482093991711736
RSVPLG03,JM,20260218-094040,1.0.2,20251105-084826,764,Introduction,T1,1,Automatic,main,1,20260218-094057,local,global,750,H,S,E,E,E-H.png,S-E.png,hH,sS,mask-2.png,mask-1.png,h,1,0.43898069951683283,none,-5,0,0.08949100039899349,0.09600479993969202,0.19148110039532185,0.19833849929273129,0.7418396007269621
RSVPLG03,JM,20260218-094040,1.0.2,20251105-084826,764,Introduction,T1,1,Automatic,main,2,20260218-094101,local,local,750,H,H,A,A,A-H.png,A-H.png,hH,hH,mask-2.png,mask-4.png,h,1,0.41015159990638494,none,-5,0,0.0975059000775218,0.09679789934307337,0.19837100058794022,0.2007448999211192,0.7481494005769491
RSVPLG03,JM,20260218-094040,1.0.2,20251105-084826,764,Introduction,T1,1,Automatic,main,3,20260218-094106,local,global,750,S,H,A,A,A-S.png,H-A.png,sS,hH,mask-1.png,mask-2.png,s,1,0.3479260001331568,none,-5,0,0.09837820008397102,0.09739560075104237,0.20039290003478527,0.19950459990650415,0.7498172000050545
RSVPLG03,JM,20260218-094040,1.0.2,20251105-084826,764,Introduction,T1,1,Automatic,main,4,20260218-094110,local,local,750,H,H,E,A,E-H.png,A-H.png,hH,hH,mask-4.png,mask-1.png,h,1,0.32946089934557676,none,-5,0,0.09681580029428005,0.09735270030796528,0.19976979959756136,0.19909620005637407,0.7495558997616172
RSVPLG03,JM,20260218-094040,1.0.2,20251105-084826,764,Introduction,T1,1,Automatic,main,5,20260218-094115,global,global,750,H,H,A,E,H-A.png,H-E.png,hH,hH,mask-1.png,mask-1.png,h,1,1.0590622005984187,none,-5,0,0.09763790015131235,0.0956332990899682,0.20114590041339397,0.19961039908230305,0.7498670006170869
RSVPLG03,JM,20260218-094040,1.0.2,20251105-084826,764,Introduction,T1,1,Automatic,main,6,20260218-094120,global,global,750,H,S,E,A,H-E.png,S-A.png,hH,sS,mask-4.png,mask-1.png,s,0,0.4307508999481797,none,-5,0,0.09707190003246069,0.09835750050842762,0.199222800321877,0.20125830080360174,0.748739399947226
RSVPLG03,JM,20260218-094040,1.0.2,20251105-084826,764,Introduction,T1,1,Automatic,main,7,20260218-094125,global,global,750,H,S,A,A,H-A.png,S-A.png,hH,sS,mask-1.png,mask-4.png,s,0,0.37678520008921623,none,-5,0,0.0983802005648613,0.09745849948376417,0.20034500025212765,0.2003382993862033,0.7491112006828189
RSVPLG03,JM,20260218-094040,1.0.2,20251105-084826,764,Introduction,T1,1,Automatic,main,8,20260218-094129,global,local,750,H,S,A,A,H-A.png,A-S.png,hH,sS,mask-2.png,mask-2.png,h,1,0.5268806992098689,none,-5,0,0.09714930038899183,0.09721019957214594,0.20004460029304028,0.19942780025303364,0.749779500067234
RSVPLG03,JM,20260218-094040,1.0.2,20251105-084826,764,Introduction,T1,1,Automatic,main,9,20260218-094134,global,local,750,H,S,E,A,H-E.png,A-S.png,hH,sS,mask-1.png,mask-4.png,h,1,0.6243871999904513,none,-5,0,0.09637780021876097,0.09864960052073002,0.1992918998003006,0.2001595003530383,0.7479392997920513
RSVPLG03,JM,20260218-094040,1.0.2,20251105-084826,764,Introduction,T1,1,Automatic,main,10,20260218-094139,global,global,750,S,S,E,A,S-E.png,S-A.png,sS,sS,mask-2.png,mask-1.png,s,1,0.42244150023907423,none,-5,0,0.09599009994417429,0.09688889980316162,0.19994010031223297,0.19981660041958094,0.7475113999098539
RSVPLG03,JM,20260218-094040,1.0.2,20251105-084826,764,Introduction,T1,1,Automatic,main,11,20260218-094143,local,local,750,H,S,E,A,E-H.png,A-S.png,hH,sS,mask-3.png,mask-3.png,h,1,0.3328815000131726,none,-5,0,0.09652609936892986,0.09689000062644482,0.20048659946769476,0.19991940073668957,0.7490153992548585
RSVPLG03,JM,20260218-094040,1.0.2,20251105-084826,764,Introduction,T1,1,Automatic,main,12,20260218-094148,local,local,750,H,H,A,E,A-H.png,E-H.png,hH,hH,mask-1.png,mask-1.png,h,1,0.25688259955495596,none,-5,0,0.09690599981695414,0.09739619959145784,0.2000398999080062,0.2004305999726057,0.7489807000383735
RSVPLG03,JM,20260218-094040,1.0.2,20251105-084826,764,Introduction,T1,1,Automatic,main,13,20260218-094152,local,global,750,H,S,E,E,E-H.png,S-E.png,hH,sS,mask-1.png,mask-3.png,h,1,0.27685749996453524,none,-5,0,0.09741770010441542,0.09772720001637936,0.19935330003499985,0.20072560012340546,0.7475227992981672
RSVPLG03,JM,20260218-094040,1.0.2,20251105-084826,764,Introduction,T1,1,Automatic,main,14,20260218-094157,global,local,750,S,S,E,A,S-E.png,A-S.png,sS,sS,mask-2.png,mask-4.png,s,1,0.4706979002803564,none,-5,0,0.09761010017246008,0.09741200041025877,0.20051049999892712,0.19928140006959438,0.7487190999090672
RSVPLG03,JM,20260218-094040,1.0.2,20251105-084826,764,Introduction,T1,1,Automatic,main,15,20260218-094201,local,global,750,S,H,A,E,A-S.png,H-E.png,sS,hH,mask-4.png,mask-1.png,s,1,0.36186410021036863,none,-5,0,0.0967056006193161,0.09636049997061491,0.1996451998129487,0.19974560011178255,0.7495929002761841
RSVPLG03,JM,20260218-094040,1.0.2,20251105-084826,764,Introduction,T1,1,Automatic,main,16,20260218-094206,global,local,750,H,H,E,A,H-E.png,A-H.png,hH,hH,mask-3.png,mask-3.png,h,1,0.3541251001879573,none,-5,0,0.09728629980236292,0.0965328998863697,0.19998499937355518,0.20036420039832592,0.7497536996379495
RSVPLG03,JM,20260218-094246,1.0.2,20251105-084826,764,Introduction,Both,1,Automatic,main,1,20260218-094333,global,local,750,S,H,E,A,S-E.png,A-H.png,sS,hH,mask-2.png,mask-3.png,h,0,9.845253399573267,s,0,3.642806500196457,0.09645050019025803,0.09650480002164841,0.19948500022292137,0.19878299999982119,0.7510851006954908
RSVPLG03,JM,20260218-094246,1.0.2,20251105-084826,764,Introduction,Both,1,Automatic,main,2,20260218-094351,global,local,750,H,H,E,E,H-E.png,E-H.png,hH,hH,mask-3.png,mask-3.png,s,0,1.7698363000527024,h,1,0.9184054005891085,0.09750999975949526,0.09637830033898354,0.20044189970940351,0.19941290002316236,0.7505572997033596
RSVPLG03,JM,20260218-094246,1.0.2,20251105-084826,764,Introduction,Both,1,Automatic,main,3,20260218-094358,global,local,750,S,S,E,A,S-E.png,A-S.png,sS,sS,mask-4.png,mask-2.png,s,1,1.836116200312972,h,0,1.2271804995834827,0.09678350016474724,0.09759890008717775,0.20085530076175928,0.19950139988213778,0.7512070005759597
RSVPLG03,JM,20260218-094246,1.0.2,20251105-084826,764,Introduction,Both,1,Automatic,main,4,20260218-094405,global,global,750,H,H,E,A,H-E.png,H-A.png,hH,hH,mask-1.png,mask-4.png,h,1,3.3442282993346453,s,0,0.5202940003946424,0.09737870004028082,0.09680019970983267,0.19938599970191717,0.19985840003937483,0.7506168996915221
RSVPLG03,JM,20260218-094246,1.0.2,20251105-084826,764,Introduction,Both,1,Automatic,main,5,20260218-094413,local,global,750,H,S,A,E,A-H.png,S-E.png,hH,sS,mask-1.png,mask-1.png,h,1,1.0080089000985026,s,1,0.6334774000570178,0.09581589978188276,0.09754619933664799,0.1999540003016591,0.20063399989157915,0.7501138001680374
RSVPLG03,JM,20260218-094246,1.0.2,20251105-084826,764,Introduction,Both,1,Automatic,main,6,20260218-094419,local,local,750,S,S,A,E,A-S.png,E-S.png,sS,sS,mask-1.png,mask-4.png,s,1,1.355962699279189,s,1,2.0183292999863625,0.09743980038911104,0.09858299978077412,0.20146779995411634,0.19987169932574034,0.7508259005844593
RSVPLG03,JM,20260218-094246,1.0.2,20251105-084826,764,Introduction,Both,1,Automatic,main,7,20260218-094427,local,local,750,H,H,A,E,A-H.png,E-H.png,hH,hH,mask-3.png,mask-1.png,h,1,0.5674010002985597,h,1,1.1934938998892903,0.09655879996716976,0.09657349996268749,0.19959599990397692,0.19875129964202642,0.7501016007736325
RSVPLG03,JM,20260218-094246,1.0.2,20251105-084826,764,Introduction,Both,1,Automatic,main,8,20260218-094433,global,global,750,S,S,E,A,S-E.png,S-A.png,sS,sS,mask-1.png,mask-2.png,s,1,0.5904481001198292,h,0,0.8551938002929091,0.0982531001791358,0.09659860003739595,0.20135129988193512,0.1986592998728156,0.7518688002601266
RSVPLG03,JM,20260218-094246,1.0.2,20251105-084826,764,Introduction,Both,1,Automatic,main,9,20260218-094439,global,local,750,H,H,E,A,H-E.png,A-H.png,hH,hH,mask-2.png,mask-1.png,h,1,0.5469716005027294,h,1,0.46606250014156103,0.09738719929009676,0.0972719993442297,0.2014176994562149,0.20019999984651804,0.7509882999584079
RSVPLG03,JM,20260218-094246,1.0.2,20251105-084826,764,Introduction,Both,1,Automatic,main,10,20260218-094444,local,global,750,H,H,E,E,E-H.png,H-E.png,hH,hH,mask-2.png,mask-2.png,h,1,0.49496329948306084,h,1,0.25287820026278496,0.09738310053944588,0.0966822998598218,0.19828340038657188,0.20066040009260178,0.7495951000601053
RSVPLG03,JM,20260218-094246,1.0.2,20251105-084826,764,Introduction,Both,1,Automatic,main,11,20260218-094449,global,global,750,S,S,A,A,S-A.png,S-A.png,sS,sS,mask-4.png,mask-2.png,s,1,0.4357211999595165,s,1,0.32338119950145483,0.09747060015797615,0.0987394992262125,0.1994022000581026,0.19989659916609526,0.7488586008548737
RSVPLG03,JM,20260218-094246,1.0.2,20251105-084826,764,Introduction,Both,1,Automatic,main,12,20260218-094455,local,local,750,H,S,A,A,A-H.png,A-S.png,hH,sS,mask-3.png,mask-2.png,h,1,0.38725349958986044,s,1,0.15179000049829483,0.09849620051681995,0.09840499982237816,0.1993612004444003,0.20009869989007711,0.7496611000970006
RSVPLG03,JM,20260218-094246,1.0.2,20251105-084826,764,Introduction,Both,1,Automatic,main,13,20260218-094459,global,global,750,S,H,E,E,S-E.png,H-E.png,sS,hH,mask-1.png,mask-1.png,s,1,0.3511814000084996,h,1,0.18136529996991158,0.09750489983707666,0.09788210038095713,0.199567299336195,0.20002519991248846,0.7498785993084311
RSVPLG03,JM,20260218-094246,1.0.2,20251105-084826,764,Introduction,Both,1,Automatic,main,14,20260218-094504,local,global,750,H,S,A,A,A-H.png,S-A.png,hH,sS,mask-1.png,mask-2.png,h,1,0.3123993994668126,s,1,0.10854270029813051,0.09957410022616386,0.09625220019370317,0.20141549967229366,0.19898479990661144,0.7518088994547725
RSVPLG03,JM,20260218-094246,1.0.2,20251105-084826,764,Introduction,Both,1,Automatic,main,15,20260218-094509,local,global,750,H,S,A,A,A-H.png,S-A.png,hH,sS,mask-2.png,mask-2.png,h,1,0.3244834002107382,s,1,0.10705129988491535,0.09737169928848743,0.09739449992775917,0.20023710001260042,0.1988122994080186,0.7516371998935938
RSVPLG03,JM,20260218-094246,1.0.2,20251105-084826,764,Introduction,Both,1,Automatic,main,16,20260218-094514,local,local,750,S,H,E,A,E-S.png,A-H.png,sS,hH,mask-2.png,mask-4.png,s,1,0.3759113000705838,h,1,0.140463599935174,0.09737120009958744,0.09749900083988905,0.19923039991408587,0.20043610036373138,0.7504241997376084
RSVPLG03,JM,20260218-094553,1.0.2,20251105-084826,764,Introduction,Both,1,Automatic,main,1,20260218-094612,global,local,750,H,S,A,A,H-A.png,A-S.png,hH,sS,mask-1.png,mask-2.png,h,1,0.45577380061149597,s,1,0.01577810011804104,0.09259090013802052,0.09753310028463602,0.19410870037972927,0.1995983999222517,0.7474205996841192
RSVPLG03,JM,20260218-094553,1.0.2,20251105-084826,764,Introduction,Both,1,Automatic,main,2,20260218-094617,global,global,750,H,H,A,A,H-A.png,H-A.png,hH,hH,mask-3.png,mask-3.png,h,1,0.588408699259162,h,1,0.08817709982395172,0.0974591001868248,0.09770760033279657,0.2002953002229333,0.20060539990663528,0.7518643997609615
RSVPLG03,JM,20260218-094553,1.0.2,20251105-084826,764,Introduction,Both,1,Automatic,main,3,20260218-094622,local,local,750,S,S,E,A,E-S.png,A-S.png,sS,sS,mask-4.png,mask-4.png,s,1,0.4030945999547839,s,1,0.08698220085352659,0.09743470046669245,0.09745080024003983,0.19876589998602867,0.19935359992086887,0.7508316999301314
RSVPLG03,JM,20260218-094553,1.0.2,20251105-084826,764,Introduction,Both,1,Automatic,main,4,20260218-094627,global,local,750,S,S,A,A,S-A.png,A-S.png,sS,sS,mask-1.png,mask-2.png,s,1,0.372163699939847,s,1,0.08830840047448874,0.09747090004384518,0.09844289999455214,0.1989674000069499,0.19995929952710867,0.7505550002679229
RSVPLG03,JM,20260218-094553,1.0.2,20251105-084826,764,Introduction,Both,1,Automatic,main,5,20260218-094632,local,local,750,H,S,E,E,E-H.png,E-S.png,hH,sS,mask-1.png,mask-2.png,h,1,0.39650340005755424,s,1,0.03995359968394041,0.09745140001177788,0.09741509985178709,0.1994158998131752,0.19856879953294992,0.7522320998832583
RSVPLG03,JM,20260218-094553,1.0.2,20251105-084826,764,Introduction,Both,1,Automatic,main,6,20260218-094637,local,global,750,H,H,A,A,A-H.png,H-A.png,hH,hH,mask-3.png,mask-2.png,h,1,0.44528689980506897,h,1,0.08422910049557686,0.09750969987362623,0.0977004999294877,0.20039759948849678,0.19965209998190403,0.7510258993133903
RSVPLG03,JM,20260218-094553,1.0.2,20251105-084826,764,Introduction,Both,1,Automatic,main,7,20260218-094641,global,local,750,H,H,A,A,H-A.png,A-H.png,hH,hH,mask-2.png,mask-3.png,h,1,0.35815769992768764,h,1,0.08650690037757158,0.0966803003102541,0.0974711999297142,0.20064720045775175,0.19939660001546144,0.7520850002765656
RSVPLG03,JM,20260218-094553,1.0.2,20251105-084826,764,Introduction,Both,1,Automatic,main,8,20260218-094646,global,global,750,H,H,A,A,H-A.png,H-A.png,hH,hH,mask-2.png,mask-1.png,h,1,0.3453984996303916,h,1,0.07100499980151653,0.09747669938951731,0.09754539933055639,0.20152120012789965,0.20066689979285002,0.7513389000669122
RSVPLG03,JM,20260218-094553,1.0.2,20251105-084826,764,Introduction,Both,1,Automatic,main,9,20260218-094651,local,local,750,H,H,E,E,E-H.png,E-H.png,hH,hH,mask-2.png,mask-3.png,h,1,0.3553535006940365,h,1,0.09108969941735268,0.0977106997743249,0.09839530009776354,0.19973419979214668,0.19947999995201826,0.7510244995355606
RSVPLG03,JM,20260218-094553,1.0.2,20251105-084826,764,Introduction,Both,1,Automatic,main,10,20260218-094656,local,global,750,H,S,A,E,A-H.png,S-E.png,hH,sS,mask-2.png,mask-4.png,h,1,0.36228839959949255,s,1,0.05837820004671812,0.09693299978971481,0.09716610051691532,0.19915410038083792,0.19964850042015314,0.7518405998125672
RSVPLG03,JM,20260218-094553,1.0.2,20251105-084826,764,Introduction,Both,1,Automatic,main,11,20260218-094700,local,global,750,H,S,E,E,E-H.png,S-E.png,hH,sS,mask-1.png,mask-4.png,s,0,0.39967190008610487,s,1,0.105897500179708,0.09778020065277815,0.09870389942079782,0.2012507002800703,0.200772600248456,0.7509323004633188
RSVPLG03,JM,20260218-094553,1.0.2,20251105-084826,764,Introduction,Both,1,Automatic,main,12,20260218-094705,global,local,750,H,S,E,E,H-E.png,E-S.png,hH,sS,mask-4.png,mask-4.png,h,1,0.4192372001707554,s,1,0.03869529999792576,0.09796230029314756,0.09766490012407303,0.20132230035960674,0.19955400004982948,0.7521154005080462
RSVPLG03,JM,20260218-094553,1.0.2,20251105-084826,764,Introduction,Both,1,Automatic,main,13,20260218-094710,global,global,750,H,H,E,A,H-E.png,H-A.png,hH,hH,mask-2.png,mask-2.png,h,1,0.4047207999974489,h,1,0.0888026999309659,0.09757710061967373,0.09753930009901524,0.19960040040314198,0.19973409920930862,0.7504688007757068
RSVPLG03,JM,20260218-094553,1.0.2,20251105-084826,764,Introduction,Both,1,Automatic,main,14,20260218-094715,local,global,750,S,H,E,E,E-S.png,H-E.png,sS,hH,mask-2.png,mask-3.png,s,1,0.3337439000606537,h,1,0.043378500267863274,0.09837969951331615,0.0976622998714447,0.19994500000029802,0.20183499995619059,0.750611299648881
RSVPLG03,JM,20260218-094553,1.0.2,20251105-084826,764,Introduction,Both,1,Automatic,main,15,20260218-094720,global,global,750,H,H,E,E,H-E.png,H-E.png,hH,hH,mask-3.png,mask-1.png,h,1,0.3582944003865123,h,1,0.07380990032106638,0.09761010017246008,0.09736930020153522,0.2007972002029419,0.2002558996900916,0.751919100061059
RSVPLG03,JM,20260218-094553,1.0.2,20251105-084826,764,Introduction,Both,1,Automatic,main,16,20260218-094724,local,local,750,H,H,A,A,A-H.png,A-H.png,hH,hH,mask-4.png,mask-3.png,h,1,0.29003379959613085,h,1,0.08484460040926933,0.09654420055449009,0.09670819994062185,0.19965639989823103,0.20080079976469278,0.7513698004186153
RSVPLG03,JM,20260218-094832,1.0.2,20251105-084826,764,Practice,T1,1,Automatic,main,1,20260218-094900,global,global,300,H,S,E,E,H-E.png,S-E.png,hH,sS,mask-3.png,mask-1.png,h,1,1.195945099927485,none,-5,0,0.047135500237345695,0.047788700088858604,0.09911200031638145,0.10067409928888083,0.2996903005987406
RSVPLG03,JM,20260218-094832,1.0.2,20251105-084826,764,Practice,T1,1,Automatic,main,2,20260218-094905,global,local,750,H,H,A,E,H-A.png,E-H.png,hH,hH,mask-2.png,mask-1.png,h,1,0.7136596003547311,none,-5,0,0.04583130031824112,0.04870619997382164,0.09981529973447323,0.10002699960023165,0.7482647001743317
RSVPLG03,JM,20260218-094832,1.0.2,20251105-084826,764,Practice,T1,1,Automatic,main,3,20260218-094910,global,global,750,H,S,A,A,H-A.png,S-A.png,hH,sS,mask-3.png,mask-1.png,h,1,0.3522465005517006,none,-5,0,0.04852279927581549,0.04753259941935539,0.10125129949301481,0.09879039973020554,0.7505572000518441
RSVPLG03,JM,20260218-094832,1.0.2,20251105-084826,764,Practice,T1,1,Automatic,main,4,20260218-094914,local,global,750,S,H,E,E,E-S.png,H-E.png,sS,hH,mask-2.png,mask-1.png,s,1,0.35256530065089464,none,-5,0,0.045818000100553036,0.04751589987426996,0.09827669989317656,0.09953700006008148,0.749482199549675
RSVPLG03,JM,20260218-094832,1.0.2,20251105-084826,764,Practice,T1,1,Automatic,main,5,20260218-094919,local,global,300,S,H,A,E,A-S.png,H-E.png,sS,hH,mask-4.png,mask-4.png,s,1,0.9403833001852036,none,-5,0,0.046509199775755405,0.0465536005795002,0.09956359956413507,0.09789110068231821,0.30007469933480024
RSVPLG03,JM,20260218-094832,1.0.2,20251105-084826,764,Practice,T1,1,Automatic,main,6,20260218-094923,local,local,300,S,S,A,A,A-S.png,A-S.png,sS,sS,mask-3.png,mask-4.png,s,1,0.40199619997292757,none,-5,0,0.04755610041320324,0.04705210030078888,0.10051480028778315,0.09923139959573746,0.30041120015084743
RSVPLG03,JM,20260218-094832,1.0.2,20251105-084826,764,Practice,T1,1,Automatic,main,7,20260218-094927,global,local,300,H,H,E,A,H-E.png,A-H.png,hH,hH,mask-4.png,mask-3.png,h,1,0.3749906001612544,none,-5,0,0.0456235995516181,0.047547100111842155,0.09965959936380386,0.101575399748981,0.29804479982703924
RSVPLG03,JM,20260218-094832,1.0.2,20251105-084826,764,Practice,T1,1,Automatic,main,8,20260218-094931,global,global,300,H,S,A,A,H-A.png,S-A.png,hH,sS,mask-1.png,mask-3.png,h,1,0.33542140014469624,none,-5,0,0.04734089970588684,0.048538099974393845,0.09977210033684969,0.10067369975149632,0.2991287000477314
RSVPLG03,JM,20260218-094832,1.0.2,20251105-084826,764,Practice,T1,1,Automatic,main,9,20260218-094935,global,global,750,S,S,E,A,S-E.png,S-A.png,sS,sS,mask-4.png,mask-2.png,s,1,0.6380568007007241,none,-5,0,0.04674630053341389,0.04655640013515949,0.09996060002595186,0.10026509966701269,0.749312000349164
RSVPLG03,JM,20260218-094832,1.0.2,20251105-084826,764,Practice,T1,1,Automatic,main,10,20260218-094940,global,local,300,H,H,A,A,H-A.png,A-H.png,hH,hH,mask-4.png,mask-2.png,h,1,0.447379800491035,none,-5,0,0.046518599614501,0.04748640023171902,0.09930260013788939,0.09949740022420883,0.2999083995819092
RSVPLG03,JM,20260218-094832,1.0.2,20251105-084826,764,Practice,T1,1,Automatic,main,11,20260218-094944,local,global,300,H,H,A,E,A-H.png,H-E.png,hH,hH,mask-4.png,mask-1.png,h,1,0.34246130008250475,none,-5,0,0.047505300492048264,0.04819939937442541,0.10157870035618544,0.10037709958851337,0.3003435004502535
RSVPLG03,JM,20260218-094832,1.0.2,20251105-084826,764,Practice,T1,1,Automatic,main,12,20260218-094947,local,local,300,S,H,A,E,A-S.png,E-H.png,sS,hH,mask-2.png,mask-3.png,s,1,0.3908128999173641,none,-5,0,0.04636290017515421,0.04768169950693846,0.09924820065498352,0.10071699973195791,0.29900830052793026
RSVPLG03,JM,20260218-094832,1.0.2,20251105-084826,764,Practice,T1,1,Automatic,main,13,20260218-094951,local,local,750,S,S,A,E,A-S.png,E-S.png,sS,sS,mask-3.png,mask-2.png,s,1,0.48564640060067177,none,-5,0,0.046746499836444855,0.04680809937417507,0.1000528996810317,0.09899519942700863,0.7488155998289585
RSVPLG03,JM,20260218-094832,1.0.2,20251105-084826,764,Practice,T1,1,Automatic,main,14,20260218-094956,global,local,750,H,S,E,E,H-E.png,E-S.png,hH,sS,mask-3.png,mask-1.png,h,1,0.2987780002877116,none,-5,0,0.04781839996576309,0.047878499142825603,0.10021340008825064,0.10052739921957254,0.748823800124228
RSVPLG03,JM,20260218-094832,1.0.2,20251105-084826,764,Practice,T1,1,Automatic,main,15,20260218-095000,local,global,750,H,S,A,E,A-H.png,S-E.png,hH,sS,mask-2.png,mask-4.png,h,1,0.27101119980216026,none,-5,0,0.04768360033631325,0.04768299963325262,0.09987710043787956,0.09913969971239567,0.749799900688231
RSVPLG03,JM,20260218-094832,1.0.2,20251105-084826,764,Practice,T1,1,Automatic,main,16,20260218-095005,local,local,750,S,H,E,E,E-S.png,E-H.png,sS,hH,mask-2.png,mask-2.png,s,1,0.2643658993765712,none,-5,0,0.04701259918510914,0.04953460022807121,0.10116029996424913,0.10155319981276989,0.7487517995759845
RSVPLG03,JM,20260218-095024,1.0.2,20251105-084826,764,Practice,Both,1,Automatic,main,1,20260218-095042,global,local,750,S,H,E,E,S-E.png,E-H.png,sS,hH,mask-4.png,mask-2.png,h,0,1.0583060001954436,s,0,1.1617181999608874,0.041208899579942226,0.04764680005609989,0.09279709961265326,0.10081599932163954,0.7431327002122998
RSVPLG03,JM,20260218-095024,1.0.2,20251105-084826,764,Practice,Both,1,Automatic,main,2,20260218-095048,global,local,750,S,S,A,E,S-A.png,E-S.png,sS,sS,mask-2.png,mask-1.png,s,1,0.5944966999813914,h,0,0.6187867000699043,0.046700299717485905,0.04746640007942915,0.10007920023053885,0.10055430047214031,0.7505698995664716
RSVPLG03,JM,20260218-095024,1.0.2,20251105-084826,764,Practice,Both,1,Automatic,main,3,20260218-095053,local,local,750,S,S,A,E,A-S.png,E-S.png,sS,sS,mask-4.png,mask-3.png,s,1,0.6074430998414755,s,1,0.08688220009207726,0.04660779982805252,0.04854280035942793,0.09933559969067574,0.09974709991365671,0.7495256997644901
RSVPLG03,JM,20260218-095024,1.0.2,20251105-084826,764,Practice,Both,1,Automatic,main,4,20260218-095058,global,local,300,S,S,A,E,S-A.png,E-S.png,sS,sS,mask-4.png,mask-3.png,h,0,0.8006684994325042,s,1,0.07624650001525879,0.047206499613821507,0.048248100094497204,0.10125300008803606,0.10116260033100843,0.2994289994239807
RSVPLG03,JM,20260218-095024,1.0.2,20251105-084826,764,Practice,Both,1,Automatic,main,5,20260218-095103,local,global,750,S,S,A,A,A-S.png,S-A.png,sS,sS,mask-2.png,mask-2.png,s,1,0.48570199962705374,s,1,0.09754050057381392,0.04931440018117428,0.04687010031193495,0.10066150035709143,0.09962610062211752,0.7505513997748494
RSVPLG03,JM,20260218-095024,1.0.2,20251105-084826,764,Practice,Both,1,Automatic,main,6,20260218-095108,local,global,750,S,S,E,A,E-S.png,S-A.png,sS,sS,mask-2.png,mask-1.png,s,1,0.4045831998810172,s,1,0.10173860006034374,0.047482799738645554,0.0479926997795701,0.09872959926724434,0.09933349955826998,0.7485154997557402
RSVPLG03,JM,20260218-095024,1.0.2,20251105-084826,764,Practice,Both,1,Automatic,main,7,20260218-095112,local,global,300,H,H,E,A,E-H.png,H-A.png,hH,hH,mask-3.png,mask-2.png,s,0,0.5502167996019125,h,1,0.10205799993127584,0.046648900024592876,0.04768490046262741,0.09984180051833391,0.09982880018651485,0.2992238998413086
RSVPLG03,JM,20260218-095024,1.0.2,20251105-084826,764,Practice,Both,1,Automatic,main,8,20260218-095117,local,local,300,S,S,E,E,E-S.png,E-S.png,sS,sS,mask-3.png,mask-1.png,s,1,0.4076550994068384,s,1,0.12470499984920025,0.048642500303685665,0.046580299735069275,0.10066139977425337,0.1006546001881361,0.301040300168097
RSVPLG03,JM,20260218-095024,1.0.2,20251105-084826,764,Practice,Both,1,Automatic,main,9,20260218-095121,global,global,750,S,S,A,E,S-A.png,S-E.png,sS,sS,mask-3.png,mask-3.png,s,1,0.33637329936027527,s,1,0.08065649960190058,0.048550800420343876,0.047509499825537205,0.09967709984630346,0.09885499998927116,0.7498503001406789
RSVPLG03,JM,20260218-095024,1.0.2,20251105-084826,764,Practice,Both,1,Automatic,main,10,20260218-095125,global,global,750,H,S,A,A,H-A.png,S-A.png,hH,sS,mask-1.png,mask-3.png,s,0,0.5784242991358042,s,1,0.08391720056533813,0.04772079922258854,0.04750730004161596,0.09873389918357134,0.10067620035260916,0.748611499555409
RSVPLG03,JM,20260218-095024,1.0.2,20251105-084826,764,Practice,Both,1,Automatic,main,11,20260218-095130,global,global,300,H,S,E,A,H-E.png,S-A.png,hH,sS,mask-3.png,mask-1.png,h,1,0.451948800124228,h,0,0.10652680043131113,0.04658800084143877,0.047938200645148754,0.09861590061336756,0.0996620999649167,0.2981690000742674
RSVPLG03,JM,20260218-095024,1.0.2,20251105-084826,764,Practice,Both,1,Automatic,main,12,20260218-095134,global,global,300,H,H,A,A,H-A.png,H-A.png,hH,hH,mask-2.png,mask-4.png,h,1,1.968469699844718,s,0,0.00551650021225214,0.04671519994735718,0.048812299966812134,0.09891100041568279,0.10100220050662756,0.29886570014059544
RSVPLG03,JM,20260218-095024,1.0.2,20251105-084826,764,Practice,Both,1,Automatic,main,13,20260218-095140,global,local,300,S,S,A,E,S-A.png,E-S.png,sS,sS,mask-1.png,mask-2.png,s,1,0.42065150011330843,s,1,0.10594110004603863,0.04767430014908314,0.04767290037125349,0.09987080004066229,0.0998606001958251,0.300195399671793
RSVPLG03,JM,20260218-095024,1.0.2,20251105-084826,764,Practice,Both,1,Automatic,main,14,20260218-095144,local,local,300,S,H,E,E,E-S.png,E-H.png,sS,hH,mask-3.png,mask-3.png,s,1,0.38682639971375465,s,0,0.10270150005817413,0.04678789991885424,0.04772579949349165,0.10104149952530861,0.09996949974447489,0.30080739967525005
RSVPLG03,JM,20260218-095024,1.0.2,20251105-084826,764,Practice,Both,1,Automatic,main,15,20260218-095149,local,global,300,S,H,A,E,A-S.png,H-E.png,sS,hH,mask-1.png,mask-3.png,s,1,0.41721259988844395,s,0,0.09249799977988005,0.04669819958508015,0.047163499519228935,0.09905890002846718,0.10016530007123947,0.29915110021829605
RSVPLG03,JM,20260218-095024,1.0.2,20251105-084826,764,Practice,Both,1,Automatic,main,16,20260218-095153,local,local,750,S,S,E,E,E-S.png,E-S.png,sS,sS,mask-3.png,mask-3.png,s,1,0.3401929000392556,s,1,0.08911320008337498,0.047518099658191204,0.04752520006150007,0.0995092997327447,0.10003519989550114,0.7498870994895697
RSVPLG03,JM,20260218-095214,1.0.2,20251105-084826,764,Practice,Both,1,Automatic,main,1,20260218-095231,local,global,300,H,H,E,A,E-H.png,H-A.png,hH,hH,mask-1.png,mask-2.png,h,1,0.45060719922184944,s,0,0.024429799988865852,0.04065780062228441,0.04752190038561821,0.09337530005723238,0.10180179961025715,0.293104300275445
RSVPLG03,JM,20260218-095214,1.0.2,20251105-084826,764,Practice,Both,1,Automatic,main,2,20260218-095235,local,local,300,S,S,E,A,E-S.png,A-S.png,sS,sS,mask-4.png,mask-2.png,s,1,0.3197841001674533,s,1,0.07015720009803772,0.04631880018860102,0.0470251003280282,0.10047159995883703,0.09914360009133816,0.2999243000522256
RSVPLG03,JM,20260218-095214,1.0.2,20251105-084826,764,Practice,Both,1,Automatic,main,3,20260218-095239,global,local,300,S,H,E,A,S-E.png,A-H.png,sS,hH,mask-3.png,mask-3.png,s,1,0.423709100112319,s,0,0.11124620027840137,0.046878100372850895,0.04860239941626787,0.09972729999572039,0.09978049993515015,0.3004352003335953
RSVPLG03,JM,20260218-095214,1.0.2,20251105-084826,764,Practice,Both,1,Automatic,main,4,20260218-095243,local,local,300,S,H,A,E,A-S.png,E-H.png,sS,hH,mask-1.png,mask-4.png,s,1,0.39751069992780685,s,0,0.08703759964555502,0.04754399973899126,0.046389699913561344,0.09951869957149029,0.09928740002214909,0.299864299595356
RSVPLG03,JM,20260218-095214,1.0.2,20251105-084826,764,Practice,Both,1,Automatic,main,5,20260218-095247,global,global,750,H,S,E,E,H-E.png,S-E.png,hH,sS,mask-4.png,mask-1.png,s,0,0.6789041999727488,s,1,0.12558299954980612,0.048785299994051456,0.04752869997173548,0.10115360002964735,0.09953300002962351,0.7497910000383854
RSVPLG03,JM,20260218-095214,1.0.2,20251105-084826,764,Practice,Both,1,Automatic,main,6,20260218-095252,global,local,300,H,S,E,E,H-E.png,E-S.png,hH,sS,mask-2.png,mask-3.png,h,1,0.52698690071702,h,0,0.14640360046178102,0.04853370040655136,0.048510899767279625,0.10054459981620312,0.1005196999758482,0.2998676002025604
RSVPLG03,JM,20260218-095214,1.0.2,20251105-084826,764,Practice,Both,1,Automatic,main,7,20260218-095257,local,local,750,S,S,E,A,E-S.png,A-S.png,sS,sS,mask-3.png,mask-1.png,s,1,0.42769140005111694,s,1,0.0870770001783967,0.04877199977636337,0.04769870080053806,0.09942679945379496,0.09989310055971146,0.750858299434185
RSVPLG03,JM,20260218-095214,1.0.2,20251105-084826,764,Practice,Both,1,Automatic,main,8,20260218-095301,global,global,750,S,S,A,A,S-A.png,S-A.png,sS,sS,mask-4.png,mask-4.png,s,1,0.3190818000584841,s,1,0.09897280018776655,0.047851599752902985,0.04657309968024492,0.09957369975745678,0.09956839960068464,0.7508970005437732
RSVPLG03,JM,20260218-095214,1.0.2,20251105-084826,764,Practice,Both,1,Automatic,main,9,20260218-095306,local,global,750,H,H,E,A,E-H.png,H-A.png,hH,hH,mask-3.png,mask-3.png,s,0,0.41846320033073425,s,0,0.08932000026106834,0.047371700406074524,0.04846400022506714,0.10032340046018362,0.09954020008444786,0.7495253002271056
RSVPLG03,JM,20260218-095214,1.0.2,20251105-084826,764,Practice,Both,1,Automatic,main,10,20260218-095310,local,global,750,S,S,E,A,E-S.png,S-A.png,sS,sS,mask-1.png,mask-1.png,s,1,0.47623000014573336,s,1,0.10914819967001677,0.047540600411593914,0.04765329975634813,0.10056110005825758,0.10066340025514364,0.7492300001904368
RSVPLG03,JM,20260218-095214,1.0.2,20251105-084826,764,Practice,Both,1,Automatic,main,11,20260218-095315,local,local,750,S,S,E,E,E-S.png,E-S.png,sS,sS,mask-3.png,mask-1.png,s,1,0.31492580007761717,s,1,0.06961539946496487,0.047529399394989014,0.04760020039975643,0.09952689986675978,0.0988638000562787,0.7501513995230198
RSVPLG03,JM,20260218-095214,1.0.2,20251105-084826,764,Practice,Both,1,Automatic,main,12,20260218-095320,global,local,750,S,H,E,A,S-E.png,A-H.png,sS,hH,mask-4.png,mask-3.png,s,1,0.6702281003817916,s,0,0.8377460995689034,0.04770480003207922,0.04491579998284578,0.09881739970296621,0.09775049984455109,0.7501088995486498
RSVPLG03,JM,20260218-095214,1.0.2,20251105-084826,764,Practice,Both,1,Automatic,main,13,20260218-095325,global,local,750,H,S,E,E,H-E.png,E-S.png,hH,sS,mask-2.png,mask-1.png,s,0,1.192659200169146,s,1,0.10754740051925182,0.0475559001788497,0.04752159956842661,0.10063190013170242,0.10057749971747398,0.749808800406754
RSVPLG03,JM,20260218-095214,1.0.2,20251105-084826,764,Practice,Both,1,Automatic,main,14,20260218-095331,global,global,300,H,H,E,E,H-E.png,H-E.png,hH,hH,mask-4.png,mask-1.png,s,0,2.2944495994597673,s,0,0.21765509992837906,0.04755099955946207,0.047083199955523014,0.09858809970319271,0.10008629970252514,0.2987238001078367
RSVPLG03,JM,20260218-095214,1.0.2,20251105-084826,764,Practice,Both,1,Automatic,main,15,20260218-095337,local,global,300,S,H,E,E,E-S.png,H-E.png,sS,hH,mask-3.png,mask-4.png,s,1,1.411736600100994,s,0,0.608520700596273,0.047864699736237526,0.04770570062100887,0.09909349959343672,0.09975210018455982,0.300756199285388
RSVPLG03,JM,20260218-095214,1.0.2,20251105-084826,764,Practice,Both,1,Automatic,main,16,20260218-095343,global,global,300,S,H,E,A,S-E.png,H-A.png,sS,hH,mask-3.png,mask-2.png,s,1,0.9962930995970964,s,0,0.10751760005950928,0.048064300790429115,0.04762350022792816,0.10114600043743849,0.09963729977607727,0.30147530045360327
RSVPLG03,JM,20260218-095401,1.0.2,20251105-084826,764,Practice,Both,1,Automatic,main,1,20260218-095417,global,local,300,S,H,A,E,S-A.png,E-H.png,sS,hH,mask-4.png,mask-3.png,s,1,0.759782200679183,s,0,0.2339147999882698,0.04431159980595112,0.04744680039584637,0.09626090060919523,0.09839569963514805,0.29874010011553764
RSVPLG03,JM,20260218-095401,1.0.2,20251105-084826,764,Practice,Both,1,Automatic,main,2,20260218-095422,global,global,750,H,H,E,E,H-E.png,H-E.png,hH,hH,mask-1.png,mask-3.png,s,0,0.6301677003502846,s,0,0.13982190005481243,0.047750599682331085,0.0488428995013237,0.10062539950013161,0.09959189966320992,0.7521494999527931
RSVPLG03,JM,20260218-095401,1.0.2,20251105-084826,764,Practice,Both,1,Automatic,main,3,20260218-095427,local,local,750,H,S,A,E,A-H.png,E-S.png,hH,sS,mask-4.png,mask-4.png,h,1,0.5438938997685909,s,1,0.12204970046877861,0.04881060030311346,0.04899619985371828,0.10122910048812628,0.10123870056122541,0.7526377998292446
RSVPLG03,JM,20260218-095401,1.0.2,20251105-084826,764,Practice,Both,1,Automatic,main,4,20260218-095432,global,global,300,H,S,A,A,H-A.png,S-A.png,hH,sS,mask-2.png,mask-2.png,h,1,0.9801195003092289,s,1,0.4736213991418481,0.04865569993853569,0.04856450017541647,0.10063869971781969,0.09888039994984865,0.3015652997419238
RSVPLG03,JM,20260218-095401,1.0.2,20251105-084826,764,Practice,Both,1,Automatic,main,5,20260218-095437,local,global,750,H,H,A,E,A-H.png,H-E.png,hH,hH,mask-4.png,mask-2.png,h,1,0.4231334999203682,h,1,0.07625260017812252,0.04745240043848753,0.0475297998636961,0.09953409992158413,0.10051860008388758,0.7519942000508308
RSVPLG03,JM,20260218-095401,1.0.2,20251105-084826,764,Practice,Both,1,Automatic,main,6,20260218-095442,local,global,300,H,H,E,A,E-H.png,H-A.png,hH,hH,mask-4.png,mask-2.png,h,1,0.8378961998969316,h,1,0.3690101997926831,0.04749289993196726,0.047983200289309025,0.09971619956195354,0.10094000026583672,0.3002985995262861
RSVPLG03,JM,20260218-095401,1.0.2,20251105-084826,764,Practice,Both,1,Automatic,main,7,20260218-095447,global,global,300,S,H,E,A,S-E.png,H-A.png,sS,hH,mask-3.png,mask-4.png,s,1,0.6564517002552748,s,0,0.26269100047647953,0.04590790066868067,0.04628679994493723,0.09910720027983189,0.09851500019431114,0.3010165998712182
RSVPLG03,JM,20260218-095401,1.0.2,20251105-084826,764,Practice,Both,1,Automatic,main,8,20260218-095451,global,local,750,H,S,A,A,H-A.png,A-S.png,hH,sS,mask-3.png,mask-3.png,s,0,0.5422438997775316,h,0,0.04309799987822771,0.046245899982750416,0.04764840006828308,0.09889779984951019,0.09909529983997345,0.7520619994029403
RSVPLG03,JM,20260218-095401,1.0.2,20251105-084826,764,Practice,Both,1,Automatic,main,9,20260218-095456,global,global,750,H,H,E,A,H-E.png,H-A.png,hH,hH,mask-2.png,mask-2.png,h,1,0.3977378997951746,h,1,0.11222620029002428,0.04661069996654987,0.047573099844157696,0.10014989972114563,0.10067790001630783,0.7525759004056454
RSVPLG03,JM,20260218-095401,1.0.2,20251105-084826,764,Practice,Both,1,Automatic,main,10,20260218-095501,global,local,300,H,S,A,E,H-A.png,E-S.png,hH,sS,mask-4.png,mask-4.png,h,1,0.6201186999678612,h,0,0.20478380005806684,0.04783410020172596,0.04648490063846111,0.10104380082339048,0.10066190082579851,0.3017800999805331
RSVPLG03,JM,20260218-095401,1.0.2,20251105-084826,764,Practice,Both,1,Automatic,main,11,20260218-095505,local,local,300,H,H,A,E,A-H.png,E-H.png,hH,hH,mask-3.png,mask-4.png,h,1,0.4160619005560875,s,0,0.018221300095319748,0.04575000051409006,0.04768959991633892,0.09893910028040409,0.09973210003226995,0.29944839980453253
RSVPLG03,JM,20260218-095401,1.0.2,20251105-084826,764,Practice,Both,1,Automatic,main,12,20260218-095509,local,global,300,H,H,A,E,A-H.png,H-E.png,hH,hH,mask-3.png,mask-2.png,h,1,0.44288040045648813,h,1,0.1515577994287014,0.046957300044596195,0.04664160031825304,0.10097880009561777,0.09970390051603317,0.301617999561131
RSVPLG03,JM,20260218-095401,1.0.2,20251105-084826,764,Practice,Both,1,Automatic,main,13,20260218-095514,local,global,750,S,S,E,A,E-S.png,S-A.png,sS,sS,mask-4.png,mask-1.png,s,1,0.3942138999700546,s,1,0.10770320054143667,0.04761369992047548,0.04907159972935915,0.09962840005755424,0.10064669977873564,0.7518673995509744
RSVPLG03,JM,20260218-095401,1.0.2,20251105-084826,764,Practice,Both,1,Automatic,main,14,20260218-095518,global,local,750,S,H,E,A,S-E.png,A-H.png,sS,hH,mask-3.png,mask-2.png,h,0,0.542090299539268,h,1,0.07351789996027946,0.04753359965980053,0.04754590056836605,0.0996367996558547,0.1012177998200059,0.7511545997112989
RSVPLG03,JM,20260218-095401,1.0.2,20251105-084826,764,Practice,Both,1,Automatic,main,15,20260218-095523,local,local,750,S,H,A,E,A-S.png,E-H.png,sS,hH,mask-2.png,mask-3.png,h,0,0.28993070032447577,h,1,0.06775759998708963,0.04751940071582794,0.04761299956589937,0.10169180016964674,0.10067779943346977,0.753384000621736
RSVPLG03,JM,20260218-095401,1.0.2,20251105-084826,764,Practice,Both,1,Automatic,main,16,20260218-095528,local,local,300,H,H,E,A,E-H.png,A-H.png,hH,hH,mask-3.png,mask-3.png,h,1,0.3539101993665099,h,1,0.07315579988062382,0.04770469944924116,0.04767189919948578,0.10089029930531979,0.10186579916626215,0.3008396001532674
RSVPLG03,JM,20260218-095652,1.0.2,20251105-084826,764,Experiment,T1,1,Automatic,warmup,1,20260218-095728,global,global,300,S,H,A,A,S-A.png,H-A.png,sS,hH,mask-2.png,mask-2.png,h,0,1.2144895000383258,none,-5,0,0.03938470035791397,0.04761449992656708,0.0923913000151515,0.09822339937090874,0.29276350047439337
RSVPLG03,JM,20260218-095652,1.0.2,20251105-084826,764,Experiment,T1,1,Automatic,warmup,2,20260218-095733,local,global,750,H,S,A,E,A-H.png,S-E.png,hH,sS,mask-4.png,mask-4.png,s,0,0.49016019981354475,none,-5,0,0.04697880055755377,0.04854129999876022,0.10002900008112192,0.10017180070281029,0.7497739000245929
RSVPLG03,JM,20260218-095652,1.0.2,20251105-084826,764,Experiment,T1,1,Automatic,warmup,3,20260218-095737,local,local,750,H,S,A,E,A-H.png,E-S.png,hH,sS,mask-1.png,mask-1.png,h,1,0.5105163995176554,none,-5,0,0.047411699779331684,0.04726580064743757,0.09917329996824265,0.09909350052475929,0.7501660995185375
RSVPLG03,JM,20260218-095652,1.0.2,20251105-084826,764,Experiment,T1,1,Automatic,warmup,4,20260218-095742,global,local,300,S,H,A,E,S-A.png,E-H.png,sS,hH,mask-4.png,mask-4.png,s,1,0.3707429002970457,none,-5,0,0.047509499825537205,0.04850140027701855,0.10052359942346811,0.09950549993664026,0.3002931997179985
RSVPLG03,JM,20260218-095652,1.0.2,20251105-084826,764,Experiment,T1,1,Automatic,main,5,20260218-095746,local,global,300,S,H,A,E,A-S.png,H-E.png,sS,hH,mask-3.png,mask-3.png,h,0,0.2999169994145632,none,-5,0,0.04740250017493963,0.047733900137245655,0.10147340036928654,0.09938800055533648,0.300700799562037
RSVPLG03,JM,20260218-095652,1.0.2,20251105-084826,764,Experiment,T1,1,Automatic,main,6,20260218-095750,local,local,750,S,S,A,A,A-S.png,A-S.png,sS,sS,mask-4.png,mask-3.png,h,0,0.7038543997332454,none,-5,0,0.04731579963117838,0.04694900009781122,0.09941199980676174,0.10001419950276613,0.7481976002454758
RSVPLG03,JM,20260218-095652,1.0.2,20251105-084826,764,Experiment,T1,1,Automatic,main,7,20260218-095754,global,local,300,H,S,E,E,H-E.png,E-S.png,hH,sS,mask-4.png,mask-1.png,h,1,0.4497181000187993,none,-5,0,0.045904300175607204,0.047660600394010544,0.09906980022788048,0.0998216001316905,0.2996493000537157
RSVPLG03,JM,20260218-095652,1.0.2,20251105-084826,764,Experiment,T1,1,Automatic,main,8,20260218-095758,local,local,300,H,H,E,A,E-H.png,A-H.png,hH,hH,mask-2.png,mask-2.png,h,1,0.3690080000087619,none,-5,0,0.04569170065224171,0.04766759928315878,0.09988600015640259,0.10083859972655773,0.29864910058677197
RSVPLG03,JM,20260218-095652,1.0.2,20251105-084826,764,Experiment,T1,1,Automatic,main,9,20260218-095802,local,local,300,H,H,E,A,E-H.png,A-H.png,hH,hH,mask-1.png,mask-3.png,h,1,0.3675707997754216,none,-5,0,0.047426000237464905,0.04749570041894913,0.09935820009559393,0.09795810002833605,0.3001602999866009
RSVPLG03,JM,20260218-095652,1.0.2,20251105-084826,764,Experiment,T1,1,Automatic,main,10,20260218-095806,local,global,300,H,H,A,E,A-H.png,H-E.png,hH,hH,mask-1.png,mask-4.png,h,1,0.16996360011398792,none,-5,0,0.04678099974989891,0.04767599981278181,0.09934400022029877,0.09987599961459637,0.2989985002204776
RSVPLG03,JM,20260218-095652,1.0.2,20251105-084826,764,Experiment,T1,1,Automatic,main,11,20260218-095810,local,global,750,H,H,E,A,E-H.png,H-A.png,hH,hH,mask-1.png,mask-3.png,h,1,0.6403160998597741,none,-5,0,0.04773900005966425,0.0472747003659606,0.09895130060613155,0.09921959973871708,0.7490798002108932
RSVPLG03,JM,20260218-095652,1.0.2,20251105-084826,764,Experiment,T1,1,Automatic,main,12,20260218-095815,local,local,750,S,S,E,E,E-S.png,E-S.png,sS,sS,mask-1.png,mask-3.png,s,1,0.2689352994784713,none,-5,0,0.04754110053181648,0.04569290019571781,0.10070130042731762,0.09970169980078936,0.7505101002752781
RSVPLG03,JM,20260218-095652,1.0.2,20251105-084826,764,Experiment,T1,1,Automatic,main,13,20260218-095819,global,global,300,S,S,E,A,S-E.png,S-A.png,sS,sS,mask-4.png,mask-3.png,s,1,0.4207573998719454,none,-5,0,0.047745900228619576,0.048739200457930565,0.09998490009456873,0.10093820001929998,0.2990814996883273
RSVPLG03,JM,20260218-095652,1.0.2,20251105-084826,764,Experiment,T1,1,Automatic,main,14,20260218-095823,global,global,300,S,H,E,E,S-E.png,H-E.png,sS,hH,mask-3.png,mask-3.png,s,1,0.33653630036860704,none,-5,0,0.04697929974645376,0.04755700007081032,0.09960819967091084,0.1010563001036644,0.2994585996493697
RSVPLG03,JM,20260218-095652,1.0.2,20251105-084826,764,Experiment,T1,1,Automatic,main,15,20260218-095827,local,global,300,H,S,A,A,A-H.png,S-A.png,hH,sS,mask-2.png,mask-4.png,h,1,0.27099059987813234,none,-5,0,0.04867030028253794,0.0474650003015995,0.09916620049625635,0.09963850025087595,0.30137289967387915
RSVPLG03,JM,20260218-095652,1.0.2,20251105-084826,764,Experiment,T1,1,Automatic,main,16,20260218-095831,local,global,300,H,S,E,A,E-H.png,S-A.png,hH,sS,mask-2.png,mask-1.png,h,1,0.37173330038785934,none,-5,0,0.04599250014871359,0.047110600396990776,0.09988780040293932,0.09880020003765821,0.2997655002400279
RSVPLG03,JM,20260218-095652,1.0.2,20251105-084826,764,Experiment,T1,1,Automatic,main,17,20260218-095835,local,global,750,S,S,A,E,A-S.png,S-E.png,sS,sS,mask-3.png,mask-3.png,s,1,0.28545499965548515,none,-5,0,0.04863720014691353,0.045773399993777275,0.10076940059661865,0.09973690006881952,0.7502896003425121
RSVPLG03,JM,20260218-095652,1.0.2,20251105-084826,764,Experiment,T1,1,Automatic,main,18,20260218-095839,local,global,300,H,S,E,E,E-H.png,S-E.png,hH,sS,mask-2.png,mask-3.png,s,0,0.46331220027059317,none,-5,0,0.04877749923616648,0.048583099618554115,0.10093509964644909,0.1017407001927495,0.29934689961373806
RSVPLG03,JM,20260218-095652,1.0.2,20251105-084826,764,Experiment,T1,1,Automatic,main,19,20260218-095843,global,global,750,H,H,E,A,H-E.png,H-A.png,hH,hH,mask-3.png,mask-2.png,h,1,0.22769069951027632,none,-5,0,0.04727899935096502,0.04752250015735626,0.09909119922667742,0.09953530039638281,0.7482530996203423
RSVPLG03,JM,20260218-095652,1.0.2,20251105-084826,764,Experiment,T1,1,Automatic,main,20,20260218-095847,local,local,750,H,H,E,A,E-H.png,A-H.png,hH,hH,mask-1.png,mask-2.png,h,1,0.113290099427104,none,-5,0,0.0463192006573081,0.046640099957585335,0.10019190050661564,0.09958510007709265,0.7490260004997253
RSVPLG03,JM,20260218-095652,1.0.2,20251105-084826,764,Experiment,T1,1,Automatic,main,21,20260218-095852,global,local,300,S,S,A,E,S-A.png,E-S.png,sS,sS,mask-4.png,mask-4.png,s,1,0.6368898991495371,none,-5,0,0.04923530016094446,0.04741210024803877,0.10043529979884624,0.10041860025376081,0.3005836997181177
RSVPLG03,JM,20260218-095652,1.0.2,20251105-084826,764,Experiment,T1,1,Automatic,main,22,20260218-095856,global,global,750,S,H,A,A,S-A.png,H-A.png,sS,hH,mask-1.png,mask-1.png,s,1,0.5181881999596953,none,-5,0,0.04656909964978695,0.04750579968094826,0.09958819951862097,0.10052669979631901,0.7489742999896407
RSVPLG03,JM,20260218-095652,1.0.2,20251105-084826,764,Experiment,T1,1,Automatic,main,23,20260218-095900,global,local,750,S,S,A,A,S-A.png,A-S.png,sS,sS,mask-2.png,mask-4.png,s,1,0.2523820996284485,none,-5,0,0.047477600164711475,0.047500899992883205,0.09881419967859983,0.09850830025970936,0.7495371997356415
RSVPLG03,JM,20260218-095652,1.0.2,20251105-084826,764,Experiment,T1,1,Automatic,main,24,20260218-095905,local,global,750,H,H,A,E,A-H.png,H-E.png,hH,hH,mask-1.png,mask-4.png,h,1,0.20233489945530891,none,-5,0,0.04759090021252632,0.047487800009548664,0.10059189982712269,0.09951910004019737,0.7490042001008987
RSVPLG03,JM,20260218-095652,1.0.2,20251105-084826,764,Experiment,T1,1,Automatic,main,25,20260218-095909,global,global,300,H,S,E,E,H-E.png,S-E.png,hH,sS,mask-1.png,mask-1.png,h,1,1.0002576997503638,none,-5,0,0.0471694003790617,0.04680130071938038,0.09919440001249313,0.09993410017341375,0.2994830999523401
RSVPLG03,JM,20260218-095652,1.0.2,20251105-084826,764,Experiment,T1,1,Automatic,main,26,20260218-095915,local,global,300,H,S,A,E,A-H.png,S-E.png,hH,sS,mask-3.png,mask-1.png,h,1,0.34495369996875525,none,-5,0,0.04866020008921623,0.04764659982174635,0.10071530006825924,0.10073199961334467,0.29974620044231415
RSVPLG03,JM,20260218-095652,1.0.2,20251105-084826,764,Experiment,T1,1,Automatic,main,27,20260218-095919,global,local,300,S,S,A,E,S-A.png,E-S.png,sS,sS,mask-3.png,mask-3.png,s,1,0.4445669995620847,none,-5,0,0.04778260085731745,0.04927309975028038,0.09890130069106817,0.1002853000536561,0.2986849006265402
RSVPLG03,JM,20260218-095652,1.0.2,20251105-084826,764,Experiment,T1,1,Automatic,main,28,20260218-095923,global,global,750,S,S,E,A,S-E.png,S-A.png,sS,sS,mask-1.png,mask-3.png,s,1,0.2466488005593419,none,-5,0,0.046561600640416145,0.04649929981678724,0.10005410015583038,0.10040450002998114,0.7494092006236315
RSVPLG03,JM,20260218-095652,1.0.2,20251105-084826,764,Experiment,T1,1,Automatic,main,29,20260218-095927,global,global,750,S,S,E,E,S-E.png,S-E.png,sS,sS,mask-1.png,mask-2.png,s,1,0.39646869990974665,none,-5,0,0.04854820016771555,0.04893419984728098,0.09995010029524565,0.10003679990768433,0.7495055003091693
RSVPLG03,JM,20260218-095652,1.0.2,20251105-084826,764,Experiment,T1,1,Automatic,main,30,20260218-095932,local,local,750,S,S,E,A,E-S.png,A-S.png,sS,sS,mask-2.png,mask-1.png,s,1,0.18395449966192245,none,-5,0,0.04873450007289648,0.048194900155067444,0.09980770014226437,0.10047749988734722,0.7494721999391913
RSVPLG03,JM,20260218-095652,1.0.2,20251105-084826,764,Experiment,T1,1,Automatic,main,31,20260218-095936,local,local,300,S,S,E,E,E-S.png,E-S.png,sS,sS,mask-2.png,mask-3.png,s,1,0.5404633991420269,none,-5,0,0.047594599425792694,0.04767060000449419,0.09870469942688942,0.09982430003583431,0.2987390998750925
RSVPLG03,JM,20260218-095652,1.0.2,20251105-084826,764,Experiment,T1,1,Automatic,main,32,20260218-095940,global,global,750,H,S,A,E,H-A.png,S-E.png,hH,sS,mask-4.png,mask-4.png,s,0,0.1988207995891571,none,-5,0,0.04685769975185394,0.0474377004429698,0.09942549932748079,0.09939779993146658,0.7487745992839336
RSVPLG03,JM,20260218-095652,1.0.2,20251105-084826,764,Experiment,T1,1,Automatic,main,33,20260218-095944,local,global,750,H,S,E,E,E-H.png,S-E.png,hH,sS,mask-3.png,mask-2.png,s,0,0.44231409952044487,none,-5,0,0.04666779935359955,0.047518400475382805,0.09992039948701859,0.09952570032328367,0.7499555991962552
RSVPLG03,JM,20260218-095652,1.0.2,20251105-084826,764,Experiment,T1,1,Automatic,main,34,20260218-095949,local,local,750,H,S,E,A,E-H.png,A-S.png,hH,sS,mask-4.png,mask-3.png,h,1,0.4938917998224497,none,-5,0,0.048639699816703796,0.048796599730849266,0.10065029934048653,0.09991739969700575,0.7489828998222947
RSVPLG03,JM,20260218-095652,1.0.2,20251105-084826,764,Experiment,T1,1,Automatic,main,35,20260218-095953,global,global,300,S,H,A,E,S-A.png,H-E.png,sS,hH,mask-2.png,mask-4.png,h,0,0.9001221992075443,none,-5,0,0.04687980003654957,0.046898599714040756,0.1006000004708767,0.09984610043466091,0.3003628998994827
RSVPLG03,JM,20260218-095652,1.0.2,20251105-084826,764,Experiment,T1,1,Automatic,main,36,20260218-095958,global,local,750,H,S,A,A,H-A.png,A-S.png,hH,sS,mask-4.png,mask-3.png,h,1,1.4984074998646975,none,-5,0,0.0458528995513916,0.048472700640559196,0.09934069961309433,0.10105070006102324,0.7487658997997642
RSVPLG03,JM,20260218-095652,1.0.2,20251105-084826,764,Experiment,T1,1,Automatic,main,37,20260218-100003,global,local,300,S,H,A,E,S-A.png,E-H.png,sS,hH,mask-3.png,mask-4.png,s,1,0.46593339927494526,none,-5,0,0.046608599834144115,0.04742429964244366,0.0988825997337699,0.09972990024834871,0.29990260023623705
RSVPLG03,JM,20260218-095652,1.0.2,20251105-084826,764,Experiment,T1,1,Automatic,main,38,20260218-100007,global,global,300,S,H,E,A,S-E.png,H-A.png,sS,hH,mask-3.png,mask-2.png,s,1,0.38388089928776026,none,-5,0,0.04851309955120087,0.047673399560153484,0.10166559927165508,0.10079469997435808,0.30128119979053736
RSVPLG03,JM,20260218-095652,1.0.2,20251105-084826,764,Experiment,T1,1,Automatic,main,39,20260218-100011,local,local,750,S,H,A,A,A-S.png,A-H.png,sS,hH,mask-1.png,mask-3.png,s,1,0.4947006003931165,none,-5,0,0.04771530069410801,0.047797899693250656,0.09990200027823448,0.10102600045502186,0.7479138001799583
RSVPLG03,JM,20260218-095652,1.0.2,20251105-084826,764,Experiment,T1,1,Automatic,main,40,20260218-100016,global,local,750,S,S,A,A,S-A.png,A-S.png,sS,sS,mask-1.png,mask-1.png,s,1,0.24404629971832037,none,-5,0,0.04768979921936989,0.04765000008046627,0.09985389932990074,0.0998270008713007,0.7497067991644144
RSVPLG03,JM,20260218-095652,1.0.2,20251105-084826,764,Experiment,T1,1,Automatic,main,41,20260218-100020,global,local,750,S,H,A,E,S-A.png,E-H.png,sS,hH,mask-1.png,mask-1.png,h,0,0.47855830006301403,none,-5,0,0.04770499933511019,0.047130100429058075,0.09987389948219061,0.0999768003821373,0.7491528997197747
RSVPLG03,JM,20260218-095652,1.0.2,20251105-084826,764,Experiment,T1,1,Automatic,main,42,20260218-100025,local,global,300,H,S,E,E,E-H.png,S-E.png,hH,sS,mask-1.png,mask-1.png,s,0,0.5549697000533342,none,-5,0,0.045714099891483784,0.04570470005273819,0.09793080016970634,0.09916769992560148,0.29962769988924265
RSVPLG03,JM,20260218-095652,1.0.2,20251105-084826,764,Experiment,T1,1,Automatic,main,43,20260218-100029,local,local,750,H,H,E,E,E-H.png,E-H.png,hH,hH,mask-2.png,mask-4.png,h,1,0.707265299744904,none,-5,0,0.04653040040284395,0.04769490007311106,0.09971590060740709,0.09927880018949509,0.749825700186193
RSVPLG03,JM,20260218-095652,1.0.2,20251105-084826,764,Experiment,T1,1,Automatic,main,44,20260218-100033,local,local,750,H,H,A,A,A-H.png,A-H.png,hH,hH,mask-2.png,mask-3.png,h,1,0.22564189974218607,none,-5,0,0.04568389989435673,0.04766339994966984,0.09985299967229366,0.10083709936589003,0.7477986002340913
RSVPLG03,JM,20260218-095652,1.0.2,20251105-084826,764,Experiment,T1,1,Automatic,main,45,20260218-100038,local,local,300,S,H,E,A,E-S.png,A-H.png,sS,hH,mask-2.png,mask-1.png,s,1,0.4945768006145954,none,-5,0,0.04765530023723841,0.046117099933326244,0.09986630082130432,0.0990900993347168,0.3000056007876992
RSVPLG03,JM,20260218-095652,1.0.2,20251105-084826,764,Experiment,T1,1,Automatic,main,46,20260218-100042,local,global,300,H,S,A,E,A-H.png,S-E.png,hH,sS,mask-3.png,mask-2.png,h,1,0.39921810012310743,none,-5,0,0.04878859966993332,0.04668639972805977,0.10096539929509163,0.10068709962069988,0.300195699557662
RSVPLG03,JM,20260218-095652,1.0.2,20251105-084826,764,Experiment,T1,1,Automatic,main,47,20260218-100046,global,local,750,S,H,E,A,S-E.png,A-H.png,sS,hH,mask-3.png,mask-2.png,h,0,0.5446632001549006,none,-5,0,0.047406899742782116,0.047481000423431396,0.09843309968709946,0.09848219994455576,0.7498025000095367
RSVPLG03,JM,20260218-095652,1.0.2,20251105-084826,764,Experiment,T1,1,Automatic,main,48,20260218-100050,local,global,300,S,S,A,A,A-S.png,S-A.png,sS,sS,mask-4.png,mask-4.png,s,1,0.630723999813199,none,-5,0,0.04739330057054758,0.04748289939016104,0.09930360037833452,0.0993029996752739,0.300564500503242
RSVPLG03,JM,20260218-095652,1.0.2,20251105-084826,764,Experiment,T1,1,Automatic,main,49,20260218-100054,global,global,300,S,S,E,E,S-E.png,S-E.png,sS,sS,mask-2.png,mask-4.png,s,1,0.36685310024768114,none,-5,0,0.04684409964829683,0.04751370009034872,0.09841949958354235,0.09952920023351908,0.2990937000140548
RSVPLG03,JM,20260218-095652,1.0.2,20251105-084826,764,Experiment,T1,1,Automatic,main,50,20260218-100058,global,local,300,H,S,A,E,H-A.png,E-S.png,hH,sS,mask-4.png,mask-3.png,s,0,0.2764590997248888,none,-5,0,0.047695400193333626,0.046742199920117855,0.0998816005885601,0.09943749941885471,0.29946260061115026
RSVPLG03,JM,20260218-095652,1.0.2,20251105-084826,764,Experiment,T1,1,Automatic,main,51,20260218-100104,global,local,300,S,S,E,A,S-E.png,A-S.png,sS,sS,mask-2.png,mask-4.png,s,1,0.24463940039277077,none,-5,0,0.04682630021125078,0.047519100829958916,0.10013270005583763,0.10151690058410168,0.29889579955488443
RSVPLG03,JM,20260218-095652,1.0.2,20251105-084826,764,Experiment,T1,1,Automatic,main,52,20260218-100108,local,local,300,S,S,E,E,E-S.png,E-S.png,sS,sS,mask-4.png,mask-3.png,s,1,0.25604730006307364,none,-5,0,0.0483838003128767,0.04743169993162155,0.1001831004396081,0.09917759988456964,0.301158600486815
RSVPLG03,JM,20260218-095652,1.0.2,20251105-084826,764,Experiment,T1,1,Automatic,main,53,20260218-100111,global,global,300,S,H,A,A,S-A.png,H-A.png,sS,hH,mask-2.png,mask-1.png,s,1,0.28366620000451803,none,-5,0,0.047690399922430515,0.04701230023056269,0.099622399546206,0.10042619984596968,0.2995659001171589
RSVPLG03,JM,20260218-095652,1.0.2,20251105-084826,764,Experiment,T1,1,Automatic,main,54,20260218-100115,local,global,300,S,H,E,E,E-S.png,H-E.png,sS,hH,mask-3.png,mask-2.png,s,1,0.24915660079568624,none,-5,0,0.046655199490487576,0.04767149966210127,0.09852040000259876,0.10080960020422935,0.2982812998816371
RSVPLG03,JM,20260218-095652,1.0.2,20251105-084826,764,Experiment,T1,1,Automatic,main,55,20260218-100119,global,local,300,H,H,E,E,H-E.png,E-H.png,hH,hH,mask-4.png,mask-4.png,s,0,0.19535760022699833,none,-5,0,0.048546500504016876,0.04756749980151653,0.1009287005290389,0.09883719962090254,0.30041650030761957
RSVPLG03,JM,20260218-095652,1.0.2,20251105-084826,764,Experiment,T1,1,Automatic,main,56,20260218-100123,global,global,750,S,S,A,E,S-A.png,S-E.png,sS,sS,mask-1.png,mask-3.png,s,1,0.704487600363791,none,-5,0,0.046744500286877155,0.04646509978920221,0.09903249982744455,0.09862389974296093,0.7492158999666572
RSVPLG03,JM,20260218-095652,1.0.2,20251105-084826,764,Experiment,T1,1,Automatic,main,57,20260218-100128,local,global,750,H,H,E,E,E-H.png,H-E.png,hH,hH,mask-2.png,mask-1.png,h,1,0.3355807000771165,none,-5,0,0.04675429966300726,0.04679980035871267,0.0990276001393795,0.1001086002215743,0.748883499763906
RSVPLG03,JM,20260218-095652,1.0.2,20251105-084826,764,Experiment,T1,1,Automatic,main,58,20260218-100132,local,global,750,S,H,E,A,E-S.png,H-A.png,sS,hH,mask-1.png,mask-4.png,s,1,0.27672800049185753,none,-5,0,0.04681980051100254,0.04707849957048893,0.09900439996272326,0.10032299999147654,0.7493942007422447
RSVPLG03,JM,20260218-095652,1.0.2,20251105-084826,764,Experiment,T1,1,Automatic,main,59,20260218-100136,global,local,750,H,S,E,A,H-E.png,A-S.png,hH,sS,mask-3.png,mask-4.png,h,1,0.2735302001237869,none,-5,0,0.04600309953093529,0.04865510016679764,0.09813189972192049,0.09985610004514456,0.7483728993684053
RSVPLG03,JM,20260218-095652,1.0.2,20251105-084826,764,Experiment,T1,1,Automatic,main,60,20260218-100141,global,local,750,S,S,A,A,S-A.png,A-S.png,sS,sS,mask-2.png,mask-2.png,s,1,0.25424129981547594,none,-5,0,0.0475079994648695,0.04858030006289482,0.10051029920578003,0.10058940015733242,0.7495808992534876
RSVPLG03,JM,20260218-095652,1.0.2,20251105-084826,764,Experiment,T1,1,Automatic,main,61,20260218-100145,local,global,750,S,H,A,E,A-S.png,H-E.png,sS,hH,mask-2.png,mask-1.png,s,1,0.5082076992839575,none,-5,0,0.04749399982392788,0.04695170000195503,0.09864419978111982,0.10108229983597994,0.7487578000873327
RSVPLG03,JM,20260218-095652,1.0.2,20251105-084826,764,Experiment,T1,1,Automatic,main,62,20260218-100149,local,local,300,S,S,E,E,E-S.png,E-S.png,sS,sS,mask-2.png,mask-3.png,s,1,0.510360099375248,none,-5,0,0.04570019990205765,0.049137999303638935,0.09960070066154003,0.10043729934841394,0.2982859006151557
RSVPLG03,JM,20260218-095652,1.0.2,20251105-084826,764,Experiment,T1,1,Automatic,main,63,20260218-100153,local,global,750,S,S,E,A,E-S.png,S-A.png,sS,sS,mask-3.png,mask-1.png,s,1,0.20391060039401054,none,-5,0,0.04767090082168579,0.04882099945098162,0.09968560002744198,0.1009790999814868,0.7490035006776452
RSVPLG03,JM,20260218-095652,1.0.2,20251105-084826,764,Experiment,T1,1,Automatic,main,64,20260218-100158,global,local,750,S,H,A,A,S-A.png,A-H.png,sS,hH,mask-3.png,mask-3.png,h,0,0.40361260063946247,none,-5,0,0.04553770087659359,0.04767190013080835,0.09840280003845692,0.09988029953092337,0.7492082007229328
RSVPLG03,JM,20260218-095652,1.0.2,20251105-084826,764,Experiment,T1,1,Automatic,main,65,20260218-100202,global,local,300,H,H,A,E,H-A.png,E-H.png,hH,hH,mask-1.png,mask-1.png,h,1,0.5462843999266624,none,-5,0,0.047524500638246536,0.04539109952747822,0.10150730051100254,0.0990120992064476,0.30159040074795485
RSVPLG03,JM,20260218-095652,1.0.2,20251105-084826,764,Experiment,T1,1,Automatic,main,66,20260218-100206,global,local,300,H,H,E,A,H-E.png,A-H.png,hH,hH,mask-1.png,mask-2.png,h,1,0.4688782002776861,none,-5,0,0.04728190042078495,0.04748409986495972,0.1001367000862956,0.09911580011248589,0.30015929974615574
RSVPLG03,JM,20260218-095652,1.0.2,20251105-084826,764,Experiment,T1,1,Automatic,main,67,20260218-100210,local,local,300,S,S,A,A,A-S.png,A-S.png,sS,sS,mask-3.png,mask-4.png,s,1,0.3629342997446656,none,-5,0,0.04757370054721832,0.047557100653648376,0.10068640019744635,0.09965930040925741,0.3000109000131488
RSVPLG03,JM,20260218-095652,1.0.2,20251105-084826,764,Experiment,T1,1,Automatic,main,68,20260218-100214,global,local,750,H,H,A,E,H-A.png,E-H.png,hH,hH,mask-2.png,mask-2.png,h,1,0.25486170034855604,none,-5,0,0.04650030005723238,0.048572300001978874,0.09949690010398626,0.10169839952141047,0.7483550002798438
RSVPLG03,JM,20260218-095652,1.0.2,20251105-084826,764,Experiment,T1,1,Automatic,main,69,20260218-100218,global,global,750,H,S,A,A,H-A.png,S-A.png,hH,sS,mask-4.png,mask-3.png,h,1,0.3571613999083638,none,-5,0,0.04753039963543415,0.04754739999771118,0.10106799937784672,0.10054129920899868,0.7500400999560952
RSVPLG03,JM,20260218-095652,1.0.2,20251105-084826,764,Experiment,T1,1,Automatic,main,70,20260218-100223,global,global,750,H,S,E,A,H-E.png,S-A.png,hH,sS,mask-4.png,mask-1.png,h,1,0.2859788006171584,none,-5,0,0.0475215008482337,0.04751669988036156,0.09957950003445148,0.09954610001295805,0.7505613006651402
RSVPLG03,JM,20260218-095652,1.0.2,20251105-084826,764,Experiment,T1,1,Automatic,main,71,20260218-100227,local,local,750,H,S,A,A,A-H.png,A-S.png,hH,sS,mask-2.png,mask-3.png,h,1,0.10786820016801357,none,-5,0,0.04757940024137497,0.04775260016322136,0.10040450002998114,0.09992820024490356,0.7484397999942303
RSVPLG03,JM,20260218-095652,1.0.2,20251105-084826,764,Experiment,T1,1,Automatic,main,72,20260218-100231,local,global,750,S,S,E,E,E-S.png,S-E.png,sS,sS,mask-3.png,mask-4.png,s,1,0.4614634998142719,none,-5,0,0.04565589968115091,0.0485878000035882,0.09949029982089996,0.09962880052626133,0.7484924998134375
RSVPLG03,JM,20260218-095652,1.0.2,20251105-084826,764,Experiment,T1,1,Automatic,main,73,20260218-100236,local,global,750,S,S,E,A,E-S.png,S-A.png,sS,sS,mask-2.png,mask-4.png,s,1,0.23570600058883429,none,-5,0,0.04715279955416918,0.04920380003750324,0.10152619984000921,0.10104780085384846,0.7490497995167971
RSVPLG03,JM,20260218-095652,1.0.2,20251105-084826,764,Experiment,T1,1,Automatic,main,74,20260218-100240,global,global,300,H,H,A,E,H-A.png,H-E.png,hH,hH,mask-2.png,mask-4.png,h,1,0.3143135001882911,none,-5,0,0.0475188996642828,0.04757549986243248,0.09935349971055984,0.09957029949873686,0.3001367002725601
RSVPLG03,JM,20260218-095652,1.0.2,20251105-084826,764,Experiment,T1,1,Automatic,main,75,20260218-100244,local,local,300,S,S,E,A,E-S.png,A-S.png,sS,sS,mask-2.png,mask-2.png,s,1,0.4524767007678747,none,-5,0,0.04759890027344227,0.04765139985829592,0.10060689970850945,0.09964030049741268,0.3006996000185609
RSVPLG03,JM,20260218-095652,1.0.2,20251105-084826,764,Experiment,T1,1,Automatic,main,76,20260218-100250,local,local,300,H,S,E,E,E-H.png,E-S.png,hH,sS,mask-3.png,mask-2.png,h,1,0.4370464999228716,none,-5,0,0.04751980025321245,0.04752499982714653,0.09953320026397705,0.10040949936956167,0.29924780037254095
RSVPLG03,JM,20260218-095652,1.0.2,20251105-084826,764,Experiment,T1,1,Automatic,main,77,20260218-100254,global,local,300,S,S,A,A,S-A.png,A-S.png,sS,sS,mask-1.png,mask-2.png,h,0,0.4206661004573107,none,-5,0,0.047441099770367146,0.049706799909472466,0.10049910005182028,0.10079739987850189,0.2990952003747225
RSVPLG03,JM,20260218-095652,1.0.2,20251105-084826,764,Experiment,T1,1,Automatic,main,78,20260218-100258,local,local,750,H,S,E,E,E-H.png,E-S.png,hH,sS,mask-4.png,mask-4.png,s,0,0.2735163997858763,none,-5,0,0.04850180074572563,0.04754520021378994,0.09950910042971373,0.09953160025179386,0.7494839001446962
RSVPLG03,JM,20260218-095652,1.0.2,20251105-084826,764,Experiment,T1,1,Automatic,main,79,20260218-100302,global,global,750,S,H,E,E,S-E.png,H-E.png,sS,hH,mask-4.png,mask-4.png,h,0,0.3768964000046253,none,-5,0,0.04558090027421713,0.047051300294697285,0.09962920006364584,0.09863440040498972,0.7489625001326203
RSVPLG03,JM,20260218-095652,1.0.2,20251105-084826,764,Experiment,T1,1,Automatic,main,80,20260218-100306,local,global,300,S,S,A,A,A-S.png,S-A.png,sS,sS,mask-1.png,mask-3.png,s,1,0.22501720022410154,none,-5,0,0.047498700208961964,0.04738010000437498,0.1007065000012517,0.10031559970229864,0.2998454999178648
RSVPLG03,JM,20260218-095652,1.0.2,20251105-084826,764,Experiment,T1,1,Automatic,main,81,20260218-100310,global,global,300,H,H,A,A,H-A.png,H-A.png,hH,hH,mask-2.png,mask-4.png,s,0,0.36385019961744547,none,-5,0,0.04750940017402172,0.04750999994575977,0.1015004999935627,0.1005411995574832,0.30005690082907677
RSVPLG03,JM,20260218-095652,1.0.2,20251105-084826,764,Experiment,T1,1,Automatic,main,82,20260218-100314,local,local,750,S,H,E,A,E-S.png,A-H.png,sS,hH,mask-4.png,mask-2.png,h,0,0.2717505991458893,none,-5,0,0.04748179949820042,0.04749029967933893,0.09937829989939928,0.09928599931299686,0.7501218002289534
RSVPLG03,JM,20260218-095652,1.0.2,20251105-084826,764,Experiment,T1,1,Automatic,main,83,20260218-100318,global,global,750,H,H,A,A,H-A.png,H-A.png,hH,hH,mask-4.png,mask-1.png,h,1,0.24039539974182844,none,-5,0,0.047004600055515766,0.048500300385057926,0.10106389969587326,0.10051039978861809,0.7494636997580528
RSVPLG03,JM,20260218-095652,1.0.2,20251105-084826,764,Experiment,T1,1,Automatic,main,84,20260218-100322,local,local,300,H,S,E,A,E-H.png,A-S.png,hH,sS,mask-4.png,mask-3.png,h,1,0.511812299489975,none,-5,0,0.04676759988069534,0.04846520069986582,0.09972400031983852,0.10151480045169592,0.2993709994480014
RSVPLG03,JM,20260218-095652,1.0.2,20251105-084826,764,Experiment,T1,1,Automatic,main,85,20260218-100327,local,global,750,S,H,E,E,E-S.png,H-E.png,sS,hH,mask-3.png,mask-1.png,h,0,0.3492421004921198,none,-5,0,0.04865469969809055,0.04668209981173277,0.10008719936013222,0.09991850052028894,0.7506973994895816
RSVPLG03,JM,20260218-095652,1.0.2,20251105-084826,764,Experiment,T1,1,Automatic,main,86,20260218-100331,local,global,300,S,S,A,E,A-S.png,S-E.png,sS,sS,mask-2.png,mask-1.png,h,0,0.35535289999097586,none,-5,0,0.04769140016287565,0.04669160023331642,0.10089320037513971,0.09889290016144514,0.30107029993087053
RSVPLG03,JM,20260218-095652,1.0.2,20251105-084826,764,Experiment,T1,1,Automatic,main,87,20260218-100335,global,local,300,H,S,E,A,H-E.png,A-S.png,hH,sS,mask-2.png,mask-1.png,h,1,0.7029593996703625,none,-5,0,0.04885770007967949,0.048762000165879726,0.1000560000538826,0.10098790004849434,0.3003104003146291
RSVPLG03,JM,20260218-095652,1.0.2,20251105-084826,764,Experiment,T1,1,Automatic,main,88,20260218-100339,global,global,300,H,S,E,E,H-E.png,S-E.png,hH,sS,mask-4.png,mask-1.png,h,1,0.2643389003351331,none,-5,0,0.048705799505114555,0.048650600016117096,0.10001689940690994,0.09945849981158972,0.29933649953454733
RSVPLG03,JM,20260218-095652,1.0.2,20251105-084826,764,Experiment,T1,1,Automatic,main,89,20260218-100343,global,global,300,S,H,E,A,S-E.png,H-A.png,sS,hH,mask-3.png,mask-4.png,h,0,0.8680900000035763,none,-5,0,0.04775010049343109,0.048294500447809696,0.10014879982918501,0.09976510051637888,0.30069969967007637
RSVPLG03,JM,20260218-095652,1.0.2,20251105-084826,764,Experiment,T1,1,Automatic,main,90,20260218-100347,global,local,300,S,S,E,E,S-E.png,E-S.png,sS,sS,mask-1.png,mask-3.png,h,0,0.2976170005276799,none,-5,0,0.048498199321329594,0.04680940043181181,0.10053509939461946,0.09971970040351152,0.3000288996845484
RSVPLG03,JM,20260218-095652,1.0.2,20251105-084826,764,Experiment,T1,1,Automatic,main,91,20260218-100351,local,global,750,S,H,A,E,A-S.png,H-E.png,sS,hH,mask-2.png,mask-2.png,h,0,0.1271999003365636,none,-5,0,0.04690589942038059,0.04683870077133179,0.09987179934978485,0.1008687000721693,0.7497607991099358
RSVPLG03,JM,20260218-095652,1.0.2,20251105-084826,764,Experiment,T1,1,Automatic,main,92,20260218-100355,global,global,300,S,H,E,A,S-E.png,H-A.png,sS,hH,mask-2.png,mask-4.png,s,1,1.1855218997225165,none,-5,0,0.047518299892544746,0.04938520025461912,0.09924609959125519,0.10129810031503439,0.2983039999380708
RSVPLG03,JM,20260218-095652,1.0.2,20251105-084826,764,Experiment,T1,1,Automatic,main,93,20260218-100400,global,local,750,H,S,A,E,H-A.png,E-S.png,hH,sS,mask-3.png,mask-3.png,h,1,0.15863179974257946,none,-5,0,0.04871990066021681,0.04781919997185469,0.09999150037765503,0.09917940013110638,0.7505013002082705
RSVPLG03,JM,20260218-095652,1.0.2,20251105-084826,764,Experiment,T1,1,Automatic,main,94,20260218-100404,global,global,750,H,S,A,A,H-A.png,S-A.png,hH,sS,mask-4.png,mask-4.png,s,0,0.17901930026710033,none,-5,0,0.04767979960888624,0.04556570015847683,0.0988841000944376,0.09858500026166439,0.7500342996791005
RSVPLG03,JM,20260218-095652,1.0.2,20251105-084826,764,Experiment,T1,1,Automatic,main,95,20260218-100408,global,local,750,S,S,A,A,S-A.png,A-S.png,sS,sS,mask-3.png,mask-2.png,s,1,0.3280681995674968,none,-5,0,0.04670449998229742,0.047520799562335014,0.10049019940197468,0.09952539950609207,0.7498826999217272
RSVPLG03,JM,20260218-095652,1.0.2,20251105-084826,764,Experiment,T1,1,Automatic,main,96,20260218-100413,local,local,300,H,S,E,E,E-H.png,E-S.png,hH,sS,mask-2.png,mask-3.png,h,1,0.3492331001907587,none,-5,0,0.047401899471879005,0.04750969912856817,0.10024810023605824,0.09983079973608255,0.300492400303483
RSVPLG03,JM,20260218-095652,1.0.2,20251105-084826,764,Experiment,T1,1,Automatic,main,97,20260218-100417,global,global,750,S,H,A,A,S-A.png,H-A.png,sS,hH,mask-3.png,mask-4.png,s,1,0.2682304000481963,none,-5,0,0.04818340018391609,0.047534200362861156,0.1004491001367569,0.1000431003049016,0.7503384994342923
RSVPLG03,JM,20260218-095652,1.0.2,20251105-084826,764,Experiment,T1,1,Automatic,main,98,20260218-100421,local,local,300,S,S,E,A,E-S.png,A-S.png,sS,sS,mask-2.png,mask-2.png,s,1,0.41297920048236847,none,-5,0,0.046524399891495705,0.047388399951159954,0.10018070042133331,0.09971170034259558,0.2993029002100229
RSVPLG03,JM,20260218-095652,1.0.2,20251105-084826,764,Experiment,T1,1,Automatic,main,99,20260218-100425,global,local,750,H,S,A,A,H-A.png,A-S.png,hH,sS,mask-1.png,mask-4.png,h,1,0.24871139973402023,none,-5,0,0.04691530019044876,0.04714549984782934,0.1000544996932149,0.09917709976434708,0.7498714001849294
RSVPLG03,JM,20260218-095652,1.0.2,20251105-084826,764,Experiment,T1,1,Automatic,main,100,20260218-100429,local,local,750,S,S,E,E,E-S.png,E-S.png,sS,sS,mask-1.png,mask-4.png,s,1,0.2206827001646161,none,-5,0,0.04743080027401447,0.04832500033080578,0.09974529966711998,0.10063600074499846,0.74809439945966
RSVPLG03,JM,20260218-100507,1.0.2,20251105-084826,764,Experiment,Both,1,Automatic,warmup,1,20260218-100527,local,global,300,S,H,E,E,E-S.png,H-E.png,sS,hH,mask-4.png,mask-4.png,h,0,1.1495107999071479,s,0,0.3715123003348708,0.04723659995943308,0.048696900717914104,0.10045959986746311,0.09990350063890219,0.3004113994538784
RSVPLG03,JM,20260218-100507,1.0.2,20251105-084826,764,Experiment,Both,1,Automatic,warmup,2,20260218-100532,global,local,300,S,H,E,E,S-E.png,E-H.png,sS,hH,mask-1.png,mask-2.png,s,1,0.4227277999743819,h,1,0.8768546003848314,0.048474899493157864,0.04767629969865084,0.1014673002064228,0.100683500058949,0.30174329970031977
RSVPLG03,JM,20260218-100507,1.0.2,20251105-084826,764,Experiment,Both,1,Automatic,warmup,3,20260218-100537,local,local,300,S,S,A,E,A-S.png,E-S.png,sS,sS,mask-4.png,mask-2.png,s,1,0.4442236004397273,s,1,0.11034590005874634,0.04934199992567301,0.04807739984244108,0.1004155995324254,0.10016159992665052,0.3016467001289129
RSVPLG03,JM,20260218-100507,1.0.2,20251105-084826,764,Experiment,Both,1,Automatic,warmup,4,20260218-100541,global,global,300,H,S,A,A,H-A.png,S-A.png,hH,sS,mask-3.png,mask-3.png,s,0,0.3370262002572417,s,1,0.09196180012077093,0.04623259976506233,0.04938539955765009,0.09928630013018847,0.10037569981068373,0.29961059987545013
RSVPLG03,JM,20260218-100507,1.0.2,20251105-084826,764,Experiment,Both,1,Automatic,main,5,20260218-100545,global,local,300,H,S,A,E,H-A.png,E-S.png,hH,sS,mask-1.png,mask-3.png,h,1,0.38127490039914846,s,1,0.006104799918830395,0.04772019945085049,0.047758099623024464,0.09931339975446463,0.10195389948785305,0.3000881001353264
RSVPLG03,JM,20260218-100507,1.0.2,20251105-084826,764,Experiment,Both,1,Automatic,main,6,20260218-100549,global,local,300,S,S,A,E,S-A.png,E-S.png,sS,sS,mask-3.png,mask-3.png,s,1,0.4046954996883869,s,1,0.08179750014096498,0.04664990026503801,0.046866800636053085,0.09930300060659647,0.09890830051153898,0.3010128000751138
RSVPLG03,JM,20260218-100507,1.0.2,20251105-084826,764,Experiment,Both,1,Automatic,main,7,20260218-100553,local,global,300,S,S,A,E,A-S.png,S-E.png,sS,sS,mask-4.png,mask-1.png,s,1,0.22259510029107332,s,1,0.06634850054979324,0.047923799604177475,0.04767809994518757,0.09959120023995638,0.10178099945187569,0.30030240025371313
RSVPLG03,JM,20260218-100507,1.0.2,20251105-084826,764,Experiment,Both,1,Automatic,main,8,20260218-100557,local,local,750,S,S,E,A,E-S.png,A-S.png,sS,sS,mask-4.png,mask-1.png,s,1,0.33507119957357645,s,1,0.08897239994257689,0.04670710023492575,0.04925849940627813,0.09989059995859861,0.10220529977232218,0.7498858002945781
RSVPLG03,JM,20260218-100507,1.0.2,20251105-084826,764,Experiment,Both,1,Automatic,main,9,20260218-100602,global,local,300,S,H,A,A,S-A.png,A-H.png,sS,hH,mask-1.png,mask-2.png,s,1,0.34036519937217236,s,0,0.08893730025738478,0.047040400095283985,0.04734469950199127,0.1000579996034503,0.09908629953861237,0.30019159987568855
RSVPLG03,JM,20260218-100507,1.0.2,20251105-084826,764,Experiment,Both,1,Automatic,main,10,20260218-100606,local,global,300,S,S,A,E,A-S.png,S-E.png,sS,sS,mask-3.png,mask-4.png,s,1,0.41285450011491776,s,1,0.10929539985954762,0.04873250052332878,0.04775079991668463,0.10114319995045662,0.10063679981976748,0.30074260011315346
RSVPLG03,JM,20260218-100507,1.0.2,20251105-084826,764,Experiment,Both,1,Automatic,main,11,20260218-100610,global,local,750,H,H,A,A,H-A.png,A-H.png,hH,hH,mask-3.png,mask-1.png,h,1,0.3380391001701355,h,1,0.07555750012397766,0.04776869993656874,0.04855840001255274,0.10081900004297495,0.10076970048248768,0.7513798996806145
RSVPLG03,JM,20260218-100507,1.0.2,20251105-084826,764,Experiment,Both,1,Automatic,main,12,20260218-100615,global,local,750,H,H,E,A,H-E.png,A-H.png,hH,hH,mask-2.png,mask-2.png,h,1,0.20849139988422394,h,1,0.05822120048105717,0.04850579984486103,0.04758480004966259,0.10047749988734722,0.10060379933565855,0.7520642001181841
RSVPLG03,JM,20260218-100507,1.0.2,20251105-084826,764,Experiment,Both,1,Automatic,main,13,20260218-100619,local,global,300,H,H,E,A,E-H.png,H-A.png,hH,hH,mask-4.png,mask-4.png,h,1,0.49846980068832636,h,1,0.0650017000734806,0.047455900348722935,0.04744889959692955,0.10072300024330616,0.09998259972780943,0.30215550027787685
RSVPLG03,JM,20260218-100507,1.0.2,20251105-084826,764,Experiment,Both,1,Automatic,main,14,20260218-100623,local,local,750,S,S,E,A,E-S.png,A-S.png,sS,sS,mask-1.png,mask-1.png,s,1,0.23684759996831417,s,1,0.07726860046386719,0.04767940007150173,0.04757670033723116,0.10012160055339336,0.10062370076775551,0.7517707999795675
RSVPLG03,JM,20260218-100507,1.0.2,20251105-084826,764,Experiment,Both,1,Automatic,main,15,20260218-100628,global,local,750,H,H,A,E,H-A.png,E-H.png,hH,hH,mask-1.png,mask-1.png,h,1,0.26617359928786755,h,1,0.10559810046106577,0.04865949973464012,0.04797779954969883,0.09985130000859499,0.10100669972598553,0.7521454999223351
RSVPLG03,JM,20260218-100507,1.0.2,20251105-084826,764,Experiment,Both,1,Automatic,main,16,20260218-100632,local,local,300,S,S,E,A,E-S.png,A-S.png,sS,sS,mask-2.png,mask-1.png,s,1,0.7617119997739792,s,1,0.08695429936051369,0.048296499997377396,0.04839990008622408,0.10124879982322454,0.10136070009320974,0.30079289991408587
RSVPLG03,JM,20260218-100507,1.0.2,20251105-084826,764,Experiment,Both,1,Automatic,main,17,20260218-100637,global,local,300,H,H,E,E,H-E.png,E-H.png,hH,hH,mask-4.png,mask-4.png,h,1,0.9322004998102784,h,1,0.12030289974063635,0.04857399966567755,0.0470847999677062,0.09988419990986586,0.09936119988560677,0.30183499958366156
RSVPLG03,JM,20260218-100507,1.0.2,20251105-084826,764,Experiment,Both,1,Automatic,main,18,20260218-100642,global,global,750,H,S,E,E,H-E.png,S-E.png,hH,sS,mask-4.png,mask-1.png,h,1,0.3676730999723077,h,0,0.10693150013685226,0.04741600062698126,0.04752330016344786,0.09964860044419765,0.10052239987999201,0.7521088002249599
RSVPLG03,JM,20260218-100507,1.0.2,20251105-084826,764,Experiment,Both,1,Automatic,main,19,20260218-100646,global,global,750,H,S,E,E,H-E.png,S-E.png,hH,sS,mask-2.png,mask-1.png,h,1,0.40763119980692863,h,0,0.11227099969983101,0.04914759937673807,0.04767290037125349,0.10141150001436472,0.10007579997181892,0.7528847996145487
RSVPLG03,JM,20260218-100507,1.0.2,20251105-084826,764,Experiment,Both,1,Automatic,main,20,20260218-100651,local,global,300,H,S,A,A,A-H.png,S-A.png,hH,sS,mask-2.png,mask-3.png,h,1,0.46747029945254326,s,1,0.0556086003780365,0.04788359999656677,0.047601599246263504,0.10097119957208633,0.10062029957771301,0.30163600016385317
RSVPLG03,JM,20260218-100507,1.0.2,20251105-084826,764,Experiment,Both,1,Automatic,main,21,20260218-100655,local,local,300,S,H,E,E,E-S.png,E-H.png,sS,hH,mask-1.png,mask-4.png,h,0,0.7297564996406436,h,1,0.10002350062131882,0.04759670048952103,0.04747050069272518,0.10002070013433695,0.1003278000280261,0.3005929999053478
RSVPLG03,JM,20260218-100507,1.0.2,20251105-084826,764,Experiment,Both,1,Automatic,main,22,20260218-100700,local,global,300,S,H,A,A,A-S.png,H-A.png,sS,hH,mask-4.png,mask-1.png,s,1,0.5715375002473593,s,0,0.10154480021446943,0.0475212000310421,0.04738170001655817,0.09934450034052134,0.10058079939335585,0.3001626003533602
RSVPLG03,JM,20260218-100507,1.0.2,20251105-084826,764,Experiment,Both,1,Automatic,main,23,20260218-100704,global,global,750,H,S,E,A,H-E.png,S-A.png,hH,sS,mask-4.png,mask-3.png,h,1,0.312168600037694,h,0,0.09642309974879026,0.04856469947844744,0.04926879983395338,0.10161409992724657,0.10108349937945604,0.7511237999424338
RSVPLG03,JM,20260218-100507,1.0.2,20251105-084826,764,Experiment,Both,1,Automatic,main,24,20260218-100709,global,global,300,H,H,A,A,H-A.png,H-A.png,hH,hH,mask-3.png,mask-4.png,h,1,0.5389633998274803,h,1,0.06301050074398518,0.04660530015826225,0.04669399932026863,0.09965759981423616,0.09989359974861145,0.30033150035887957
RSVPLG03,JM,20260218-100507,1.0.2,20251105-084826,764,Experiment,Both,1,Automatic,main,25,20260218-100713,local,local,300,S,H,A,A,A-S.png,A-H.png,sS,hH,mask-1.png,mask-1.png,h,0,0.37562800012528896,h,1,0.07461090013384819,0.04859800077974796,0.0487293004989624,0.10168110020458698,0.10028310026973486,0.30031710024923086
RSVPLG03,JM,20260218-100507,1.0.2,20251105-084826,764,Experiment,Both,1,Automatic,main,26,20260218-100718,global,global,750,H,S,A,E,H-A.png,S-E.png,hH,sS,mask-3.png,mask-2.png,h,1,0.40613640006631613,h,0,0.07571330014616251,0.04858459997922182,0.047512500546872616,0.10058919992297888,0.09877420030534267,0.7530239997431636
RSVPLG03,JM,20260218-100507,1.0.2,20251105-084826,764,Experiment,Both,1,Automatic,main,27,20260218-100722,global,global,300,H,H,E,A,H-E.png,H-A.png,hH,hH,mask-4.png,mask-4.png,h,1,0.470401699654758,h,1,0.06969220004975796,0.047252899967134,0.04857329931110144,0.0992760993540287,0.10031989961862564,0.29924200009554625
RSVPLG03,JM,20260218-100507,1.0.2,20251105-084826,764,Experiment,Both,1,Automatic,main,28,20260218-100727,global,local,750,S,H,E,A,S-E.png,A-H.png,sS,hH,mask-1.png,mask-3.png,s,1,0.2871626000851393,s,0,0.09737630002200603,0.04768250044435263,0.04744100011885166,0.10189990047365427,0.09881910029798746,0.7534630000591278
RSVPLG03,JM,20260218-100507,1.0.2,20251105-084826,764,Experiment,Both,1,Automatic,main,29,20260218-100731,local,global,300,S,H,E,E,E-S.png,H-E.png,sS,hH,mask-3.png,mask-3.png,s,1,0.8404916999861598,s,0,0.10466379951685667,0.04584049992263317,0.04640160035341978,0.09908150043338537,0.09940479975193739,0.3014393001794815
RSVPLG03,JM,20260218-100507,1.0.2,20251105-084826,764,Experiment,Both,1,Automatic,main,30,20260218-100736,global,local,750,S,S,E,A,S-E.png,A-S.png,sS,sS,mask-1.png,mask-2.png,s,1,0.1873409003019333,s,1,0.07149459980428219,0.048672799952328205,0.04952650051563978,0.10156389977782965,0.10056379996240139,0.7520307991653681
RSVPLG03,JM,20260218-100507,1.0.2,20251105-084826,764,Experiment,Both,1,Automatic,main,31,20260218-100740,global,global,750,H,S,A,A,H-A.png,S-A.png,hH,sS,mask-4.png,mask-1.png,s,0,0.2309085000306368,s,1,0.06803249940276146,0.04866989981383085,0.04800250008702278,0.09976380039006472,0.10030090063810349,0.7512240996584296
RSVPLG03,JM,20260218-100507,1.0.2,20251105-084826,764,Experiment,Both,1,Automatic,main,32,20260218-100745,local,global,300,H,H,A,E,A-H.png,H-E.png,hH,hH,mask-1.png,mask-2.png,h,1,0.28204429987818,h,1,0.08232130017131567,0.04876550007611513,0.04768139962106943,0.10099289938807487,0.09988619945943356,0.3015566999092698
RSVPLG03,JM,20260218-100507,1.0.2,20251105-084826,764,Experiment,Both,1,Automatic,main,33,20260218-100749,local,local,300,S,H,A,E,A-S.png,E-H.png,sS,hH,mask-3.png,mask-3.png,s,1,0.4829307999461889,s,0,0.08948480058461428,0.04825169965624809,0.0458922004327178,0.1001761993393302,0.09896150045096874,0.3019424993544817
RSVPLG03,JM,20260218-100507,1.0.2,20251105-084826,764,Experiment,Both,1,Automatic,main,34,20260218-100753,global,local,750,S,H,E,A,S-E.png,A-H.png,sS,hH,mask-3.png,mask-2.png,s,1,0.2597775999456644,s,0,0.08666120003908873,0.04883350059390068,0.04768829979002476,0.10103010013699532,0.09992299973964691,0.753048200160265
RSVPLG03,JM,20260218-100507,1.0.2,20251105-084826,764,Experiment,Both,1,Automatic,main,35,20260218-100757,global,global,300,H,H,A,A,H-A.png,H-A.png,hH,hH,mask-3.png,mask-1.png,h,1,0.4189201006665826,h,1,0.08011300023645163,0.046861499547958374,0.04750950075685978,0.09992210008203983,0.09855280071496964,0.3011788995936513
RSVPLG03,JM,20260218-100507,1.0.2,20251105-084826,764,Experiment,Both,1,Automatic,main,36,20260218-100801,local,global,750,H,S,E,A,E-H.png,S-A.png,hH,sS,mask-4.png,mask-2.png,h,1,0.25153009966015816,h,0,0.07488329987972975,0.04772039968520403,0.04775959998369217,0.09981849975883961,0.10090449918061495,0.751078000292182
RSVPLG03,JM,20260218-100507,1.0.2,20251105-084826,764,Experiment,Both,1,Automatic,main,37,20260218-100806,local,local,750,S,H,E,E,E-S.png,E-H.png,sS,hH,mask-1.png,mask-1.png,h,0,0.32792130019515753,h,1,0.07204109989106655,0.047131000086665154,0.046555900014936924,0.10014810040593147,0.099664400331676,0.7522224001586437
RSVPLG03,JM,20260218-100507,1.0.2,20251105-084826,764,Experiment,Both,1,Automatic,main,38,20260218-100811,global,global,300,S,S,E,A,S-E.png,S-A.png,sS,sS,mask-3.png,mask-3.png,s,1,0.3724816991016269,s,1,0.09225720074027777,0.047379800118505955,0.047503599897027016,0.10038240067660809,0.10024979989975691,0.300594300031662
RSVPLG03,JM,20260218-100507,1.0.2,20251105-084826,764,Experiment,Both,1,Automatic,main,39,20260218-100815,local,global,750,H,S,A,E,A-H.png,S-E.png,hH,sS,mask-2.png,mask-2.png,h,1,0.38557889964431524,h,0,0.12146730069071054,0.04957390017807484,0.0475375996902585,0.10057559981942177,0.10064039938151836,0.7530967006459832
RSVPLG03,JM,20260218-100507,1.0.2,20251105-084826,764,Experiment,Both,1,Automatic,main,40,20260218-100819,global,local,300,H,H,A,A,H-A.png,A-H.png,hH,hH,mask-4.png,mask-4.png,h,1,0.31740660034120083,h,1,0.06919940002262592,0.04675049986690283,0.04752250015735626,0.09959820006042719,0.09987009968608618,0.29995139967650175
RSVPLG03,JM,20260218-100507,1.0.2,20251105-084826,764,Experiment,Both,1,Automatic,main,41,20260218-100823,local,local,300,S,S,A,A,A-S.png,A-S.png,sS,sS,mask-4.png,mask-3.png,h,0,0.5826838994398713,h,0,0.08553390018641949,0.04751420021057129,0.04752629995346069,0.10075450036674738,0.09953009989112616,0.3020778000354767
RSVPLG03,JM,20260218-100507,1.0.2,20251105-084826,764,Experiment,Both,1,Automatic,main,42,20260218-100828,local,local,300,H,S,E,E,E-H.png,E-S.png,hH,sS,mask-2.png,mask-3.png,s,0,0.5790637005120516,s,1,0.088714599609375,0.04768550023436546,0.04663449991494417,0.09991869982331991,0.09985699970275164,0.3005549004301429
RSVPLG03,JM,20260218-100507,1.0.2,20251105-084826,764,Experiment,Both,1,Automatic,main,43,20260218-100832,local,global,300,S,S,E,E,E-S.png,S-E.png,sS,sS,mask-2.png,mask-1.png,s,1,0.39700770005583763,s,1,0.08412779960781336,0.04766829963773489,0.04669939912855625,0.0995763000100851,0.10094809997826815,0.30104729998856783
RSVPLG03,JM,20260218-100507,1.0.2,20251105-084826,764,Experiment,Both,1,Automatic,main,44,20260218-100836,global,local,300,S,S,E,E,S-E.png,E-S.png,sS,sS,mask-1.png,mask-3.png,s,1,0.5241109998896718,s,1,0.08913820050656796,0.04960769973695278,0.04851560015231371,0.10166850034147501,0.10151449963450432,0.3013297999277711
RSVPLG03,JM,20260218-100507,1.0.2,20251105-084826,764,Experiment,Both,1,Automatic,main,45,20260218-100840,local,global,300,H,S,A,E,A-H.png,S-E.png,hH,sS,mask-1.png,mask-1.png,h,1,0.6016851998865604,h,0,0.10571219958364964,0.0456758001819253,0.04866319987922907,0.09885590057820082,0.1000505005940795,0.2989376001060009
RSVPLG03,JM,20260218-100507,1.0.2,20251105-084826,764,Experiment,Both,1,Automatic,main,46,20260218-100845,global,global,300,H,H,E,E,H-E.png,H-E.png,hH,hH,mask-2.png,mask-2.png,h,1,0.5088518997654319,h,1,0.0889758002012968,0.046787699684500694,0.04660370014607906,0.09882580023258924,0.09981590043753386,0.30038269981741905
RSVPLG03,JM,20260218-100507,1.0.2,20251105-084826,764,Experiment,Both,1,Automatic,main,47,20260218-100849,global,local,750,H,S,E,E,H-E.png,E-S.png,hH,sS,mask-4.png,mask-1.png,h,1,0.7433631997555494,h,0,1.3653175001963973,0.04768790025264025,0.045842500403523445,0.1008815998211503,0.10012640058994293,0.7524366993457079
RSVPLG03,JM,20260218-100507,1.0.2,20251105-084826,764,Experiment,Both,1,Automatic,main,48,20260218-100856,local,global,750,H,S,A,A,A-H.png,S-A.png,hH,sS,mask-4.png,mask-2.png,h,1,0.39837520010769367,h,0,0.10219210013747215,0.04667720012366772,0.04754779953509569,0.09996169991791248,0.10071829985827208,0.7509774006903172
RSVPLG03,JM,20260218-100507,1.0.2,20251105-084826,764,Experiment,Both,1,Automatic,main,49,20260218-100900,global,global,300,S,S,A,A,S-A.png,S-A.png,sS,sS,mask-1.png,mask-3.png,s,1,1.07685980014503,s,1,0.4019157001748681,0.04571730084717274,0.04770109988749027,0.09927770029753447,0.0998949995264411,0.30012060049921274
RSVPLG03,JM,20260218-100507,1.0.2,20251105-084826,764,Experiment,Both,1,Automatic,main,50,20260218-100905,local,local,300,H,H,E,A,E-H.png,A-H.png,hH,hH,mask-1.png,mask-4.png,s,0,0.31710199918597937,s,0,0.09224569983780384,0.04701610002666712,0.04697110038250685,0.09825169946998358,0.10000730026513338,0.30003289971500635
RSVPLG03,JM,20260218-100507,1.0.2,20251105-084826,764,Experiment,Both,1,Automatic,main,51,20260218-100911,local,local,750,S,S,E,A,E-S.png,A-S.png,sS,sS,mask-2.png,mask-3.png,s,1,0.15245870035141706,s,1,0.0699159000068903,0.047774599865078926,0.04767930041998625,0.10020130034536123,0.09907789994031191,0.7525575999170542
RSVPLG03,JM,20260218-100507,1.0.2,20251105-084826,764,Experiment,Both,1,Automatic,main,52,20260218-100915,local,local,750,S,H,A,A,A-S.png,A-H.png,sS,hH,mask-4.png,mask-1.png,s,1,0.45353659987449646,h,1,0.01133859995752573,0.047286899760365486,0.047676799818873405,0.09864619933068752,0.09886270016431808,0.752199299633503
RSVPLG03,JM,20260218-100507,1.0.2,20251105-084826,764,Experiment,Both,1,Automatic,main,53,20260218-100920,global,local,300,S,H,A,E,S-A.png,E-H.png,sS,hH,mask-4.png,mask-2.png,h,0,1.977648800238967,s,0,0.03877320047467947,0.04769819974899292,0.04747719969600439,0.09932619985193014,0.09950219932943583,0.2999031003564596
RSVPLG03,JM,20260218-100507,1.0.2,20251105-084826,764,Experiment,Both,1,Automatic,main,54,20260218-100926,global,global,750,H,H,E,A,H-E.png,H-A.png,hH,hH,mask-1.png,mask-3.png,h,1,0.2417355002835393,h,1,0.08266850002110004,0.048079000785946846,0.047682699747383595,0.10133590083569288,0.09888460021466017,0.7533194003626704
RSVPLG03,JM,20260218-100507,1.0.2,20251105-084826,764,Experiment,Both,1,Automatic,main,55,20260218-100930,global,global,750,S,S,E,E,S-E.png,S-E.png,sS,sS,mask-3.png,mask-1.png,s,1,0.6820601997897029,s,1,0.08990069944411516,0.0470095993950963,0.04876110050827265,0.0985308000817895,0.10079280007630587,0.7508079996332526
RSVPLG03,JM,20260218-100507,1.0.2,20251105-084826,764,Experiment,Both,1,Automatic,main,56,20260218-100935,global,global,300,H,H,A,E,H-A.png,H-E.png,hH,hH,mask-4.png,mask-3.png,h,1,0.33801750000566244,h,1,0.10374340042471886,0.04669789969921112,0.047482200898230076,0.09997770003974438,0.09913180023431778,0.3011367991566658
RSVPLG03,JM,20260218-100507,1.0.2,20251105-084826,764,Experiment,Both,1,Automatic,main,57,20260218-100939,local,local,750,H,H,E,A,E-H.png,A-H.png,hH,hH,mask-1.png,mask-4.png,h,1,0.24715030007064342,h,1,0.08676189929246902,0.04779169987887144,0.04730660002678633,0.1009767996147275,0.0983182992786169,0.7525126002728939
RSVPLG03,JM,20260218-100507,1.0.2,20251105-084826,764,Experiment,Both,1,Automatic,main,58,20260218-100944,local,local,750,S,H,E,A,E-S.png,A-H.png,sS,hH,mask-3.png,mask-4.png,s,1,0.5133058000355959,h,1,0.008231500163674355,0.04687560070306063,0.04817520081996918,0.10095460060983896,0.10049109999090433,0.7517168000340462
RSVPLG03,JM,20260218-100507,1.0.2,20251105-084826,764,Experiment,Both,1,Automatic,main,59,20260218-100949,local,global,300,H,H,A,A,A-H.png,H-A.png,hH,hH,mask-2.png,mask-3.png,h,1,0.8243431001901627,h,1,0.10598200000822544,0.04768600035458803,0.0475574005395174,0.10023710038512945,0.10061890073120594,0.3004537997767329
RSVPLG03,JM,20260218-100507,1.0.2,20251105-084826,764,Experiment,Both,1,Automatic,main,60,20260218-100953,global,local,750,S,H,A,A,S-A.png,A-H.png,sS,hH,mask-1.png,mask-2.png,h,0,0.2547734007239342,h,1,0.08952120039612055,0.04754079971462488,0.04764150083065033,0.10056329984217882,0.09975550044327974,0.7519844993948936
RSVPLG03,JM,20260218-100507,1.0.2,20251105-084826,764,Experiment,Both,1,Automatic,main,61,20260218-100958,local,global,750,S,S,A,A,A-S.png,S-A.png,sS,sS,mask-1.png,mask-3.png,h,0,0.37198089994490147,h,0,0.09907849971204996,0.04789849929511547,0.046649799682199955,0.10119989980012178,0.100132099352777,0.7519682999700308
RSVPLG03,JM,20260218-100507,1.0.2,20251105-084826,764,Experiment,Both,1,Automatic,main,62,20260218-101002,global,global,300,S,H,E,A,S-E.png,H-A.png,sS,hH,mask-4.png,mask-4.png,s,1,0.291771300137043,s,0,0.09307979978621006,0.0475602000951767,0.048115599900484085,0.10073420032858849,0.09962440002709627,0.3005536003038287
RSVPLG03,JM,20260218-100507,1.0.2,20251105-084826,764,Experiment,Both,1,Automatic,main,63,20260218-101006,global,local,300,S,H,E,A,S-E.png,A-H.png,sS,hH,mask-3.png,mask-1.png,h,0,0.3884402997791767,h,1,0.07169600017368793,0.04751279950141907,0.04756710026413202,0.10057180002331734,0.09956649970263243,0.30184249952435493
RSVPLG03,JM,20260218-100507,1.0.2,20251105-084826,764,Experiment,Both,1,Automatic,main,64,20260218-101010,global,local,750,H,H,E,E,H-E.png,E-H.png,hH,hH,mask-4.png,mask-2.png,h,1,0.34914480056613684,h,1,0.08507969975471497,0.04713150020688772,0.047505199909210205,0.09961559996008873,0.10055730026215315,0.751690000295639
RSVPLG03,JM,20260218-100507,1.0.2,20251105-084826,764,Experiment,Both,1,Automatic,main,65,20260218-101015,local,global,750,H,H,E,A,E-H.png,H-A.png,hH,hH,mask-2.png,mask-4.png,h,1,0.24042570032179356,h,1,0.08335759956389666,0.047525400295853615,0.04748149961233139,0.09874659962952137,0.10060750041157007,0.7517862999811769
RSVPLG03,JM,20260218-100507,1.0.2,20251105-084826,764,Experiment,Both,1,Automatic,main,66,20260218-101019,local,local,750,S,S,E,E,E-S.png,E-S.png,sS,sS,mask-2.png,mask-1.png,s,1,0.2503068996593356,s,1,0.08044479973614216,0.04752499982714653,0.047509800642728806,0.0995474997907877,0.10071370005607605,0.7504099998623133
