exp,exp_initials,runtime,ver,modtime,sub,blocktype,targets,cuetype,mode,trialtype,trial,trialtime,t1_level,t2_level,t2_lag,t1,t2,distractor1,distractor2,stimfile1,stimfile2,t1_corr,t2_corr,maskfile1,maskfile2,t1_resp,t1_acc,t1_rt,t2_resp,t2_acc,t2_rt,t1_dur,t2_dur,t1mask_soa,t2mask_soa,t1t2_soa
RSVPLG03,km,20251113-101017,1.0.2,20251113-095759,742,Introduction,T1,1,Automatic,main,1,20251113-101036,local,global,750,S,H,A,A,A-S.png,H-A.png,sS,hH,mask-4.png,mask-1.png,h,0,1.3100805999711156,none,-5,0,0.0966966999694705,0.10101870005019009,0.19520279997959733,0.20010280003771186,0.7473187999567017
RSVPLG03,km,20251113-101017,1.0.2,20251113-095759,742,Introduction,T1,1,Automatic,main,2,20251113-101042,local,global,750,H,S,A,E,A-H.png,S-E.png,hH,sS,mask-3.png,mask-1.png,h,1,2.4148273000027984,none,-5,0,0.09822240006178617,0.10108149994630367,0.1996501999674365,0.20059389993548393,0.7500359000405297
RSVPLG03,km,20251113-101017,1.0.2,20251113-095759,742,Introduction,T1,1,Automatic,main,3,20251113-101049,local,local,750,S,H,A,A,A-S.png,A-H.png,sS,hH,mask-3.png,mask-1.png,s,1,0.660708999959752,none,-5,0,0.09809189999941736,0.10069569991901517,0.1996782999485731,0.20028210000600666,0.750938400044106
RSVPLG03,km,20251113-101017,1.0.2,20251113-095759,742,Introduction,T1,1,Automatic,main,4,20251113-101053,global,global,750,S,H,E,E,S-E.png,H-E.png,sS,hH,mask-4.png,mask-2.png,s,1,1.009931999957189,none,-5,0,0.10110890003852546,0.10103829996660352,0.20195070002228022,0.20060330000706017,0.7509659000206739
RSVPLG03,km,20251113-101017,1.0.2,20251113-095759,742,Introduction,T1,1,Automatic,main,5,20251113-101059,local,global,750,H,H,A,A,A-H.png,H-A.png,hH,hH,mask-1.png,mask-1.png,h,1,0.3424449999583885,none,-5,0,0.10100839997176081,0.1007733999285847,0.20022250001784414,0.19965429999865592,0.7530115999979898
RSVPLG03,km,20251113-101017,1.0.2,20251113-095759,742,Introduction,T1,1,Automatic,main,6,20251113-101103,global,local,750,S,S,E,E,S-E.png,E-S.png,sS,sS,mask-3.png,mask-2.png,s,1,0.2151491999393329,none,-5,0,0.10097289993427694,0.10093379998579621,0.20188369997777045,0.20160159992519766,0.7504768000217155
RSVPLG03,km,20251113-101017,1.0.2,20251113-095759,742,Introduction,T1,1,Automatic,main,7,20251113-101107,global,global,750,S,H,E,A,S-E.png,H-A.png,sS,hH,mask-4.png,mask-1.png,none,-6,0,none,-5,0,0.09949940000660717,0.09824830002617091,0.19955859996844083,0.20038249995559454,0.7516219000099227
RSVPLG03,km,20251113-101120,1.0.2,20251113-095759,742,Practice,T1,1,Automatic,main,1,20251113-101134,local,local,300,H,H,E,E,E-H.png,E-H.png,hH,hH,mask-1.png,mask-3.png,h,1,0.7613263000966981,none,-5,0,0.04428759997244924,0.04934190004132688,0.09164709993638098,0.10007240006234497,0.2923744999570772
RSVPLG03,km,20251113-101120,1.0.2,20251113-095759,742,Practice,T1,1,Automatic,main,2,20251113-101138,local,local,300,H,H,E,A,E-H.png,A-H.png,hH,hH,mask-4.png,mask-1.png,h,1,0.2704924000427127,none,-5,0,0.05024720006622374,0.05206260003615171,0.10144190001301467,0.1007802999811247,0.2999682000372559
RSVPLG03,km,20251113-101120,1.0.2,20251113-095759,742,Practice,T1,1,Automatic,main,3,20251113-101142,local,local,750,H,H,A,E,A-H.png,E-H.png,hH,hH,mask-2.png,mask-3.png,h,1,0.36508610006421804,none,-5,0,0.04938209999818355,0.051259899977594614,0.09823769994545728,0.10118619992863387,0.7482524999650195
RSVPLG03,km,20251113-101120,1.0.2,20251113-095759,742,Practice,T1,1,Automatic,main,4,20251113-101146,local,local,750,H,S,E,E,E-H.png,E-S.png,hH,sS,mask-4.png,mask-4.png,h,1,0.26727079995907843,none,-5,0,0.05081879999488592,0.04981719993520528,0.09953140001744032,0.09960339998360723,0.7503774000797421
RSVPLG03,km,20251113-101120,1.0.2,20251113-095759,742,Practice,T1,1,Automatic,main,5,20251113-101150,global,global,300,H,H,A,A,H-A.png,H-A.png,hH,hH,mask-2.png,mask-2.png,h,1,0.30682219995651394,none,-5,0,0.049324799911119044,0.05144619999919087,0.09870249999221414,0.09939930005930364,0.2998015999328345
RSVPLG03,km,20251113-101120,1.0.2,20251113-095759,742,Practice,T1,1,Automatic,main,6,20251113-101154,global,global,750,S,S,A,E,S-A.png,S-E.png,sS,sS,mask-4.png,mask-1.png,s,1,0.5578274999279529,none,-5,0,0.048932099947705865,0.0490157000022009,0.09925750002730638,0.10066350002307445,0.7495811999542639
RSVPLG03,km,20251113-101120,1.0.2,20251113-095759,742,Practice,T1,1,Automatic,main,7,20251113-101159,local,global,300,H,H,E,A,E-H.png,H-A.png,hH,hH,mask-2.png,mask-1.png,h,1,0.30746399995405227,none,-5,0,0.05039220000617206,0.05040850001387298,0.09859750000759959,0.10041469999123365,0.29855410009622574
RSVPLG03,km,20251113-101120,1.0.2,20251113-095759,742,Practice,T1,1,Automatic,main,8,20251113-101203,local,global,750,H,H,A,A,A-H.png,H-A.png,hH,hH,mask-4.png,mask-2.png,h,1,0.14724149997346103,none,-5,0,0.05017469997983426,0.050430300063453615,0.09926089993678033,0.10066590004134923,0.7487701999489218
RSVPLG03,km,20251113-101120,1.0.2,20251113-095759,742,Practice,T1,1,Automatic,main,9,20251113-101207,local,global,750,S,S,A,A,A-S.png,S-A.png,sS,sS,mask-3.png,mask-3.png,s,1,0.1004095000680536,none,-5,0,0.04891370004042983,0.05065660004038364,0.09916650003287941,0.10062080004718155,0.7481640999903902
RSVPLG03,km,20251113-101120,1.0.2,20251113-095759,742,Practice,T1,1,Automatic,main,10,20251113-101211,local,global,300,S,H,A,E,A-S.png,H-E.png,sS,hH,mask-4.png,mask-1.png,s,1,0.2690821000142023,none,-5,0,0.05012230004649609,0.05091649992391467,0.09988749993499368,0.09913320001214743,0.30039340001530945
RSVPLG03,km,20251113-101120,1.0.2,20251113-095759,742,Practice,T1,1,Automatic,main,11,20251113-101215,global,local,300,S,H,E,E,S-E.png,E-H.png,sS,hH,mask-1.png,mask-1.png,s,1,0.27067959995474666,none,-5,0,0.04991860000882298,0.04999960004352033,0.0997691999655217,0.10055590001866221,0.2992970999330282
RSVPLG03,km,20251113-101120,1.0.2,20251113-095759,742,Practice,T1,1,Automatic,main,12,20251113-101218,global,global,750,S,H,E,A,S-E.png,H-A.png,sS,hH,mask-2.png,mask-4.png,s,1,0.22639840003103018,none,-5,0,0.04983699996955693,0.05162929999642074,0.10031340003479272,0.10049770004115999,0.7490509999915957
RSVPLG03,km,20251113-101120,1.0.2,20251113-095759,742,Practice,T1,1,Automatic,main,13,20251113-101223,global,local,750,S,S,A,A,S-A.png,A-S.png,sS,sS,mask-4.png,mask-2.png,s,1,0.244600799982436,none,-5,0,0.05150760000105947,0.04984420002438128,0.09900189994368702,0.1005928999511525,0.7486961999675259
RSVPLG03,km,20251113-101120,1.0.2,20251113-095759,742,Practice,T1,1,Automatic,main,14,20251113-101227,global,global,300,S,H,A,A,S-A.png,H-A.png,sS,hH,mask-2.png,mask-3.png,s,1,0.31865669996477664,none,-5,0,0.05116849998012185,0.04990310000721365,0.10009660001378506,0.09924869996029884,0.30131869995966554
RSVPLG03,km,20251113-101120,1.0.2,20251113-095759,742,Practice,T1,1,Automatic,main,15,20251113-101231,global,local,750,H,S,E,A,H-E.png,A-S.png,hH,sS,mask-1.png,mask-2.png,h,1,0.21845250006299466,none,-5,0,0.05005479999817908,0.05015999998431653,0.10017830005381256,0.10143509996123612,0.7497811000794172
RSVPLG03,km,20251113-101120,1.0.2,20251113-095759,742,Practice,T1,1,Automatic,main,16,20251113-101235,global,local,300,H,S,E,E,H-E.png,E-S.png,hH,sS,mask-3.png,mask-4.png,h,1,0.2883482000324875,none,-5,0,0.05108780006412417,0.04996730003040284,0.10024480009451509,0.10071779997088015,0.3011015000520274
RSVPLG03,km,20251113-101257,1.0.2,20251113-095759,742,Practice,Both,1,Automatic,main,1,20251113-101322,global,local,750,S,H,E,A,S-E.png,A-H.png,sS,hH,mask-1.png,mask-2.png,s,1,1.783015700057149,h,1,0.613915599999018,0.041743400041013956,0.049659900018014014,0.09164210001472384,0.09891729999799281,0.7423923000460491
RSVPLG03,km,20251113-101257,1.0.2,20251113-095759,742,Practice,Both,1,Automatic,main,2,20251113-101329,local,global,300,H,S,A,E,A-H.png,S-E.png,hH,sS,mask-4.png,mask-2.png,h,1,0.983341799932532,s,1,0.5997769999084994,0.04899040004238486,0.050649499986320734,0.09829870006069541,0.1008725999854505,0.2977349000284448
RSVPLG03,km,20251113-101257,1.0.2,20251113-095759,742,Practice,Both,1,Automatic,main,3,20251113-101334,local,local,300,S,S,E,E,E-S.png,E-S.png,sS,sS,mask-3.png,mask-3.png,h,0,0.9927110000280663,s,1,0.29582170001231134,0.05035339994356036,0.050310100079514086,0.10076459997799248,0.10009240009821951,0.3004869999131188
RSVPLG03,km,20251113-101257,1.0.2,20251113-095759,742,Practice,Both,1,Automatic,main,4,20251113-101339,global,global,300,H,H,A,A,H-A.png,H-A.png,hH,hH,mask-4.png,mask-3.png,s,0,1.646319100051187,h,1,0.2947155999718234,0.04824359994381666,0.04908680007793009,0.09962749993428588,0.10045929998159409,0.3002306999405846
RSVPLG03,km,20251113-101257,1.0.2,20251113-095759,742,Practice,Both,1,Automatic,main,5,20251113-101344,local,global,750,S,S,A,A,A-S.png,S-A.png,sS,sS,mask-3.png,mask-2.png,s,1,1.1602031000657007,s,1,0.12190369993913919,0.04889770003501326,0.050057000014930964,0.09915859997272491,0.09986210009083152,0.7486385999945924
RSVPLG03,km,20251113-101257,1.0.2,20251113-095759,742,Practice,Both,1,Automatic,main,6,20251113-101350,global,local,750,S,S,A,E,S-A.png,E-S.png,sS,sS,mask-2.png,mask-1.png,s,1,0.42056540003977716,s,1,0.2083906999323517,0.051138400100171566,0.047799899941310287,0.1001731000142172,0.09752900002058595,0.7504690000787377
RSVPLG03,km,20251113-101257,1.0.2,20251113-095759,742,Practice,Both,1,Automatic,main,7,20251113-101355,local,global,750,S,H,A,A,A-S.png,H-A.png,sS,hH,mask-2.png,mask-4.png,s,1,0.5466884999768808,s,0,0.2575869000284001,0.05131849995814264,0.05014649999793619,0.09990160004235804,0.10022769996430725,0.7494203000096604
RSVPLG03,km,20251113-101257,1.0.2,20251113-095759,742,Practice,Both,1,Automatic,main,8,20251113-101359,global,global,750,S,S,A,A,S-A.png,S-A.png,sS,sS,mask-1.png,mask-3.png,s,1,0.6600392999825999,s,1,0.22586520004551858,0.05082070000935346,0.04963459994178265,0.10101350001059473,0.10004839999601245,0.7496337000047788
RSVPLG03,km,20251113-101257,1.0.2,20251113-095759,742,Practice,Both,1,Automatic,main,9,20251113-101404,global,local,300,S,S,E,A,S-E.png,A-S.png,sS,sS,mask-4.png,mask-4.png,s,1,1.210534399957396,h,0,0.028068699990399182,0.05131969996728003,0.04943510005250573,0.10075400001369417,0.09869080001953989,0.30036230001132935
RSVPLG03,km,20251113-101257,1.0.2,20251113-095759,742,Practice,Both,1,Automatic,main,10,20251113-101409,global,local,300,H,S,E,A,H-E.png,A-S.png,hH,sS,mask-4.png,mask-3.png,s,0,3.243232800043188,h,0,0.6576484999386594,0.04772380006033927,0.05058080004528165,0.09844279999379069,0.10032590001355857,0.29911360004916787
RSVPLG03,km,20251113-101257,1.0.2,20251113-095759,742,Practice,Both,1,Automatic,main,11,20251113-101417,local,local,750,H,H,A,E,A-H.png,E-H.png,hH,hH,mask-3.png,mask-3.png,h,1,0.6934734000824392,h,1,0.12255730002652854,0.04922359995543957,0.051593099953606725,0.09928680001758039,0.10097319993656129,0.7490481999702752
RSVPLG03,km,20251113-101257,1.0.2,20251113-095759,742,Practice,Both,1,Automatic,main,12,20251113-101422,local,global,300,S,H,E,E,E-S.png,H-E.png,sS,hH,mask-4.png,mask-4.png,s,1,0.5547278999583796,h,1,0.6828263999195769,0.048408000031486154,0.04893719998653978,0.09893849992658943,0.09970549994613975,0.30008519999682903
RSVPLG03,km,20251113-101257,1.0.2,20251113-095759,742,Practice,Both,1,Automatic,main,13,20251113-101426,local,local,750,H,S,A,A,A-H.png,A-S.png,hH,sS,mask-3.png,mask-1.png,h,1,1.56886180001311,s,1,0.021818200009875,0.048761799931526184,0.04963799996767193,0.10050289996434003,0.09865529998205602,0.7497542999917641
RSVPLG03,km,20251113-101257,1.0.2,20251113-095759,742,Practice,Both,1,Automatic,main,14,20251113-101432,local,local,300,S,S,A,A,A-S.png,A-S.png,sS,sS,mask-3.png,mask-2.png,s,1,0.7286159000359476,h,0,0.8406827000435442,0.049014999996870756,0.05018439993727952,0.09987709997221828,0.09998349996749312,0.2982157999649644
RSVPLG03,km,20251113-101257,1.0.2,20251113-095759,742,Practice,Both,1,Automatic,main,15,20251113-101436,global,global,300,H,H,A,E,H-A.png,H-E.png,hH,hH,mask-4.png,mask-2.png,h,1,0.8953359000151977,h,1,0.08135150000452995,0.05040280008688569,0.05002060008700937,0.10165840003173798,0.1009360000025481,0.300207499996759
RSVPLG03,km,20251113-101257,1.0.2,20251113-095759,742,Practice,Both,1,Automatic,main,16,20251113-101441,global,global,750,H,H,A,E,H-A.png,H-E.png,hH,hH,mask-2.png,mask-3.png,h,1,0.45018149993848056,h,1,0.08957720000762492,0.05032999999821186,0.051683299941942096,0.09866229991894215,0.10153889993671328,0.7466928999638185
RSVPLG03,km,20251113-101528,1.0.2,20251113-095759,742,Experiment,Both,1,Automatic,warmup,1,20251113-101545,global,local,750,H,H,E,A,H-E.png,A-H.png,hH,hH,mask-3.png,mask-4.png,h,1,0.5252696999814361,s,0,0.6536252000369132,0.04697790008503944,0.04884539998602122,0.09670950006693602,0.09940210008062422,0.7476135999895632
RSVPLG03,km,20251113-101528,1.0.2,20251113-095759,742,Experiment,Both,1,Automatic,warmup,2,20251113-101550,global,local,300,H,H,E,A,H-E.png,A-H.png,hH,hH,mask-3.png,mask-4.png,h,1,0.4220566999865696,h,1,0.06405499996617436,0.04775830009020865,0.051068600034341216,0.10010830010287464,0.09995320008601993,0.29861960001289845
RSVPLG03,km,20251113-101528,1.0.2,20251113-095759,742,Experiment,Both,1,Automatic,warmup,3,20251113-101554,local,local,300,H,S,A,E,A-H.png,E-S.png,hH,sS,mask-2.png,mask-2.png,h,1,0.5298329000361264,s,1,0.6412719000363722,0.0513865000102669,0.0500898000318557,0.10137119994033128,0.10082329995930195,0.2999003999866545
RSVPLG03,km,20251113-101528,1.0.2,20251113-095759,742,Experiment,Both,1,Automatic,warmup,4,20251113-101558,local,global,750,S,H,A,E,A-S.png,H-E.png,sS,hH,mask-1.png,mask-4.png,s,1,1.1177573000313714,s,0,0.10118910006713122,0.050708799972198904,0.048836600035429,0.10178619995713234,0.10008590004872531,0.7500511999242008
RSVPLG03,km,20251113-101528,1.0.2,20251113-095759,742,Experiment,Both,1,Automatic,main,5,20251113-101603,local,global,300,S,H,E,E,E-S.png,H-E.png,sS,hH,mask-2.png,mask-4.png,s,1,0.5954345000209287,h,1,0.7964202000293881,0.04995510005392134,0.04973700002301484,0.09776789997704327,0.09989730000961572,0.2987776000518352
RSVPLG03,km,20251113-101528,1.0.2,20251113-095759,742,Experiment,Both,1,Automatic,main,6,20251113-101608,global,local,750,H,S,A,A,H-A.png,A-S.png,hH,sS,mask-1.png,mask-1.png,h,1,1.2149529999587685,h,0,0.08163330005481839,0.05088749993592501,0.048912800033576787,0.10064600000623614,0.1002729000756517,0.7495283999014646
RSVPLG03,km,20251113-101528,1.0.2,20251113-095759,742,Experiment,Both,1,Automatic,main,7,20251113-101614,global,local,750,S,H,A,A,S-A.png,A-H.png,sS,hH,mask-2.png,mask-4.png,s,1,0.5687221999978647,h,1,0.06292419997043908,0.04996239999309182,0.049824099987745285,0.10022539994679391,0.10017430002335459,0.7488516999874264
RSVPLG03,km,20251113-101528,1.0.2,20251113-095759,742,Experiment,Both,1,Automatic,main,8,20251113-101619,global,local,300,S,S,A,E,S-A.png,E-S.png,sS,sS,mask-2.png,mask-1.png,s,1,0.8591158000053838,h,0,0.9386622000019997,0.051507399999536574,0.050302900024689734,0.10100820008665323,0.10115020000375807,0.30009210004936904
RSVPLG03,km,20251113-101528,1.0.2,20251113-095759,742,Experiment,Both,1,Automatic,main,9,20251113-101623,local,global,300,S,H,A,A,A-S.png,H-A.png,sS,hH,mask-3.png,mask-4.png,s,1,1.0222053000470623,h,1,1.0862240000860766,0.049950200016610324,0.050511699984781444,0.09986760001629591,0.1002076999284327,0.2993875000393018
RSVPLG03,km,20251113-101528,1.0.2,20251113-095759,742,Experiment,Both,1,Automatic,main,10,20251113-101628,local,local,300,S,S,A,A,A-S.png,A-S.png,sS,sS,mask-4.png,mask-1.png,s,1,0.9864872000180185,s,1,0.10404080001171678,0.049505600007250905,0.050978400046005845,0.10291040001902729,0.1010604000184685,0.2996031999355182
RSVPLG03,km,20251113-101528,1.0.2,20251113-095759,742,Experiment,Both,1,Automatic,main,11,20251113-101632,local,global,300,S,S,A,E,A-S.png,S-E.png,sS,sS,mask-2.png,mask-3.png,s,1,0.5680313999764621,h,0,0.015906899934634566,0.05058060004375875,0.05109760002233088,0.10029189998749644,0.10103999997954816,0.2988342000171542
RSVPLG03,km,20251113-101528,1.0.2,20251113-095759,742,Experiment,Both,1,Automatic,main,12,20251113-101637,global,global,750,S,H,E,E,S-E.png,H-E.png,sS,hH,mask-4.png,mask-3.png,s,1,0.5050553999608383,h,1,0.6169479000382125,0.04869010008405894,0.04932010010816157,0.09970050002448261,0.09985880006570369,0.7489438999909908
RSVPLG03,km,20251113-101528,1.0.2,20251113-095759,742,Experiment,Both,1,Automatic,main,13,20251113-101641,global,global,300,S,H,A,A,S-A.png,H-A.png,sS,hH,mask-3.png,mask-2.png,s,1,0.6444713999517262,h,1,0.7729333000024781,0.050368000054731965,0.050972299999557436,0.09965630003716797,0.09877589996904135,0.29953330010175705
RSVPLG03,km,20251113-101528,1.0.2,20251113-095759,742,Experiment,Both,1,Automatic,main,14,20251113-101646,global,global,750,S,S,E,A,S-E.png,S-A.png,sS,sS,mask-1.png,mask-4.png,s,1,0.48413989995606244,s,1,0.09560030000284314,0.0508224000222981,0.04980979999527335,0.10013729997444898,0.0998728999402374,0.7501829999964684
RSVPLG03,km,20251113-101528,1.0.2,20251113-095759,742,Experiment,Both,1,Automatic,main,15,20251113-101650,global,global,300,H,H,E,A,H-E.png,H-A.png,hH,hH,mask-4.png,mask-3.png,h,1,0.42607579997275025,h,1,0.05748709989711642,0.048621100024320185,0.051633400027640164,0.09888270008377731,0.10199480003211647,0.29783190006855875
RSVPLG03,km,20251113-101528,1.0.2,20251113-095759,742,Experiment,Both,1,Automatic,main,16,20251113-101654,local,local,750,H,S,E,E,E-H.png,E-S.png,hH,sS,mask-4.png,mask-1.png,s,0,1.81423849996645,s,1,0.391360400011763,0.04995790007524192,0.049816699931398034,0.09959160001017153,0.09954979992471635,0.748389600077644
RSVPLG03,km,20251113-101528,1.0.2,20251113-095759,742,Experiment,Both,1,Automatic,main,17,20251113-101701,local,global,300,H,H,E,E,E-H.png,H-E.png,hH,hH,mask-3.png,mask-1.png,s,0,0.5638852000702173,h,1,0.6911676999880001,0.05112399999052286,0.0512503000209108,0.10154109995346516,0.101468599983491,0.29878950002603233
RSVPLG03,km,20251113-101528,1.0.2,20251113-095759,742,Experiment,Both,1,Automatic,main,18,20251113-101705,global,global,300,S,H,E,E,S-E.png,H-E.png,sS,hH,mask-3.png,mask-1.png,s,1,0.8766889000544325,h,1,0.9894866000395268,0.04868160001933575,0.05018840008415282,0.09881290001794696,0.09976580005604774,0.29894549993332475
RSVPLG03,km,20251113-101528,1.0.2,20251113-095759,742,Experiment,Both,1,Automatic,main,19,20251113-101710,local,global,300,S,H,A,A,A-S.png,H-A.png,sS,hH,mask-3.png,mask-3.png,s,1,0.5074861000757664,h,1,0.6030533000594005,0.04897889995481819,0.04957060003653169,0.0981175999622792,0.10009980003815144,0.29782929993234575
RSVPLG03,km,20251113-101528,1.0.2,20251113-095759,742,Experiment,Both,1,Automatic,main,20,20251113-101714,local,global,750,H,H,E,A,E-H.png,H-A.png,hH,hH,mask-3.png,mask-1.png,h,1,0.40520949999336153,s,0,0.46478459995705634,0.050529700005427,0.04830309993121773,0.1008786999154836,0.09926819999236614,0.7503041999880224
RSVPLG03,km,20251113-101528,1.0.2,20251113-095759,742,Experiment,Both,1,Automatic,main,21,20251113-101719,local,global,750,S,S,A,A,A-S.png,S-A.png,sS,sS,mask-3.png,mask-3.png,s,1,0.5244541000574827,s,1,0.11623499996494502,0.05037169996649027,0.04928409995045513,0.10219019989017397,0.09943900001235306,0.7506372999632731
RSVPLG03,km,20251113-101528,1.0.2,20251113-095759,742,Experiment,Both,1,Automatic,main,22,20251113-101724,local,global,300,S,S,E,A,E-S.png,S-A.png,sS,sS,mask-2.png,mask-4.png,s,1,0.7932418999262154,s,1,0.08862220006994903,0.04994890000671148,0.048778400057926774,0.10003159998450428,0.09928530000615865,0.3002424000296742
RSVPLG03,km,20251113-101528,1.0.2,20251113-095759,742,Experiment,Both,1,Automatic,main,23,20251113-101728,global,global,750,H,H,E,A,H-E.png,H-A.png,hH,hH,mask-4.png,mask-1.png,h,1,0.3321787000168115,h,1,0.07358740002382547,0.05018729995936155,0.04976130009163171,0.10054180002771318,0.09867209999356419,0.7490782999666408
RSVPLG03,km,20251113-101528,1.0.2,20251113-095759,742,Experiment,Both,1,Automatic,main,24,20251113-101733,local,global,300,S,S,A,E,A-S.png,S-E.png,sS,sS,mask-4.png,mask-4.png,h,0,0.8906754999188706,s,1,1.0038298999425024,0.04979110008571297,0.04911090002860874,0.1006749999942258,0.09950820007361472,0.29967500001657754
RSVPLG03,km,20251113-101528,1.0.2,20251113-095759,742,Experiment,Both,1,Automatic,main,25,20251113-101737,local,local,750,S,H,E,A,E-S.png,A-H.png,sS,hH,mask-1.png,mask-3.png,s,1,0.3241123999468982,h,1,0.0099609000608325,0.05006289994344115,0.050916000036522746,0.10066710005048662,0.1000712999375537,0.7496811000164598
RSVPLG03,km,20251113-101528,1.0.2,20251113-095759,742,Experiment,Both,1,Automatic,main,26,20251113-101746,local,global,300,H,H,E,A,E-H.png,H-A.png,hH,hH,mask-2.png,mask-4.png,h,1,0.3203108001034707,s,0,0.48143710009753704,0.0489892999175936,0.049614799907431006,0.09904689993709326,0.09870259999297559,0.30073120002634823
RSVPLG03,km,20251113-101528,1.0.2,20251113-095759,742,Experiment,Both,1,Automatic,main,27,20251113-101750,global,local,300,S,S,E,E,S-E.png,E-S.png,sS,sS,mask-4.png,mask-3.png,s,1,0.40252690005581826,h,0,0.0011248999508097768,0.05070480005815625,0.0504292999394238,0.10080500005278736,0.09967679996043444,0.2995293000712991
RSVPLG03,km,20251113-101528,1.0.2,20251113-095759,742,Experiment,Both,1,Automatic,main,28,20251113-101754,global,global,750,H,H,E,A,H-E.png,H-A.png,hH,hH,mask-3.png,mask-3.png,h,1,0.30727390001993626,h,1,0.07851240003947169,0.05121619999408722,0.04963220003992319,0.09901949996128678,0.09865670010913163,0.7497749999165535
RSVPLG03,km,20251113-101528,1.0.2,20251113-095759,742,Experiment,Both,1,Automatic,main,29,20251113-101758,local,global,750,H,S,E,A,E-H.png,S-A.png,hH,sS,mask-4.png,mask-3.png,s,0,0.6248004999943078,s,1,0.15510630002245307,0.050215500057674944,0.04993149999063462,0.1000873000593856,0.09815829992294312,0.7508656000718474
RSVPLG03,km,20251113-101528,1.0.2,20251113-095759,742,Experiment,Both,1,Automatic,main,30,20251113-101803,global,local,750,S,S,A,E,S-A.png,E-S.png,sS,sS,mask-2.png,mask-2.png,s,1,0.3883610999910161,s,1,0.1424168999074027,0.0508224000222981,0.05024720006622374,0.10095460002776235,0.10032730002421886,0.7501358999870718
RSVPLG03,km,20251113-101528,1.0.2,20251113-095759,742,Experiment,Both,1,Automatic,main,31,20251113-101808,global,global,750,S,H,A,A,S-A.png,H-A.png,sS,hH,mask-4.png,mask-4.png,s,1,0.4123105000471696,h,1,0.13758630002848804,0.0481479000300169,0.05029619997367263,0.09915020002517849,0.09996319992933422,0.7482899000169709
RSVPLG03,km,20251113-101528,1.0.2,20251113-095759,742,Experiment,Both,1,Automatic,main,32,20251113-101813,global,global,300,H,H,E,E,H-E.png,H-E.png,hH,hH,mask-2.png,mask-2.png,h,1,0.3634045000653714,h,1,0.09662440000101924,0.04997429996728897,0.05155890004243702,0.09983749990351498,0.10025450005196035,0.29840559989679605
RSVPLG03,km,20251113-101528,1.0.2,20251113-095759,742,Experiment,Both,1,Automatic,main,33,20251113-101817,local,global,300,H,S,E,A,E-H.png,S-A.png,hH,sS,mask-1.png,mask-1.png,s,0,0.3736792999552563,s,1,0.09837380005046725,0.050036400090903044,0.049268599948845804,0.10062730009667575,0.09816619998309761,0.300037500099279
RSVPLG03,km,20251113-101528,1.0.2,20251113-095759,742,Experiment,Both,1,Automatic,main,34,20251113-101821,local,local,300,S,H,E,A,E-S.png,A-H.png,sS,hH,mask-4.png,mask-3.png,s,1,0.443748899968341,h,1,0.588301399955526,0.05111120000947267,0.051776699954643846,0.10029289999511093,0.10054759995546192,0.30015030002687126
RSVPLG03,km,20251113-101528,1.0.2,20251113-095759,742,Experiment,Both,1,Automatic,main,35,20251113-101825,global,global,750,S,H,A,A,S-A.png,H-A.png,sS,hH,mask-3.png,mask-1.png,s,1,0.3178211000049487,h,1,0.05118760000914335,0.04923820006661117,0.049507200019434094,0.09782769996672869,0.10079270007554442,0.7478110999800265
RSVPLG03,km,20251113-101528,1.0.2,20251113-095759,742,Experiment,Both,1,Automatic,main,36,20251113-101830,global,local,750,S,H,A,A,S-A.png,A-H.png,sS,hH,mask-2.png,mask-4.png,s,1,0.3233159000519663,h,1,0.047398700029589236,0.05118270008824766,0.05020869988948107,0.10101580002810806,0.09940519998781383,0.7507620000978932
RSVPLG03,km,20251113-101528,1.0.2,20251113-095759,742,Experiment,Both,1,Automatic,main,37,20251113-101834,global,global,750,H,H,E,A,H-E.png,H-A.png,hH,hH,mask-1.png,mask-4.png,h,1,0.18690289999358356,h,1,0.09564830001909286,0.04737289994955063,0.05017149995546788,0.0976234000409022,0.10153849993366748,0.7468575000530109
RSVPLG03,km,20251113-101528,1.0.2,20251113-095759,742,Experiment,Both,1,Automatic,main,38,20251113-101839,global,local,300,S,S,A,A,S-A.png,A-S.png,sS,sS,mask-3.png,mask-3.png,s,1,0.3394476000685245,h,0,0.01762679999228567,0.04882609995547682,0.049745399970561266,0.10002080001868308,0.10115849995054305,0.29925649997312576
RSVPLG03,km,20251113-101528,1.0.2,20251113-095759,742,Experiment,Both,1,Automatic,main,39,20251113-101843,global,local,300,S,S,E,A,S-E.png,A-S.png,sS,sS,mask-3.png,mask-2.png,s,1,0.3749432999175042,h,0,0.5190319999819621,0.04784110002219677,0.048840300063602626,0.09895030001644045,0.09817780007142574,0.2996745000127703
RSVPLG03,km,20251113-101528,1.0.2,20251113-095759,742,Experiment,Both,1,Automatic,main,40,20251113-101847,local,local,750,H,H,E,A,E-H.png,A-H.png,hH,hH,mask-4.png,mask-3.png,h,1,0.22922470001503825,h,1,0.06583500001579523,0.04923100001178682,0.050988700008019805,0.09852850006427616,0.10133580002002418,0.7481702000368387
RSVPLG03,km,20251113-101528,1.0.2,20251113-095759,742,Experiment,Both,1,Automatic,main,41,20251113-101851,local,global,750,H,H,A,E,A-H.png,H-E.png,hH,hH,mask-3.png,mask-4.png,h,1,0.33580509992316365,h,1,0.12491210002917796,0.05013549991417676,0.04890000005252659,0.10094599996227771,0.0984050000552088,0.7501915999455377
RSVPLG03,km,20251113-101528,1.0.2,20251113-095759,742,Experiment,Both,1,Automatic,main,42,20251113-101856,local,local,300,S,S,E,A,E-S.png,A-S.png,sS,sS,mask-3.png,mask-2.png,s,1,0.46163629996590316,s,1,0.354975700029172,0.049856600002385676,0.050182900042273104,0.09990640007890761,0.09895640006288886,0.29981180001050234
RSVPLG03,km,20251113-101528,1.0.2,20251113-095759,742,Experiment,Both,1,Automatic,main,43,20251113-101900,global,local,300,S,H,A,A,S-A.png,A-H.png,sS,hH,mask-3.png,mask-2.png,s,1,0.41471979999914765,h,1,0.5242176000028849,0.04899009992368519,0.050140899955295026,0.09881300001870841,0.10124539991375059,0.2971517000114545
RSVPLG03,km,20251113-101528,1.0.2,20251113-095759,742,Experiment,Both,1,Automatic,main,44,20251113-101905,global,global,750,S,S,E,A,S-E.png,S-A.png,sS,sS,mask-2.png,mask-4.png,s,1,0.25873260002117604,s,1,0.13171310001052916,0.04818429995793849,0.04943049990106374,0.09934229997452348,0.09954539989121258,0.7491656000493094
RSVPLG03,km,20251113-101528,1.0.2,20251113-095759,742,Experiment,Both,1,Automatic,main,45,20251113-101910,global,global,750,S,H,E,A,S-E.png,H-A.png,sS,hH,mask-4.png,mask-4.png,s,1,0.3367237000493333,h,1,0.10620599996764213,0.05102660006377846,0.04819320002570748,0.10078710003290325,0.0992197000887245,0.7508227999787778
RSVPLG03,km,20251113-101528,1.0.2,20251113-095759,742,Experiment,Both,1,Automatic,main,46,20251113-101914,global,global,300,H,S,E,E,H-E.png,S-E.png,hH,sS,mask-1.png,mask-4.png,h,1,0.4047048999927938,h,0,0.7325456000398844,0.04925180005375296,0.048708399990573525,0.09859130007680506,0.09763799991924316,0.30020110006444156
RSVPLG03,km,20251113-101528,1.0.2,20251113-095759,742,Experiment,Both,1,Automatic,main,47,20251113-101919,local,global,750,S,H,A,E,A-S.png,H-E.png,sS,hH,mask-1.png,mask-4.png,s,1,0.9437527999980375,h,1,0.08181639993563294,0.048451800015755,0.051588399917818606,0.09969630010891706,0.09913689992390573,0.7481021001003683
RSVPLG03,km,20251113-101528,1.0.2,20251113-095759,742,Experiment,Both,1,Automatic,main,48,20251113-101924,local,local,300,H,S,A,A,A-H.png,A-S.png,hH,sS,mask-1.png,mask-2.png,h,1,1.3362684999592602,s,1,1.4649844999657944,0.05133279995061457,0.04913719999603927,0.09969249996356666,0.09895360004156828,0.30130369996186346
RSVPLG03,km,20251113-101528,1.0.2,20251113-095759,742,Experiment,Both,1,Automatic,main,49,20251113-101929,global,local,750,H,H,E,A,H-E.png,A-H.png,hH,hH,mask-2.png,mask-3.png,h,1,0.43690510001033545,h,1,0.09663540008477867,0.04968230007216334,0.050827200058847666,0.10055660002399236,0.10094600007869303,0.748880899976939
RSVPLG03,km,20251113-101528,1.0.2,20251113-095759,742,Experiment,Both,1,Automatic,main,50,20251113-101934,local,global,750,H,H,E,A,E-H.png,H-A.png,hH,hH,mask-1.png,mask-3.png,h,1,0.5830270000733435,s,0,0.7688534000189975,0.049379599979147315,0.04984560003504157,0.0994754999410361,0.10078540001995862,0.7482198999496177
RSVPLG03,km,20251113-101528,1.0.2,20251113-095759,742,Experiment,Both,1,Automatic,main,51,20251113-101944,local,local,750,H,H,A,A,A-H.png,A-H.png,hH,hH,mask-3.png,mask-4.png,h,1,0.3243159999838099,h,1,0.09874599997419864,0.049974999972619116,0.048951399978250265,0.1009796999860555,0.10013149993028492,0.7493289000121877
RSVPLG03,km,20251113-101528,1.0.2,20251113-095759,742,Experiment,Both,1,Automatic,main,52,20251113-101948,global,global,750,S,H,A,E,S-A.png,H-E.png,sS,hH,mask-3.png,mask-1.png,s,1,0.472644199966453,h,1,0.017420999938622117,0.04996979993302375,0.048932400066405535,0.09922019997611642,0.09842739999294281,0.7499450999312103
RSVPLG03,km,20251113-101528,1.0.2,20251113-095759,742,Experiment,Both,1,Automatic,main,53,20251113-101953,global,local,750,H,H,A,A,H-A.png,A-H.png,hH,hH,mask-1.png,mask-1.png,h,1,0.25688770005945116,h,1,0.15595549996942282,0.050474700052291155,0.04972869995981455,0.1000476999906823,0.10112849995493889,0.7503412000369281
RSVPLG03,km,20251113-101528,1.0.2,20251113-095759,742,Experiment,Both,1,Automatic,main,54,20251113-101958,global,local,300,S,H,A,E,S-A.png,E-H.png,sS,hH,mask-3.png,mask-1.png,s,1,0.545052699977532,s,0,0.13083350006490946,0.050394800025969744,0.04828230000566691,0.09937589999753982,0.09803939994890243,0.30101090006064624
RSVPLG03,km,20251113-101528,1.0.2,20251113-095759,742,Experiment,Both,1,Automatic,main,55,20251113-102002,local,global,750,H,H,A,E,A-H.png,H-E.png,hH,hH,mask-4.png,mask-2.png,h,1,0.21015890000853688,h,1,0.14258290000725538,0.04958320001605898,0.05063970002811402,0.09960239997599274,0.10030050005298108,0.7487116999691352
RSVPLG03,km,20251113-101528,1.0.2,20251113-095759,742,Experiment,Both,1,Automatic,main,56,20251113-102007,local,local,300,H,H,E,A,E-H.png,A-H.png,hH,hH,mask-1.png,mask-4.png,h,1,0.36318959994241595,h,1,0.09061449998989701,0.05169599992223084,0.04963859997224063,0.09997270000167191,0.0985771999694407,0.3005581999896094
RSVPLG03,km,20251113-101528,1.0.2,20251113-095759,742,Experiment,Both,1,Automatic,main,57,20251113-102011,local,local,750,H,H,E,E,E-H.png,E-H.png,hH,hH,mask-3.png,mask-2.png,h,1,0.2127240999834612,h,1,0.09619139996357262,0.051049400004558265,0.04940100002568215,0.10140590008813888,0.09949339996092021,0.7505739000625908
RSVPLG03,km,20251113-101528,1.0.2,20251113-095759,742,Experiment,Both,1,Automatic,main,58,20251113-102015,global,global,300,H,H,A,E,H-A.png,H-E.png,hH,hH,mask-4.png,mask-2.png,s,0,0.6168594000628218,s,0,0.09704879997298121,0.05062329990323633,0.05012529995292425,0.09972059994470328,0.09996020002290606,0.2996958999428898
RSVPLG03,km,20251113-101528,1.0.2,20251113-095759,742,Experiment,Both,1,Automatic,main,59,20251113-102020,global,global,300,H,H,E,E,H-E.png,H-E.png,hH,hH,mask-4.png,mask-4.png,h,1,0.643144299974665,h,1,0.0873583999928087,0.04906300001312047,0.05003849999047816,0.09987529995851219,0.09972260007634759,0.3004760999465361
RSVPLG03,km,20251113-101528,1.0.2,20251113-095759,742,Experiment,Both,1,Automatic,main,60,20251113-102024,global,global,750,S,H,E,E,S-E.png,H-E.png,sS,hH,mask-4.png,mask-3.png,s,1,0.3689710999606177,h,1,0.1601081999251619,0.04860370000824332,0.048342299996875226,0.1000610999763012,0.10075079998932779,0.7490788999712095
RSVPLG03,km,20251113-101528,1.0.2,20251113-095759,742,Experiment,Both,1,Automatic,main,61,20251113-102029,local,global,300,S,S,E,E,E-S.png,S-E.png,sS,sS,mask-2.png,mask-1.png,s,1,1.0672693999949843,h,0,1.211411299998872,0.049078100011684,0.05028120009228587,0.09904720005579293,0.10145570000167936,0.29928699997253716
RSVPLG03,km,20251113-101528,1.0.2,20251113-095759,742,Experiment,Both,1,Automatic,main,62,20251113-102034,local,global,750,H,H,E,A,E-H.png,H-A.png,hH,hH,mask-4.png,mask-3.png,h,1,1.162864400073886,h,1,0.09918190003372729,0.04989179992116988,0.050669899908825755,0.1005501999752596,0.10008819994982332,0.7491746000014246
RSVPLG03,km,20251113-101528,1.0.2,20251113-095759,742,Experiment,Both,1,Automatic,main,63,20251113-102039,global,local,750,S,H,E,E,S-E.png,E-H.png,sS,hH,mask-3.png,mask-4.png,s,1,1.0421408000402153,s,0,0.1775639000115916,0.05006579996552318,0.05005249998066574,0.09978080005384982,0.10107360000256449,0.748979700030759
RSVPLG03,km,20251113-101528,1.0.2,20251113-095759,742,Experiment,Both,1,Automatic,main,64,20251113-102044,global,local,300,S,S,A,A,S-A.png,A-S.png,sS,sS,mask-3.png,mask-1.png,s,1,0.3913262999849394,h,0,0.07138510001823306,0.050073300022631884,0.04927680001128465,0.09996060002595186,0.09923859999980778,0.30097149999346584
RSVPLG03,km,20251113-101528,1.0.2,20251113-095759,742,Experiment,Both,1,Automatic,main,65,20251113-102048,global,local,300,S,S,A,A,S-A.png,A-S.png,sS,sS,mask-3.png,mask-2.png,s,1,0.5200208999449387,h,0,0.712144699995406,0.04873760009650141,0.050301200011745095,0.09906640008557588,0.10085479996632785,0.29816790006589144
RSVPLG03,km,20251113-101528,1.0.2,20251113-095759,742,Experiment,Both,1,Automatic,main,66,20251113-102053,global,local,750,S,S,E,E,S-E.png,E-S.png,sS,sS,mask-2.png,mask-3.png,s,1,0.3191449000732973,s,1,0.09542409994173795,0.047711299965158105,0.050087800016626716,0.09843470004852861,0.09901140001602471,0.7490255000302568
RSVPLG03,km,20251113-101528,1.0.2,20251113-095759,742,Experiment,Both,1,Automatic,main,67,20251113-102057,local,local,750,S,H,A,E,A-S.png,E-H.png,sS,hH,mask-3.png,mask-4.png,h,0,2.1629685999359936,s,0,0.013750000041909516,0.048696600017137825,0.04871909995563328,0.09949140006210655,0.09887139999773353,0.7485630000010133
RSVPLG03,km,20251113-101528,1.0.2,20251113-095759,742,Experiment,Both,1,Automatic,main,68,20251113-102104,global,local,300,S,H,A,E,S-A.png,E-H.png,sS,hH,mask-3.png,mask-3.png,s,1,0.6372535000555217,s,0,0.11494729993864894,0.050498199998401105,0.050031600054353476,0.10093459999188781,0.0998072000220418,0.3000981999794021
RSVPLG03,km,20251113-101528,1.0.2,20251113-095759,742,Experiment,Both,1,Automatic,main,69,20251113-102108,local,global,750,S,S,E,A,E-S.png,S-A.png,sS,sS,mask-3.png,mask-1.png,s,1,0.3462385000893846,s,1,0.1098150999750942,0.050824100035242736,0.05048890004400164,0.09858699992764741,0.10177340009249747,0.7481105999322608
RSVPLG03,km,20251113-101528,1.0.2,20251113-095759,742,Experiment,Both,1,Automatic,main,70,20251113-102113,local,global,750,H,H,A,E,A-H.png,H-E.png,hH,hH,mask-1.png,mask-2.png,s,0,1.3178861000342295,s,0,0.11485580005683005,0.04911350004840642,0.050674700061790645,0.10013700008857995,0.09927150001749396,0.7491282999981195
RSVPLG03,km,20251113-101528,1.0.2,20251113-095759,742,Experiment,Both,1,Automatic,main,71,20251113-102118,global,global,300,S,S,E,A,S-E.png,S-A.png,sS,sS,mask-2.png,mask-2.png,h,0,1.058218999998644,s,1,1.1383064000401646,0.0501684999326244,0.04893200006335974,0.10007829999085516,0.09904950007330626,0.30111359991133213
RSVPLG03,km,20251113-101528,1.0.2,20251113-095759,742,Experiment,Both,1,Automatic,main,72,20251113-102123,global,global,300,H,S,E,E,H-E.png,S-E.png,hH,sS,mask-4.png,mask-3.png,h,1,0.5571459999773651,s,1,0.01627880008891225,0.04912069998681545,0.04950319998897612,0.09890899993479252,0.0991177000105381,0.29895119997672737
RSVPLG03,km,20251113-101528,1.0.2,20251113-095759,742,Experiment,Both,1,Automatic,main,73,20251113-102127,global,local,750,H,S,A,A,H-A.png,A-S.png,hH,sS,mask-4.png,mask-4.png,h,1,0.4278827999951318,s,1,0.016166700050234795,0.04912310000509024,0.05125650006812066,0.09908819990232587,0.10021030006464571,0.7480297998990864
RSVPLG03,km,20251113-101528,1.0.2,20251113-095759,742,Experiment,Both,1,Automatic,main,74,20251113-102132,global,local,300,H,H,A,E,H-A.png,E-H.png,hH,hH,mask-1.png,mask-1.png,h,1,0.7891878000227734,s,0,0.9657300000544637,0.050096799968741834,0.04828520002774894,0.09929649997502565,0.09964849997777492,0.3005260999780148
RSVPLG03,km,20251113-101528,1.0.2,20251113-095759,742,Experiment,Both,1,Automatic,main,75,20251113-102136,global,global,750,S,H,A,A,S-A.png,H-A.png,sS,hH,mask-4.png,mask-2.png,s,1,0.4053744999691844,h,1,0.01664709998294711,0.050390300108119845,0.047733299899846315,0.10028460004832596,0.09771649993490428,0.7506406001048163
RSVPLG03,km,20251113-101528,1.0.2,20251113-095759,742,Experiment,Both,1,Automatic,main,76,20251113-102146,local,global,300,S,S,E,E,E-S.png,S-E.png,sS,sS,mask-2.png,mask-3.png,s,1,0.3694536000257358,h,0,0.5134906000457704,0.05089589999988675,0.04999560001306236,0.10169959999620914,0.10003020009025931,0.3009961999487132
RSVPLG03,km,20251113-101528,1.0.2,20251113-095759,742,Experiment,Both,1,Automatic,main,77,20251113-102151,local,local,750,S,S,E,A,E-S.png,A-S.png,sS,sS,mask-4.png,mask-1.png,s,1,0.5990392999956384,s,1,0.1197676999727264,0.04863739991560578,0.0510244999313727,0.09963309997692704,0.09994089999236166,0.7487779000075534
RSVPLG03,km,20251113-101528,1.0.2,20251113-095759,742,Experiment,Both,1,Automatic,main,78,20251113-102155,local,local,750,S,S,E,E,E-S.png,E-S.png,sS,sS,mask-2.png,mask-3.png,s,1,0.30464210000354797,s,1,0.13103529997169971,0.04996450000908226,0.04969270003493875,0.09983789990656078,0.1003519999794662,0.749203099985607
RSVPLG03,km,20251113-101528,1.0.2,20251113-095759,742,Experiment,Both,1,Automatic,main,79,20251113-102200,global,local,750,H,S,A,A,H-A.png,A-S.png,hH,sS,mask-4.png,mask-4.png,h,1,0.7867598999291658,h,0,0.07969089993275702,0.050936800078488886,0.05000970000401139,0.10144280001986772,0.10010559996590018,0.7494888000655919
RSVPLG03,km,20251113-101528,1.0.2,20251113-095759,742,Experiment,Both,1,Automatic,main,80,20251113-102205,local,local,300,H,S,A,E,A-H.png,E-S.png,hH,sS,mask-3.png,mask-4.png,h,1,0.5109256999567151,s,1,0.671000299975276,0.05001120001543313,0.05100159998983145,0.09999240003526211,0.10000450001098216,0.2993809999898076
RSVPLG03,km,20251113-101528,1.0.2,20251113-095759,742,Experiment,Both,1,Automatic,main,81,20251113-102209,local,local,300,S,S,E,E,E-S.png,E-S.png,sS,sS,mask-2.png,mask-3.png,s,1,0.45894160005263984,s,1,0.11174999992363155,0.05052440008148551,0.049026799970306456,0.09846850007306784,0.0991723999613896,0.29948570008855313
RSVPLG03,km,20251113-101528,1.0.2,20251113-095759,742,Experiment,Both,1,Automatic,main,82,20251113-102213,local,local,300,H,H,A,E,A-H.png,E-H.png,hH,hH,mask-1.png,mask-1.png,h,1,0.40848000010009855,h,1,0.09651750000193715,0.04895419999957085,0.04897290002554655,0.09974999993573874,0.09900070005096495,0.3007390999700874
RSVPLG03,km,20251113-101528,1.0.2,20251113-095759,742,Experiment,Both,1,Automatic,main,83,20251113-102217,local,local,750,H,H,E,E,E-H.png,E-H.png,hH,hH,mask-4.png,mask-4.png,h,1,0.27967999991960824,h,1,0.0955022000707686,0.0501137999817729,0.04894220002461225,0.10012359998654574,0.09936450002714992,0.749360500019975
RSVPLG03,km,20251113-101528,1.0.2,20251113-095759,742,Experiment,Both,1,Automatic,main,84,20251113-102222,local,local,300,S,H,E,E,E-S.png,E-H.png,sS,hH,mask-1.png,mask-3.png,s,1,0.5611025999533013,s,0,0.09478789998684078,0.05032839998602867,0.049691000021994114,0.10031959996558726,0.1002426000777632,0.3002790999598801
RSVPLG03,km,20251113-101528,1.0.2,20251113-095759,742,Experiment,Both,1,Automatic,main,85,20251113-102226,local,local,750,H,S,A,E,A-H.png,E-S.png,hH,sS,mask-4.png,mask-1.png,h,1,0.44773100002203137,s,1,0.6867807999951765,0.04972439992707223,0.049596099997870624,0.09911990002728999,0.09846040001139045,0.7508532999781892
RSVPLG03,km,20251113-101528,1.0.2,20251113-095759,742,Experiment,Both,1,Automatic,main,86,20251113-102231,local,local,300,H,H,A,A,A-H.png,A-H.png,hH,hH,mask-3.png,mask-2.png,h,1,0.6467919999267906,h,1,0.0776412000413984,0.048317300039343536,0.05025349999777973,0.09883470006752759,0.09959270001854748,0.29842320003081113
RSVPLG03,km,20251113-101528,1.0.2,20251113-095759,742,Experiment,Both,1,Automatic,main,87,20251113-102236,local,local,300,S,S,E,E,E-S.png,E-S.png,sS,sS,mask-1.png,mask-3.png,s,1,0.36312470003031194,s,1,0.10719520004931837,0.04938959993887693,0.04954550007823855,0.09997569990810007,0.10039690008852631,0.29946259991265833
RSVPLG03,km,20251113-101528,1.0.2,20251113-095759,742,Experiment,Both,1,Automatic,main,88,20251113-102240,global,local,300,H,S,A,E,H-A.png,E-S.png,hH,sS,mask-4.png,mask-3.png,h,1,0.5796800999669358,h,0,0.09308280004188418,0.05073719995561987,0.04975350003223866,0.10157810000237077,0.1006430999841541,0.30000269995070994
RSVPLG03,km,20251113-101528,1.0.2,20251113-095759,742,Experiment,Both,1,Automatic,main,89,20251113-102244,local,local,300,S,S,E,A,E-S.png,A-S.png,sS,sS,mask-2.png,mask-3.png,s,1,0.282915799994953,s,1,0.07869820005726069,0.04979209997691214,0.05041060002986342,0.09871020005084574,0.10028809995856136,0.29829880001489073
RSVPLG03,km,20251113-101528,1.0.2,20251113-095759,742,Experiment,Both,1,Automatic,main,90,20251113-102248,global,global,300,S,S,A,E,S-A.png,S-E.png,sS,sS,mask-2.png,mask-1.png,s,1,0.3014446999877691,s,1,0.12736889999359846,0.05073460005223751,0.049658300005830824,0.09982830006629229,0.09965560003183782,0.2996633000439033
RSVPLG03,km,20251113-101528,1.0.2,20251113-095759,742,Experiment,Both,1,Automatic,main,91,20251113-102252,global,local,300,H,H,E,A,H-E.png,A-H.png,hH,hH,mask-1.png,mask-4.png,h,1,0.3396663999883458,h,1,0.09356049995403737,0.04997280007228255,0.05053640005644411,0.10003229998983443,0.09990490006748587,0.2979413999710232
RSVPLG03,km,20251113-101528,1.0.2,20251113-095759,742,Experiment,Both,1,Automatic,main,92,20251113-102256,local,local,750,H,S,E,A,E-H.png,A-S.png,hH,sS,mask-3.png,mask-4.png,h,1,0.41686539992224425,s,1,0.15901569998823106,0.04879060003440827,0.049616800039075315,0.09964500006753951,0.10040789993945509,0.747774500050582
RSVPLG03,km,20251113-101528,1.0.2,20251113-095759,742,Experiment,Both,1,Automatic,main,93,20251113-102301,global,local,750,H,H,A,A,H-A.png,A-H.png,hH,hH,mask-3.png,mask-4.png,h,1,0.25049469992518425,h,1,0.1114100000122562,0.04759229999035597,0.048860999988391995,0.10014670004602522,0.09986289998050779,0.7491552999708802
RSVPLG03,km,20251113-101528,1.0.2,20251113-095759,742,Experiment,Both,1,Automatic,main,94,20251113-102306,global,global,300,H,S,A,E,H-A.png,S-E.png,hH,sS,mask-3.png,mask-3.png,h,1,0.3364866999909282,s,1,0.16294750000815839,0.04892440000548959,0.0500707000028342,0.09915380005259067,0.09904720005579293,0.2990183000219986
RSVPLG03,km,20251113-101528,1.0.2,20251113-095759,742,Experiment,Both,1,Automatic,main,95,20251113-102310,local,global,750,H,H,A,E,A-H.png,H-E.png,hH,hH,mask-4.png,mask-2.png,h,1,0.2875016999896616,h,1,0.11209000006783754,0.04972719994839281,0.04857400001492351,0.10052239999640733,0.0986890000058338,0.7498368999222293
RSVPLG03,km,20251113-101528,1.0.2,20251113-095759,742,Experiment,Both,1,Automatic,main,96,20251113-102315,global,local,750,S,S,A,E,S-A.png,E-S.png,sS,sS,mask-1.png,mask-4.png,s,1,0.17279760004021227,s,1,0.11053379997611046,0.04973299999255687,0.05072320008184761,0.10090249998029321,0.10081129998434335,0.7491235999623314
RSVPLG03,km,20251113-101528,1.0.2,20251113-095759,742,Experiment,Both,1,Automatic,main,97,20251113-102319,global,global,300,S,H,E,A,S-E.png,H-A.png,sS,hH,mask-2.png,mask-1.png,s,1,0.31417060003150254,h,1,0.15995829994790256,0.049200300010852516,0.04955960006918758,0.09955250006169081,0.09982150001451373,0.2999945000046864
RSVPLG03,km,20251113-101528,1.0.2,20251113-095759,742,Experiment,Both,1,Automatic,main,98,20251113-102323,local,global,300,S,H,A,A,A-S.png,H-A.png,sS,hH,mask-2.png,mask-3.png,s,1,0.47632540005724877,h,1,0.09467130003031343,0.0493391000200063,0.049101300071924925,0.09937210008502007,0.09998800000175834,0.29936750000342727
RSVPLG03,km,20251113-101528,1.0.2,20251113-095759,742,Experiment,Both,1,Automatic,main,99,20251113-102328,local,global,750,H,H,A,E,A-H.png,H-E.png,hH,hH,mask-4.png,mask-4.png,h,1,0.38162260001990944,h,1,0.14037909999024123,0.05008119996637106,0.05008519999682903,0.10021880001295358,0.09908479999285191,0.7499783000675961
RSVPLG03,km,20251113-101528,1.0.2,20251113-095759,742,Experiment,Both,1,Automatic,main,100,20251113-102332,local,local,750,S,H,A,E,A-S.png,E-H.png,sS,hH,mask-2.png,mask-1.png,s,1,0.33128969999961555,h,1,0.12718119996134192,0.050240500015206635,0.04977869999129325,0.09956690005492419,0.09966770000755787,0.750884500099346
RSVPLG03,km,20251113-102410,1.0.2,20251113-095759,742,Experiment,Both,1,Automatic,warmup,1,20251113-102428,local,local,300,S,H,A,E,A-S.png,E-H.png,sS,hH,mask-4.png,mask-1.png,s,1,0.31176870001945645,h,1,0.0141461999155581,0.041543099912814796,0.04927780001889914,0.09212679998017848,0.10047060006763786,0.2924927999265492
RSVPLG03,km,20251113-102410,1.0.2,20251113-095759,742,Experiment,Both,1,Automatic,warmup,2,20251113-102432,global,global,300,S,S,E,E,S-E.png,S-E.png,sS,sS,mask-2.png,mask-2.png,s,1,0.2507728999480605,s,1,0.0775838999543339,0.04972990008536726,0.04972870007622987,0.09953880007378757,0.09954450000077486,0.29991830000653863
RSVPLG03,km,20251113-102410,1.0.2,20251113-095759,742,Experiment,Both,1,Automatic,warmup,3,20251113-102436,global,global,750,S,S,E,A,S-E.png,S-A.png,sS,sS,mask-1.png,mask-3.png,s,1,0.2066065000835806,s,1,0.09239529992919415,0.04871720005758107,0.049751500017009676,0.09856860002037138,0.09956200001761317,0.7485642000101507
RSVPLG03,km,20251113-102410,1.0.2,20251113-095759,742,Experiment,Both,1,Automatic,warmup,4,20251113-102441,global,local,750,H,H,A,E,H-A.png,E-H.png,hH,hH,mask-4.png,mask-4.png,h,1,0.3596739999484271,h,1,0.5398130000103265,0.04819030000362545,0.050718999933451414,0.09854249993804842,0.10078849992714822,0.7485002999892458
RSVPLG03,km,20251113-102410,1.0.2,20251113-095759,742,Experiment,Both,1,Automatic,main,5,20251113-102446,local,global,300,H,S,A,A,A-H.png,S-A.png,hH,sS,mask-3.png,mask-3.png,h,1,0.3332285999786109,s,1,0.046851799939759076,0.04991810000501573,0.0498645999468863,0.09992119995877147,0.0992223999928683,0.2998266000067815
RSVPLG03,km,20251113-102410,1.0.2,20251113-095759,742,Experiment,Both,1,Automatic,main,6,20251113-102450,local,local,750,S,S,E,A,E-S.png,A-S.png,sS,sS,mask-2.png,mask-2.png,s,1,0.40170649997889996,h,0,0.5595414000563323,0.048718799953348935,0.04913900000974536,0.0995392999611795,0.09996999998111278,0.7490027999738231
RSVPLG03,km,20251113-102410,1.0.2,20251113-095759,742,Experiment,Both,1,Automatic,main,7,20251113-102455,local,local,300,S,H,A,E,A-S.png,E-H.png,sS,hH,mask-4.png,mask-4.png,s,1,0.5474582999013364,h,1,0.04750640003476292,0.049585700035095215,0.04909890005365014,0.09930779994465411,0.09924820007290691,0.3001235999399796
RSVPLG03,km,20251113-102410,1.0.2,20251113-095759,742,Experiment,Both,1,Automatic,main,8,20251113-102459,local,local,750,S,S,A,A,A-S.png,A-S.png,sS,sS,mask-1.png,mask-4.png,s,1,0.23065690009389073,s,1,0.10643759998492897,0.0517023999709636,0.050714400014840066,0.1010136998957023,0.09946360008325428,0.7502630999078974
RSVPLG03,km,20251113-102410,1.0.2,20251113-095759,742,Experiment,Both,1,Automatic,main,9,20251113-102504,global,global,750,S,S,E,E,S-E.png,S-E.png,sS,sS,mask-1.png,mask-1.png,s,1,0.9762499999487773,s,1,0.11184929998125881,0.04994480009190738,0.05055110005196184,0.09893340000417084,0.10022030002437532,0.7486603000434116
RSVPLG03,km,20251113-102410,1.0.2,20251113-095759,742,Experiment,Both,1,Automatic,main,10,20251113-102509,local,global,750,S,H,A,E,A-S.png,H-E.png,sS,hH,mask-3.png,mask-1.png,s,1,0.2221191000426188,h,1,0.06190630001947284,0.05053919996134937,0.04984399990644306,0.09920840000268072,0.09981569997034967,0.7504148000152782
RSVPLG03,km,20251113-102410,1.0.2,20251113-095759,742,Experiment,Both,1,Automatic,main,11,20251113-102514,global,global,300,H,S,E,A,H-E.png,S-A.png,hH,sS,mask-4.png,mask-4.png,h,1,0.49027029995340854,s,1,0.016392200021073222,0.05066750000696629,0.05135349999181926,0.09982290002517402,0.09960449999198318,0.2994718999834731
RSVPLG03,km,20251113-102410,1.0.2,20251113-095759,742,Experiment,Both,1,Automatic,main,12,20251113-102518,local,global,750,H,S,A,E,A-H.png,S-E.png,hH,sS,mask-3.png,mask-1.png,h,1,0.26512829994317144,s,1,0.09221869998145849,0.0486615999834612,0.0507097999798134,0.09913079999387264,0.10208600002806634,0.7467085999669507
RSVPLG03,km,20251113-102410,1.0.2,20251113-095759,742,Experiment,Both,1,Automatic,main,13,20251113-102522,global,local,300,H,H,E,E,H-E.png,E-H.png,hH,hH,mask-1.png,mask-4.png,h,1,0.2465189000358805,s,0,0.39071800000965595,0.050657999934628606,0.049142600037157536,0.10054699995089322,0.09886489994823933,0.30121359997428954
RSVPLG03,km,20251113-102410,1.0.2,20251113-095759,742,Experiment,Both,1,Automatic,main,14,20251113-102526,local,global,300,S,H,E,A,E-S.png,H-A.png,sS,hH,mask-2.png,mask-2.png,s,1,0.32914899999741465,h,1,0.48954280000180006,0.0498105000006035,0.04936750000342727,0.10074359993450344,0.09980650001671165,0.300142899970524
RSVPLG03,km,20251113-102410,1.0.2,20251113-095759,742,Experiment,Both,1,Automatic,main,15,20251113-102530,global,global,750,S,S,A,E,S-A.png,S-E.png,sS,sS,mask-1.png,mask-2.png,s,1,0.27317129995208234,s,1,0.10831730009522289,0.04992429993581027,0.04971670010127127,0.09867420000955462,0.09952850011177361,0.7483406999381259
RSVPLG03,km,20251113-102410,1.0.2,20251113-095759,742,Experiment,Both,1,Automatic,main,16,20251113-102535,global,global,300,S,H,A,E,S-A.png,H-E.png,sS,hH,mask-1.png,mask-3.png,s,1,0.1540281999623403,h,1,0.01743250002618879,0.05047709995415062,0.04965310008265078,0.10198909998871386,0.09931010007858276,0.301160299917683
RSVPLG03,km,20251113-102410,1.0.2,20251113-095759,742,Experiment,Both,1,Automatic,main,17,20251113-102539,local,global,300,H,H,E,E,E-H.png,H-E.png,hH,hH,mask-1.png,mask-4.png,h,1,0.38499359996058047,s,0,0.5447554000420496,0.049634800059720874,0.04944840003736317,0.10034460003953427,0.10124370001722127,0.2997953000012785
RSVPLG03,km,20251113-102410,1.0.2,20251113-095759,742,Experiment,Both,1,Automatic,main,18,20251113-102543,local,local,750,S,H,E,A,E-S.png,A-H.png,sS,hH,mask-3.png,mask-4.png,s,1,0.2852867000037804,h,1,0.047054899972863495,0.04854150000028312,0.04810810007620603,0.10031920007895678,0.0980074000544846,0.7500570999691263
RSVPLG03,km,20251113-102410,1.0.2,20251113-095759,742,Experiment,Both,1,Automatic,main,19,20251113-102547,global,global,750,S,S,E,A,S-E.png,S-A.png,sS,sS,mask-3.png,mask-1.png,s,1,0.3005587999941781,s,1,0.1104297999991104,0.0501091000624001,0.05091039999388158,0.10015170008409768,0.10135519993491471,0.7499153000535443
RSVPLG03,km,20251113-102410,1.0.2,20251113-095759,742,Experiment,Both,1,Automatic,main,20,20251113-102552,global,global,300,H,S,E,A,H-E.png,S-A.png,hH,sS,mask-2.png,mask-3.png,h,1,0.28058179991785437,s,1,0.02860110008623451,0.05060279997996986,0.049886399996466935,0.10075759992469102,0.09992659999988973,0.30025129998102784
RSVPLG03,km,20251113-102410,1.0.2,20251113-095759,742,Experiment,Both,1,Automatic,main,21,20251113-102556,global,local,750,H,H,A,A,H-A.png,A-H.png,hH,hH,mask-4.png,mask-2.png,s,0,0.3219815999036655,h,1,0.45038049994036555,0.049483000067994,0.04827480006497353,0.10005850007291883,0.09930400003213435,0.7503685000119731
RSVPLG03,km,20251113-102410,1.0.2,20251113-095759,742,Experiment,Both,1,Automatic,main,22,20251113-102601,local,local,750,S,H,A,A,A-S.png,A-H.png,sS,hH,mask-1.png,mask-4.png,s,1,1.023109200061299,h,1,1.167331299977377,0.050411100033670664,0.049529300071299076,0.09990829997695982,0.09987120004370809,0.7498585999710485
RSVPLG03,km,20251113-102410,1.0.2,20251113-095759,742,Experiment,Both,1,Automatic,main,23,20251113-102606,local,global,300,S,H,A,E,A-S.png,H-E.png,sS,hH,mask-2.png,mask-3.png,s,1,0.33131649997085333,h,1,0.47531909996178,0.04892149998340756,0.049652500078082085,0.09996799996588379,0.0995149000082165,0.29972869995981455
RSVPLG03,km,20251113-102410,1.0.2,20251113-095759,742,Experiment,Both,1,Automatic,main,24,20251113-102610,local,local,300,H,H,E,E,E-H.png,E-H.png,hH,hH,mask-2.png,mask-2.png,h,1,0.2526270999806002,h,1,0.28739309997763485,0.051398999989032745,0.049557399936020374,0.10009149997495115,0.1013332000002265,0.2998144000303
RSVPLG03,km,20251113-102410,1.0.2,20251113-095759,742,Experiment,Both,1,Automatic,main,25,20251113-102614,global,global,300,S,H,A,A,S-A.png,H-A.png,sS,hH,mask-3.png,mask-4.png,s,1,0.3858000999316573,h,1,0.5300750000169501,0.049948800005950034,0.05044100002851337,0.09868629998527467,0.10057520004920661,0.2987623999360949
RSVPLG03,km,20251113-102410,1.0.2,20251113-095759,742,Experiment,Both,1,Automatic,main,26,20251113-102623,local,local,300,S,S,A,A,A-S.png,A-S.png,sS,sS,mask-1.png,mask-2.png,s,1,0.3972440999932587,s,1,0.11161909997463226,0.04942669998854399,0.04882599995471537,0.09989059995859861,0.10024780000094324,0.3003139999927953
RSVPLG03,km,20251113-102410,1.0.2,20251113-095759,742,Experiment,Both,1,Automatic,main,27,20251113-102627,local,global,300,H,S,A,A,A-H.png,S-A.png,hH,sS,mask-2.png,mask-1.png,h,1,0.640428000013344,s,1,0.5590952999191359,0.0495606999611482,0.050541400094516575,0.0997374999569729,0.10120190004818141,0.298328899894841
RSVPLG03,km,20251113-102410,1.0.2,20251113-095759,742,Experiment,Both,1,Automatic,main,28,20251113-102632,global,global,750,H,S,E,A,H-E.png,S-A.png,hH,sS,mask-4.png,mask-1.png,h,1,0.5092945999931544,s,1,0.03346369997598231,0.05125449993647635,0.05004250002093613,0.09970629995223135,0.10038220009300858,0.7489387999521568
RSVPLG03,km,20251113-102410,1.0.2,20251113-095759,742,Experiment,Both,1,Automatic,main,29,20251113-102636,global,local,300,H,S,A,E,H-A.png,E-S.png,hH,sS,mask-1.png,mask-3.png,h,1,0.5513422000221908,h,0,0.28589659999124706,0.05076080001890659,0.05102340003941208,0.09998079994693398,0.10008880007080734,0.299312699935399
RSVPLG03,km,20251113-102410,1.0.2,20251113-095759,742,Experiment,Both,1,Automatic,main,30,20251113-102641,global,global,300,H,H,A,E,H-A.png,H-E.png,hH,hH,mask-4.png,mask-2.png,h,1,0.3657584999455139,h,1,0.11111419997178018,0.05064849997870624,0.04972720006480813,0.10159099998418242,0.10045070003252476,0.3004916999489069
RSVPLG03,km,20251113-102410,1.0.2,20251113-095759,742,Experiment,Both,1,Automatic,main,31,20251113-102645,local,global,750,S,S,A,E,A-S.png,S-E.png,sS,sS,mask-3.png,mask-4.png,s,1,0.5721487000118941,s,1,0.1108702999772504,0.048810699954628944,0.0477932000067085,0.09895260003395379,0.09806480002589524,0.7496097999392077
RSVPLG03,km,20251113-102410,1.0.2,20251113-095759,742,Experiment,Both,1,Automatic,main,32,20251113-102650,local,global,300,S,S,A,A,A-S.png,S-A.png,sS,sS,mask-3.png,mask-2.png,s,1,1.5968659999780357,h,0,0.04685679997783154,0.04982090007979423,0.049895400064997375,0.10043069999665022,0.09867310000117868,0.3013141000410542
RSVPLG03,km,20251113-102410,1.0.2,20251113-095759,742,Experiment,Both,1,Automatic,main,33,20251113-102655,local,global,750,H,H,A,E,A-H.png,H-E.png,hH,hH,mask-3.png,mask-3.png,h,1,1.0349290000740439,s,0,0.33560440002474934,0.0496934000402689,0.050113099976442754,0.09955329995136708,0.10007279994897544,0.7488448000513017
RSVPLG03,km,20251113-102410,1.0.2,20251113-095759,742,Experiment,Both,1,Automatic,main,34,20251113-102701,global,global,300,H,S,A,A,H-A.png,S-A.png,hH,sS,mask-4.png,mask-3.png,h,1,0.4632590999826789,s,1,0.49510399997234344,0.05034089996479452,0.049773499951697886,0.09909380006138235,0.09960379998665303,0.29923710005823523
RSVPLG03,km,20251113-102410,1.0.2,20251113-095759,742,Experiment,Both,1,Automatic,main,35,20251113-102706,global,global,750,H,H,E,E,H-E.png,H-E.png,hH,hH,mask-1.png,mask-4.png,h,1,0.29118259996175766,h,1,0.11149079992901534,0.05039950006175786,0.04905569995753467,0.10013130004517734,0.09873670001979917,0.7509440000867471
RSVPLG03,km,20251113-102410,1.0.2,20251113-095759,742,Experiment,Both,1,Automatic,main,36,20251113-102710,global,local,300,H,H,E,A,H-E.png,A-H.png,hH,hH,mask-3.png,mask-2.png,h,1,0.5123782999580726,h,1,0.07706460007466376,0.04958620003890246,0.04878179996740073,0.09866040002088994,0.09745420003309846,0.2998270000098273
RSVPLG03,km,20251113-102410,1.0.2,20251113-095759,742,Experiment,Both,1,Automatic,main,37,20251113-102715,local,local,750,H,H,A,E,A-H.png,E-H.png,hH,hH,mask-3.png,mask-2.png,h,1,0.5883325999602675,h,1,0.11097989999689162,0.050877299974672496,0.04972549993544817,0.1006680999416858,0.0995508999330923,0.7503174999728799
RSVPLG03,km,20251113-102410,1.0.2,20251113-095759,742,Experiment,Both,1,Automatic,main,38,20251113-102719,global,global,750,H,H,A,A,H-A.png,H-A.png,hH,hH,mask-3.png,mask-1.png,h,1,1.5903654000721872,s,0,3.7288184999488294,0.04962139995768666,0.04936850001104176,0.10049370001070201,0.10027250007260591,0.7493065999587998
RSVPLG03,km,20251113-102410,1.0.2,20251113-095759,742,Experiment,Both,1,Automatic,main,39,20251113-102729,global,local,750,S,S,A,E,S-A.png,E-S.png,sS,sS,mask-4.png,mask-4.png,s,1,0.5924713000422344,s,1,0.11200039996765554,0.04985790001228452,0.0493393000215292,0.10031849995721132,0.09975609998218715,0.7492995000211522
RSVPLG03,km,20251113-102410,1.0.2,20251113-095759,742,Experiment,Both,1,Automatic,main,40,20251113-102734,global,global,750,H,H,A,A,H-A.png,H-A.png,hH,hH,mask-2.png,mask-4.png,h,1,0.28910280007403344,h,1,0.07932809996418655,0.049967799917794764,0.049850899958983064,0.10000729991588742,0.09985389991197735,0.7499214999843389
RSVPLG03,km,20251113-102410,1.0.2,20251113-095759,742,Experiment,Both,1,Automatic,main,41,20251113-102738,global,global,750,H,S,A,E,H-A.png,S-E.png,hH,sS,mask-4.png,mask-3.png,h,1,0.27835989999584854,s,1,0.2064337000483647,0.05006829998455942,0.04899909999221563,0.09994099999312311,0.09913109999615699,0.7497738000238314
RSVPLG03,km,20251113-102410,1.0.2,20251113-095759,742,Experiment,Both,1,Automatic,main,42,20251113-102743,global,global,750,S,H,E,E,S-E.png,H-E.png,sS,hH,mask-3.png,mask-4.png,s,1,1.2444694999139756,h,1,0.1425599999492988,0.05055269994772971,0.048854000051505864,0.09895909996703267,0.09877640008926392,0.7497120999032632
RSVPLG03,km,20251113-102410,1.0.2,20251113-095759,742,Experiment,Both,1,Automatic,main,43,20251113-102749,global,local,750,S,S,E,E,S-E.png,E-S.png,sS,sS,mask-3.png,mask-4.png,s,1,0.37080410006456077,s,1,0.1862976000411436,0.05012719996739179,0.04975979996379465,0.09956200001761317,0.09939039999153465,0.7496211000252515
RSVPLG03,km,20251113-102410,1.0.2,20251113-095759,742,Experiment,Both,1,Automatic,main,44,20251113-102753,local,local,750,H,H,A,E,A-H.png,E-H.png,hH,hH,mask-4.png,mask-4.png,h,1,0.31650299998000264,h,1,0.1274742999812588,0.049670099979266524,0.04973910003900528,0.0984104999806732,0.09961170004680753,0.749613199965097
RSVPLG03,km,20251113-102410,1.0.2,20251113-095759,742,Experiment,Both,1,Automatic,main,45,20251113-102758,local,local,750,H,H,E,A,E-H.png,A-H.png,hH,hH,mask-1.png,mask-2.png,h,1,0.3035245999926701,h,1,0.1425268999300897,0.049564699991606176,0.04854640003759414,0.0992742000380531,0.10019639995880425,0.7490859000245109
RSVPLG03,km,20251113-102410,1.0.2,20251113-095759,742,Experiment,Both,1,Automatic,main,46,20251113-102802,global,local,300,H,H,E,E,H-E.png,E-H.png,hH,hH,mask-4.png,mask-3.png,h,1,0.8210478000110015,s,0,0.4132142999442294,0.04951639997307211,0.0488607999868691,0.09927779994904995,0.10014490003231913,0.2993852999061346
RSVPLG03,km,20251113-102410,1.0.2,20251113-095759,742,Experiment,Both,1,Automatic,main,47,20251113-102807,local,local,300,S,S,E,E,E-S.png,E-S.png,sS,sS,mask-3.png,mask-4.png,s,1,1.4840854000067338,h,0,0.1273622999433428,0.04963960009627044,0.0497911999700591,0.09973230003379285,0.09817379992455244,0.30034400010481477
RSVPLG03,km,20251113-102410,1.0.2,20251113-095759,742,Experiment,Both,1,Automatic,main,48,20251113-102813,local,local,300,S,H,A,E,A-S.png,E-H.png,sS,hH,mask-3.png,mask-4.png,s,1,0.6678077999968082,h,1,0.04732829995919019,0.05001800006721169,0.048846299992874265,0.09900550008751452,0.09885359997861087,0.2999889000784606
RSVPLG03,km,20251113-102410,1.0.2,20251113-095759,742,Experiment,Both,1,Automatic,main,49,20251113-102817,global,local,300,H,S,E,A,H-E.png,A-S.png,hH,sS,mask-1.png,mask-2.png,h,1,0.43669270002283156,h,0,0.5762087000766769,0.049776799976825714,0.04844539996702224,0.09960630000568926,0.10009860002901405,0.300312599982135
RSVPLG03,km,20251113-102410,1.0.2,20251113-095759,742,Experiment,Both,1,Automatic,main,50,20251113-102822,global,global,300,H,H,E,A,H-E.png,H-A.png,hH,hH,mask-1.png,mask-2.png,h,1,0.7235207000048831,h,1,0.09668360010255128,0.0491602000547573,0.04861270007677376,0.10038530000019819,0.09888550010509789,0.300769199966453
RSVPLG03,km,20251113-102410,1.0.2,20251113-095759,742,Experiment,Both,1,Automatic,main,51,20251113-102831,global,local,300,H,H,A,A,H-A.png,A-H.png,hH,hH,mask-3.png,mask-1.png,h,1,0.6962132999906316,s,0,0.8401026999345049,0.0485493999440223,0.04953409999143332,0.10023909993469715,0.1015614999923855,0.299019799917005
RSVPLG03,km,20251113-102410,1.0.2,20251113-095759,742,Experiment,Both,1,Automatic,main,52,20251113-102835,local,global,300,H,H,E,E,E-H.png,H-E.png,hH,hH,mask-3.png,mask-1.png,h,1,0.49374669999815524,h,1,0.4155705999583006,0.04968119994737208,0.05022299999836832,0.10157900000922382,0.10049370001070201,0.29903330001980066
RSVPLG03,km,20251113-102410,1.0.2,20251113-095759,742,Experiment,Both,1,Automatic,main,53,20251113-102840,global,global,300,H,S,A,E,H-A.png,S-E.png,hH,sS,mask-3.png,mask-4.png,s,0,1.7839566000038758,s,1,0.11224259994924068,0.04830830008722842,0.05072090006433427,0.09962440002709627,0.10079020005650818,0.2981443000026047
RSVPLG03,km,20251113-102410,1.0.2,20251113-095759,742,Experiment,Both,1,Automatic,main,54,20251113-102845,local,local,300,H,S,E,A,E-H.png,A-S.png,hH,sS,mask-4.png,mask-1.png,h,1,0.5933085000142455,s,1,0.4634614000096917,0.05038779997266829,0.05094009998720139,0.09949059993959963,0.10035009996499866,0.29992849996779114
RSVPLG03,km,20251113-102410,1.0.2,20251113-095759,742,Experiment,Both,1,Automatic,main,55,20251113-102850,global,global,300,S,S,A,E,S-A.png,S-E.png,sS,sS,mask-3.png,mask-1.png,s,1,0.4875164000550285,s,1,0.12597759999334812,0.05092559999320656,0.050380899920128286,0.1013876999495551,0.10106189991347492,0.2995361000066623
RSVPLG03,km,20251113-102410,1.0.2,20251113-095759,742,Experiment,Both,1,Automatic,main,56,20251113-102854,local,local,750,S,H,A,E,A-S.png,E-H.png,sS,hH,mask-4.png,mask-2.png,s,1,0.3195105000631884,h,1,0.09494719991926104,0.050159000093117356,0.04956730001140386,0.10043940006289631,0.09991640003863722,0.7485209000296891
RSVPLG03,km,20251113-102410,1.0.2,20251113-095759,742,Experiment,Both,1,Automatic,main,57,20251113-102859,global,local,750,S,H,A,E,S-A.png,E-H.png,sS,hH,mask-2.png,mask-4.png,s,1,0.3879472999833524,s,0,0.12401679996401072,0.048785599996335804,0.05131090001668781,0.09957129997201264,0.09980179998092353,0.7486213999800384
RSVPLG03,km,20251113-102410,1.0.2,20251113-095759,742,Experiment,Both,1,Automatic,main,58,20251113-102904,global,global,300,S,S,A,A,S-A.png,S-A.png,sS,sS,mask-1.png,mask-3.png,s,1,0.6105657999869436,s,1,0.11145049997139722,0.050781200057826936,0.04941169999074191,0.10144470003433526,0.09992519998922944,0.301359900040552
RSVPLG03,km,20251113-102410,1.0.2,20251113-095759,742,Experiment,Both,1,Automatic,main,59,20251113-102908,global,local,750,H,S,E,E,H-E.png,E-S.png,hH,sS,mask-1.png,mask-2.png,h,1,0.4780890999827534,s,1,0.062332000001333654,0.050589899998158216,0.04858240007888526,0.10054130002390593,0.09789319999981672,0.7500145999947563
RSVPLG03,km,20251113-102410,1.0.2,20251113-095759,742,Experiment,Both,1,Automatic,main,60,20251113-102913,global,local,300,S,H,A,A,S-A.png,A-H.png,sS,hH,mask-4.png,mask-4.png,s,1,0.2713260999880731,h,1,0.046267000027000904,0.05091079999692738,0.050197399919852614,0.0993669000454247,0.1003216999815777,0.2995871000457555
RSVPLG03,km,20251113-102410,1.0.2,20251113-095759,742,Experiment,Both,1,Automatic,main,61,20251113-102917,global,global,300,S,H,E,A,S-E.png,H-A.png,sS,hH,mask-1.png,mask-2.png,s,1,0.29746829997748137,h,1,0.02751459996215999,0.049798900028690696,0.04917010001372546,0.09891669999342412,0.09978719998616725,0.29985860001761466
RSVPLG03,km,20251113-102410,1.0.2,20251113-095759,742,Experiment,Both,1,Automatic,main,62,20251113-102921,local,local,750,S,H,E,E,E-S.png,E-H.png,sS,hH,mask-3.png,mask-4.png,s,1,0.5296571999788284,h,1,0.048472999944351614,0.050349999917671084,0.04942960001062602,0.10028639994561672,0.09937499999068677,0.7501802999759093
RSVPLG03,km,20251113-102410,1.0.2,20251113-095759,742,Experiment,Both,1,Automatic,main,63,20251113-102926,global,global,300,S,H,E,A,S-E.png,H-A.png,sS,hH,mask-4.png,mask-1.png,s,1,0.578999700024724,h,1,0.013055699993856251,0.04991810000501573,0.05052679998334497,0.10005719994660467,0.10170769994147122,0.2986229000380263
RSVPLG03,km,20251113-102410,1.0.2,20251113-095759,742,Experiment,Both,1,Automatic,main,64,20251113-102930,global,local,750,H,H,E,E,H-E.png,E-H.png,hH,hH,mask-1.png,mask-1.png,h,1,0.9574070998933166,h,1,0.09442119998857379,0.05073350004386157,0.04865739995148033,0.09957960003521293,0.09896869992371649,0.7509691000450402
RSVPLG03,km,20251113-102410,1.0.2,20251113-095759,742,Experiment,Both,1,Automatic,main,65,20251113-102935,local,global,300,H,H,A,A,A-H.png,H-A.png,hH,hH,mask-3.png,mask-2.png,s,0,1.8271709000691772,h,1,1.9875171000603586,0.04854459990747273,0.04993269999977201,0.09853789990302175,0.09941550006624311,0.29854439990594983
RSVPLG03,km,20251113-102410,1.0.2,20251113-095759,742,Experiment,Both,1,Automatic,main,66,20251113-102941,local,local,750,H,H,E,E,E-H.png,E-H.png,hH,hH,mask-2.png,mask-2.png,h,1,0.2696338000241667,h,1,0.09522549994289875,0.04969130002427846,0.05076760007068515,0.10041810001712292,0.10059480008203536,0.7496318999910727
RSVPLG03,km,20251113-102410,1.0.2,20251113-095759,742,Experiment,Both,1,Automatic,main,67,20251113-102945,global,local,750,H,H,E,A,H-E.png,A-H.png,hH,hH,mask-2.png,mask-1.png,h,1,0.2839807999553159,h,1,0.09354370005894452,0.051104299956932664,0.049883499974384904,0.1006987999426201,0.09981749998405576,0.7512819999828935
RSVPLG03,km,20251113-102410,1.0.2,20251113-095759,742,Experiment,Both,1,Automatic,main,68,20251113-102950,global,local,750,H,S,E,E,H-E.png,E-S.png,hH,sS,mask-2.png,mask-4.png,h,1,0.23322329996153712,s,1,0.09706670010928065,0.04983359994366765,0.04919239995069802,0.09965909994207323,0.09958279994316399,0.7505230000242591
RSVPLG03,km,20251113-102410,1.0.2,20251113-095759,742,Experiment,Both,1,Automatic,main,69,20251113-102954,global,local,750,H,S,E,E,H-E.png,E-S.png,hH,sS,mask-1.png,mask-2.png,h,1,0.5448864999925718,s,1,0.016543200006708503,0.0497718999395147,0.04966370004694909,0.09965899994131178,0.09841730003245175,0.7497130999108776
RSVPLG03,km,20251113-102410,1.0.2,20251113-095759,742,Experiment,Both,1,Automatic,main,70,20251113-102959,local,global,750,H,H,A,A,A-H.png,H-A.png,hH,hH,mask-2.png,mask-2.png,h,1,0.4249460999853909,h,1,0.3217905000783503,0.05029579997062683,0.049156000022776425,0.1011453999672085,0.10019770008511841,0.7494512998964638
RSVPLG03,km,20251113-102410,1.0.2,20251113-095759,742,Experiment,Both,1,Automatic,main,71,20251113-103004,local,global,750,S,H,A,E,A-S.png,H-E.png,sS,hH,mask-1.png,mask-1.png,s,1,0.7132665000390261,h,1,0.04829419997986406,0.04983499995432794,0.04953109996858984,0.09834070003125817,0.10017889994196594,0.7483338000020012
RSVPLG03,km,20251113-102410,1.0.2,20251113-095759,742,Experiment,Both,1,Automatic,main,72,20251113-103009,global,local,300,H,H,A,A,H-A.png,A-H.png,hH,hH,mask-1.png,mask-1.png,h,1,0.36542459996417165,h,1,0.11037439992651343,0.04981779993977398,0.04983639996498823,0.0997689999639988,0.09974350000265986,0.2994553999742493
RSVPLG03,km,20251113-102410,1.0.2,20251113-095759,742,Experiment,Both,1,Automatic,main,73,20251113-103013,local,local,750,S,S,E,A,E-S.png,A-S.png,sS,sS,mask-1.png,mask-2.png,s,1,0.43336460005957633,s,1,0.12627279991284013,0.0496232999721542,0.049715799978002906,0.10159900004509836,0.09962399990763515,0.7495643000584096
RSVPLG03,km,20251113-102410,1.0.2,20251113-095759,742,Experiment,Both,1,Automatic,main,74,20251113-103018,local,local,300,H,S,A,E,A-H.png,E-S.png,hH,sS,mask-1.png,mask-3.png,h,1,2.879874699981883,s,1,3.0559294000267982,0.04972849995829165,0.048665500013157725,0.10103269992396235,0.09831350005697459,0.30117749993223697
RSVPLG03,km,20251113-102410,1.0.2,20251113-095759,742,Experiment,Both,1,Automatic,main,75,20251113-103025,local,global,750,H,H,A,A,A-H.png,H-A.png,hH,hH,mask-4.png,mask-2.png,h,1,0.7961781999329105,h,1,0.09648920001927763,0.04990920005366206,0.04961759992875159,0.09977780003100634,0.09949940000660717,0.7497926000505686
RSVPLG03,km,20251113-102410,1.0.2,20251113-095759,742,Experiment,Both,1,Automatic,main,76,20251113-103033,local,local,300,H,S,E,A,E-H.png,A-S.png,hH,sS,mask-1.png,mask-3.png,h,1,0.48111379996407777,s,1,0.6415519000729546,0.04931619996204972,0.04994820000138134,0.10046660003717989,0.09895589994266629,0.3004896000493318
RSVPLG03,km,20251113-102410,1.0.2,20251113-095759,742,Experiment,Both,1,Automatic,main,77,20251113-103037,global,local,750,H,S,E,A,H-E.png,A-S.png,hH,sS,mask-2.png,mask-2.png,h,1,0.38333680003415793,h,0,0.09475189994554967,0.05072269996162504,0.04956170008517802,0.10005200002342463,0.09849280002526939,0.7490271999267861
RSVPLG03,km,20251113-102410,1.0.2,20251113-095759,742,Experiment,Both,1,Automatic,main,78,20251113-103042,global,local,300,H,H,E,E,H-E.png,E-H.png,hH,hH,mask-3.png,mask-2.png,h,1,0.41967339999973774,s,0,0.09839259996078908,0.04920349991880357,0.05130299995653331,0.09808619995601475,0.10173769993707538,0.2979708999628201
RSVPLG03,km,20251113-102410,1.0.2,20251113-095759,742,Experiment,Both,1,Automatic,main,79,20251113-103046,local,local,300,H,S,E,A,E-H.png,A-S.png,hH,sS,mask-1.png,mask-1.png,h,1,0.47733500006143004,h,0,0.11248370003886521,0.05140549992211163,0.04941740003414452,0.09993139992002398,0.09996040002442896,0.2998997999820858
RSVPLG03,km,20251113-102410,1.0.2,20251113-095759,742,Experiment,Both,1,Automatic,main,80,20251113-103050,global,global,750,S,S,A,E,S-A.png,S-E.png,sS,sS,mask-3.png,mask-3.png,s,1,0.380898299976252,s,1,0.12642500002402812,0.05048320000059903,0.05014599999412894,0.09933849994558841,0.09992229996714741,0.7492128999438137
RSVPLG03,km,20251113-102410,1.0.2,20251113-095759,742,Experiment,Both,1,Automatic,main,81,20251113-103055,global,local,750,H,H,A,A,H-A.png,A-H.png,hH,hH,mask-4.png,mask-3.png,h,1,0.25088090007193387,h,1,0.1225123000331223,0.04972999996971339,0.04974190006032586,0.09959309990517795,0.0995958000421524,0.750095299910754
RSVPLG03,km,20251113-102410,1.0.2,20251113-095759,742,Experiment,Both,1,Automatic,main,82,20251113-103059,local,global,750,H,H,E,E,E-H.png,H-E.png,hH,hH,mask-3.png,mask-4.png,s,0,0.5613450999371707,h,1,0.015524699934758246,0.05058159993495792,0.048939500004053116,0.09890560002531856,0.09855720004998147,0.7500440999865532
RSVPLG03,km,20251113-102410,1.0.2,20251113-095759,742,Experiment,Both,1,Automatic,main,83,20251113-103104,local,global,300,S,H,E,A,E-S.png,H-A.png,sS,hH,mask-1.png,mask-3.png,s,1,0.6661295999074355,h,1,0.03065890003927052,0.049576499965041876,0.050086400005966425,0.09948980004992336,0.10004629998002201,0.29834470001515
RSVPLG03,km,20251113-102410,1.0.2,20251113-095759,742,Experiment,Both,1,Automatic,main,84,20251113-103109,local,local,300,S,H,A,A,A-S.png,A-H.png,sS,hH,mask-4.png,mask-1.png,h,0,0.7453898000530899,h,1,0.06354089989326894,0.04940020001959056,0.05063329997938126,0.09884210000745952,0.10040370002388954,0.2994775000261143
RSVPLG03,km,20251113-102410,1.0.2,20251113-095759,742,Experiment,Both,1,Automatic,main,85,20251113-103113,global,local,300,H,S,E,E,H-E.png,E-S.png,hH,sS,mask-4.png,mask-3.png,h,1,0.41783970000687987,s,1,0.5890675000846386,0.04932880005799234,0.05116460006684065,0.10052300000097603,0.10129300004336983,0.2993032999802381
RSVPLG03,km,20251113-102410,1.0.2,20251113-095759,742,Experiment,Both,1,Automatic,main,86,20251113-103118,local,global,750,S,H,A,E,A-S.png,H-E.png,sS,hH,mask-4.png,mask-4.png,s,1,0.8135866000084206,s,0,0.09396389999892563,0.048748499946668744,0.049628800014033914,0.09857859998010099,0.09953839995432645,0.7485774999950081
RSVPLG03,km,20251113-102410,1.0.2,20251113-095759,742,Experiment,Both,1,Automatic,main,87,20251113-103123,local,local,300,S,S,E,E,E-S.png,E-S.png,sS,sS,mask-3.png,mask-4.png,s,1,0.3563926999922842,s,1,0.12747910001780838,0.050003700074739754,0.05115940002724528,0.09915830008685589,0.10040420002769679,0.299767000018619
RSVPLG03,km,20251113-102410,1.0.2,20251113-095759,742,Experiment,Both,1,Automatic,main,88,20251113-103127,local,global,300,H,H,A,A,A-H.png,H-A.png,hH,hH,mask-3.png,mask-1.png,h,1,0.9801565000088885,s,0,0.014922900008969009,0.048969199997372925,0.04916439997032285,0.10061229998245835,0.1003172000637278,0.30021619994658977
RSVPLG03,km,20251113-102410,1.0.2,20251113-095759,742,Experiment,Both,1,Automatic,main,89,20251113-103132,global,global,750,S,H,E,A,S-E.png,H-A.png,sS,hH,mask-1.png,mask-1.png,s,1,0.5126680999528617,h,1,0.02939659997355193,0.05099229991901666,0.04968369996640831,0.10000759991817176,0.10031709994655102,0.7503663999959826
RSVPLG03,km,20251113-102410,1.0.2,20251113-095759,742,Experiment,Both,1,Automatic,main,90,20251113-103136,local,local,300,S,H,A,E,A-S.png,E-H.png,sS,hH,mask-2.png,mask-4.png,s,1,1.0809308000607416,s,0,0.17559040000196546,0.050730799906887114,0.049527599941939116,0.09982779994606972,0.09956079989206046,0.30033040000125766
RSVPLG03,km,20251113-102410,1.0.2,20251113-095759,742,Experiment,Both,1,Automatic,main,91,20251113-103141,global,local,300,H,H,E,A,H-E.png,A-H.png,hH,hH,mask-2.png,mask-1.png,h,1,0.6574477999238297,h,1,0.12916969996877015,0.04974970000330359,0.04994090006221086,0.09967740008141845,0.10114580008666962,0.2979150000028312
RSVPLG03,km,20251113-102410,1.0.2,20251113-095759,742,Experiment,Both,1,Automatic,main,92,20251113-103146,local,global,300,S,H,A,A,A-S.png,H-A.png,sS,hH,mask-4.png,mask-2.png,h,0,0.8278051000088453,h,1,0.07904540002346039,0.04985880001913756,0.04957569995895028,0.09882960002869368,0.09827750001568347,0.2997379000298679
RSVPLG03,km,20251113-102410,1.0.2,20251113-095759,742,Experiment,Both,1,Automatic,main,93,20251113-103150,local,global,300,S,H,E,E,E-S.png,H-E.png,sS,hH,mask-4.png,mask-1.png,s,1,0.5283099000807852,h,1,0.0024657000321894884,0.049861199920997024,0.04987850005272776,0.09981619997415692,0.09982880007009953,0.30150799988768995
RSVPLG03,km,20251113-102410,1.0.2,20251113-095759,742,Experiment,Both,1,Automatic,main,94,20251113-103155,global,global,750,S,S,E,A,S-E.png,S-A.png,sS,sS,mask-3.png,mask-3.png,s,1,0.5624678999884054,s,1,0.11403250007424504,0.04880430002231151,0.05039570003282279,0.09980960004031658,0.09997610002756119,0.7488983999937773
RSVPLG03,km,20251113-102410,1.0.2,20251113-095759,742,Experiment,Both,1,Automatic,main,95,20251113-103200,local,global,750,H,S,E,E,E-H.png,S-E.png,hH,sS,mask-3.png,mask-4.png,s,0,0.5109567999606952,s,1,0.1262119000311941,0.04980270005762577,0.049853799981065094,0.1012596000218764,0.09982270002365112,0.7498359000310302
RSVPLG03,km,20251113-102410,1.0.2,20251113-095759,742,Experiment,Both,1,Automatic,main,96,20251113-103204,global,local,300,S,S,E,E,S-E.png,E-S.png,sS,sS,mask-3.png,mask-2.png,s,1,0.5488940000068396,s,1,0.09369150002021343,0.05032999999821186,0.05056880007032305,0.10028839996084571,0.10027510009240359,0.2989172999514267
RSVPLG03,km,20251113-102410,1.0.2,20251113-095759,742,Experiment,Both,1,Automatic,main,97,20251113-103209,local,local,750,S,S,A,A,A-S.png,A-S.png,sS,sS,mask-3.png,mask-2.png,s,1,0.37716869998257607,s,1,0.1126908001024276,0.050090900040231645,0.05085749994032085,0.09977850003633648,0.10055299999658018,0.7499279000330716
RSVPLG03,km,20251113-102410,1.0.2,20251113-095759,742,Experiment,Both,1,Automatic,main,98,20251113-103213,local,global,750,H,H,E,A,E-H.png,H-A.png,hH,hH,mask-4.png,mask-2.png,h,1,0.899672899977304,h,1,0.2393503999337554,0.04985850001685321,0.04856980009935796,0.10183230007532984,0.0977707999991253,0.7511882999679074
RSVPLG03,km,20251113-102410,1.0.2,20251113-095759,742,Experiment,Both,1,Automatic,main,99,20251113-103219,global,local,750,S,H,A,E,S-A.png,E-H.png,sS,hH,mask-3.png,mask-1.png,s,1,0.6469987999880686,s,0,0.0964982999721542,0.05041559995152056,0.04895049997139722,0.10026460001245141,0.09904080000706017,0.7498597999801859
RSVPLG03,km,20251113-102410,1.0.2,20251113-095759,742,Experiment,Both,1,Automatic,main,100,20251113-103223,local,global,750,S,H,A,E,A-S.png,H-E.png,sS,hH,mask-4.png,mask-1.png,s,1,0.6743349999887869,h,1,0.05058359995018691,0.04873249994125217,0.04975309991277754,0.09858419990632683,0.09962029999587685,0.7487436999799684
