exp,exp_initials,runtime,ver,modtime,sub,blocktype,targets,cuetype,mode,trialtype,trial,trialtime,t1_level,t2_level,t2_lag,t1,t2,distractor1,distractor2,stimfile1,stimfile2,t1_corr,t2_corr,maskfile1,maskfile2,t1_resp,t1_acc,t1_rt,t2_resp,t2_acc,t2_rt,t1_dur,t2_dur,t1mask_soa,t2mask_soa,t1t2_soa
RSVPLG03,si,20260312-151954,1.0.2,20260219-152011,804,Introduction,T1,1,Automatic,main,1,20260312-152026,global,global,750,S,H,E,A,S-E.png,H-A.png,sS,hH,mask-3.png,mask-1.png,s,1,2.052988799987361,none,-5,0,0.09464759996626526,0.09919460001401603,0.19366669992450625,0.2002515000058338,0.7438697000034153
RSVPLG03,si,20260312-151954,1.0.2,20260219-152011,804,Introduction,T1,1,Automatic,main,2,20260312-152032,local,global,750,S,S,E,E,E-S.png,S-E.png,sS,sS,mask-3.png,mask-2.png,s,1,1.730400100001134,none,-5,0,0.10065789998043329,0.09953919996041805,0.20101590000558645,0.2000862000277266,0.7502598999999464
RSVPLG03,si,20260312-151954,1.0.2,20260219-152011,804,Introduction,T1,1,Automatic,main,3,20260312-152038,local,global,750,H,S,E,E,E-H.png,S-E.png,hH,sS,mask-2.png,mask-4.png,h,1,1.2162876999936998,none,-5,0,0.10041080007795244,0.10007310006767511,0.19913130009081215,0.19934990000911057,0.7492649999912828
RSVPLG03,si,20260312-151954,1.0.2,20260219-152011,804,Introduction,T1,1,Automatic,main,4,20260312-152044,local,global,750,H,S,A,A,A-H.png,S-A.png,hH,sS,mask-4.png,mask-4.png,h,1,0.3254734999500215,none,-5,0,0.09817549993749708,0.09978859999682754,0.19804809999186546,0.1987381000071764,0.7489439999917522
RSVPLG03,si,20260312-151954,1.0.2,20260219-152011,804,Introduction,T1,1,Automatic,main,5,20260312-152048,global,local,750,H,S,E,E,H-E.png,E-S.png,hH,sS,mask-2.png,mask-4.png,h,1,0.955327200004831,none,-5,0,0.09872689994517714,0.09923309995792806,0.19780419999733567,0.19971559999976307,0.7474156999960542
RSVPLG03,si,20260312-151954,1.0.2,20260219-152011,804,Introduction,T1,1,Automatic,main,6,20260312-152053,global,global,750,H,H,A,A,H-A.png,H-A.png,hH,hH,mask-1.png,mask-2.png,h,1,1.3881092000519857,none,-5,0,0.09956690005492419,0.10018970002420247,0.19886060000862926,0.20151469996199012,0.7484642000636086
RSVPLG03,si,20260312-151954,1.0.2,20260219-152011,804,Introduction,T1,1,Automatic,main,7,20260312-152059,local,local,750,H,H,E,E,E-H.png,E-H.png,hH,hH,mask-1.png,mask-2.png,h,1,1.0032963000703603,none,-5,0,0.0994518999941647,0.09871380007825792,0.2000226000091061,0.20029469998553395,0.7494387999176979
RSVPLG03,si,20260312-151954,1.0.2,20260219-152011,804,Introduction,T1,1,Automatic,main,8,20260312-152104,local,local,750,S,H,A,A,A-S.png,A-H.png,sS,hH,mask-2.png,mask-4.png,h,0,1.0914211000781506,none,-5,0,0.09752409998327494,0.10028869996313006,0.19771610002499074,0.19915939995553344,0.74755740002729
RSVPLG03,si,20260312-151954,1.0.2,20260219-152011,804,Introduction,T1,1,Automatic,main,9,20260312-152109,global,global,750,H,H,A,E,H-A.png,H-E.png,hH,hH,mask-1.png,mask-2.png,h,1,0.4201333000091836,none,-5,0,0.10103090002667159,0.09932659997139126,0.1999428999843076,0.19837740005459636,0.7495249999919906
RSVPLG03,si,20260312-151954,1.0.2,20260219-152011,804,Introduction,T1,1,Automatic,main,10,20260312-152114,local,local,750,H,H,A,A,A-H.png,A-H.png,hH,hH,mask-4.png,mask-1.png,h,1,0.7276044000172988,none,-5,0,0.09909400006290525,0.10131599998567253,0.19745810003951192,0.20032149995677173,0.7475900000426918
RSVPLG03,si,20260312-151954,1.0.2,20260219-152011,804,Introduction,T1,1,Automatic,main,11,20260312-152118,local,global,750,H,S,A,E,A-H.png,S-E.png,hH,sS,mask-3.png,mask-3.png,h,1,0.9033839000621811,none,-5,0,0.0991372000426054,0.09931389999110252,0.19824379996862262,0.20178000000305474,0.7481775999767706
RSVPLG03,si,20260312-151954,1.0.2,20260219-152011,804,Introduction,T1,1,Automatic,main,12,20260312-152123,global,local,750,H,S,A,A,H-A.png,A-S.png,hH,sS,mask-4.png,mask-1.png,h,1,0.5446157000260428,none,-5,0,0.0996281000552699,0.09725800005253404,0.19972549995873123,0.19789520010817796,0.7514318999601528
RSVPLG03,si,20260312-151954,1.0.2,20260219-152011,804,Introduction,T1,1,Automatic,main,13,20260312-152128,global,local,750,S,S,A,A,S-A.png,A-S.png,sS,sS,mask-3.png,mask-4.png,s,1,0.40765209996607155,none,-5,0,0.09981200005859137,0.10008419991936535,0.199358299956657,0.19917669997084886,0.7494262000545859
RSVPLG03,si,20260312-151954,1.0.2,20260219-152011,804,Introduction,T1,1,Automatic,main,14,20260312-152133,global,global,750,S,S,A,E,S-A.png,S-E.png,sS,sS,mask-3.png,mask-2.png,s,1,0.42810160003136843,none,-5,0,0.09967839997261763,0.09961299994029105,0.1991907999617979,0.19922389998100698,0.7492407000390813
RSVPLG03,si,20260312-151954,1.0.2,20260219-152011,804,Introduction,T1,1,Automatic,main,15,20260312-152137,global,local,750,H,H,E,E,H-E.png,E-H.png,hH,hH,mask-4.png,mask-2.png,h,1,0.35555799992289394,none,-5,0,0.09927770006470382,0.09937120007816702,0.20168020005803555,0.20012759999372065,0.7498449999839067
RSVPLG03,si,20260312-151954,1.0.2,20260219-152011,804,Introduction,T1,1,Automatic,main,16,20260312-152142,local,local,750,H,S,A,A,A-H.png,A-S.png,hH,sS,mask-3.png,mask-4.png,h,1,1.3866683000233024,none,-5,0,0.09890919993631542,0.09845569997560233,0.19885629997588694,0.19928159995470196,0.7477478999644518
RSVPLG03,si,20260312-152204,1.0.2,20260219-152011,804,Practice,T1,1,Automatic,main,1,20260312-152232,local,local,300,S,H,E,A,E-S.png,A-H.png,sS,hH,mask-1.png,mask-4.png,s,1,0.3245331000071019,none,-5,0,0.05160519992932677,0.04990310000721365,0.10150929994415492,0.10005849995650351,0.3009734000079334
RSVPLG03,si,20260312-152204,1.0.2,20260219-152011,804,Practice,T1,1,Automatic,main,2,20260312-152236,local,local,750,H,H,A,A,A-H.png,A-H.png,hH,hH,mask-1.png,mask-3.png,h,1,3.8824691999470815,none,-5,0,0.04837279999628663,0.05193620000500232,0.09893219999503344,0.10116990003734827,0.7487822000402957
RSVPLG03,si,20260312-152204,1.0.2,20260219-152011,804,Practice,T1,1,Automatic,main,3,20260312-152244,local,global,750,H,H,E,A,E-H.png,H-A.png,hH,hH,mask-4.png,mask-3.png,h,1,0.5312063000164926,none,-5,0,0.05028289998881519,0.04862599994521588,0.10066230001393706,0.10047109995502979,0.752281800028868
RSVPLG03,si,20260312-152204,1.0.2,20260219-152011,804,Practice,T1,1,Automatic,main,4,20260312-152249,local,global,750,H,S,A,E,A-H.png,S-E.png,hH,sS,mask-1.png,mask-1.png,h,1,0.5153546000365168,none,-5,0,0.05091049999464303,0.05052819999400526,0.0992975999834016,0.09984020004048944,0.7504114999901503
RSVPLG03,si,20260312-152204,1.0.2,20260219-152011,804,Practice,T1,1,Automatic,main,5,20260312-152253,global,local,300,S,H,A,E,S-A.png,E-H.png,sS,hH,mask-2.png,mask-3.png,s,1,0.37354950001463294,none,-5,0,0.04998179990798235,0.04953570000361651,0.10056289995554835,0.09881539992056787,0.300574199995026
RSVPLG03,si,20260312-152204,1.0.2,20260219-152011,804,Practice,T1,1,Automatic,main,6,20260312-152257,global,local,750,S,S,A,E,S-A.png,E-S.png,sS,sS,mask-1.png,mask-2.png,s,1,0.3936378000071272,none,-5,0,0.04834159999154508,0.04950950003694743,0.09865820000413805,0.0994405000237748,0.7511310999980196
RSVPLG03,si,20260312-152204,1.0.2,20260219-152011,804,Practice,T1,1,Automatic,main,7,20260312-152302,local,global,300,S,S,E,A,E-S.png,S-A.png,sS,sS,mask-4.png,mask-4.png,s,1,0.47920319996774197,none,-5,0,0.050617999979294837,0.04886189999524504,0.10176019999198616,0.09924550005234778,0.30178669991437346
RSVPLG03,si,20260312-152204,1.0.2,20260219-152011,804,Practice,T1,1,Automatic,main,8,20260312-152306,global,global,750,S,S,E,E,S-E.png,S-E.png,sS,sS,mask-2.png,mask-2.png,s,1,0.40277249994687736,none,-5,0,0.05006589996628463,0.05094159999862313,0.10005529993213713,0.1013126999605447,0.7517467000288889
RSVPLG03,si,20260312-152204,1.0.2,20260219-152011,804,Practice,T1,1,Automatic,main,9,20260312-152310,local,local,750,S,S,A,E,A-S.png,E-S.png,sS,sS,mask-3.png,mask-3.png,h,0,1.041360400035046,none,-5,0,0.049892400042153895,0.05108710005879402,0.10013559996150434,0.10001649998594075,0.7511133999796584
RSVPLG03,si,20260312-152204,1.0.2,20260219-152011,804,Practice,T1,1,Automatic,main,10,20260312-152315,local,global,300,H,H,E,A,E-H.png,H-A.png,hH,hH,mask-3.png,mask-4.png,h,1,0.3817979000741616,none,-5,0,0.049912899965420365,0.04929290001746267,0.0991803000215441,0.10025370004586875,0.3005835999501869
RSVPLG03,si,20260312-152204,1.0.2,20260219-152011,804,Practice,T1,1,Automatic,main,11,20260312-152319,global,local,750,S,H,A,E,S-A.png,E-H.png,sS,hH,mask-4.png,mask-4.png,s,1,0.7984001999720931,none,-5,0,0.05029399995692074,0.048441800056025386,0.10032789991237223,0.09984110004734248,0.7540433999383822
RSVPLG03,si,20260312-152204,1.0.2,20260219-152011,804,Practice,T1,1,Automatic,main,12,20260312-152324,global,global,750,H,S,A,A,H-A.png,S-A.png,hH,sS,mask-4.png,mask-1.png,h,1,0.38030680001247674,none,-5,0,0.051342900027520955,0.04940699995495379,0.10044680000282824,0.09907669993117452,0.7519819000735879
RSVPLG03,si,20260312-152204,1.0.2,20260219-152011,804,Practice,T1,1,Automatic,main,13,20260312-152328,global,global,300,S,S,E,A,S-E.png,S-A.png,sS,sS,mask-4.png,mask-4.png,s,1,0.42800790001638234,none,-5,0,0.04977030004374683,0.04895530000794679,0.09979020000901073,0.09921779995784163,0.30122880009002984
RSVPLG03,si,20260312-152204,1.0.2,20260219-152011,804,Practice,T1,1,Automatic,main,14,20260312-152332,local,local,300,H,S,E,A,E-H.png,A-S.png,hH,sS,mask-1.png,mask-3.png,h,1,0.6809673000825569,none,-5,0,0.04913010005839169,0.05126390000805259,0.09958630008623004,0.10157470009289682,0.29922859999351203
RSVPLG03,si,20260312-152204,1.0.2,20260219-152011,804,Practice,T1,1,Automatic,main,15,20260312-152337,global,global,300,H,S,A,E,H-A.png,S-E.png,hH,sS,mask-1.png,mask-3.png,h,1,0.3457988000009209,none,-5,0,0.05020659998990595,0.04921179998200387,0.101535499910824,0.0994636999676004,0.3015364999882877
RSVPLG03,si,20260312-152204,1.0.2,20260219-152011,804,Practice,T1,1,Automatic,main,16,20260312-152341,global,local,300,H,H,E,E,H-E.png,E-H.png,hH,hH,mask-1.png,mask-3.png,h,1,0.34896530001424253,none,-5,0,0.04840789991430938,0.047455199994146824,0.10060649993829429,0.09796769998501986,0.30153719999361783
RSVPLG03,si,20260312-152359,1.0.2,20260219-152011,804,Introduction,Both,1,Automatic,main,1,20260312-152424,local,global,750,H,S,A,A,A-H.png,S-A.png,hH,sS,mask-2.png,mask-3.png,h,1,3.2737468000268564,s,1,4.048898400040343,0.09903049992863089,0.10001860000193119,0.1982725999550894,0.19990770006552339,0.7489191999193281
RSVPLG03,si,20260312-152359,1.0.2,20260219-152011,804,Introduction,Both,1,Automatic,main,2,20260312-152436,global,local,750,S,S,E,E,S-E.png,E-S.png,sS,sS,mask-1.png,mask-2.png,s,1,1.265828499919735,s,1,0.6189545000670478,0.0987757999682799,0.09953550004865974,0.19924109999556094,0.2001761000137776,0.7505501999985427
RSVPLG03,si,20260312-152359,1.0.2,20260219-152011,804,Introduction,Both,1,Automatic,main,3,20260312-152442,global,global,750,S,H,E,A,S-E.png,H-A.png,sS,hH,mask-3.png,mask-3.png,h,0,0.9298426000168547,h,1,0.6178443999961019,0.10076359997037798,0.10013069992419332,0.2017655000090599,0.19937589997425675,0.7516568000428379
RSVPLG03,si,20260312-152359,1.0.2,20260219-152011,804,Introduction,Both,1,Automatic,main,4,20260312-152448,global,global,750,H,H,A,A,H-A.png,H-A.png,hH,hH,mask-3.png,mask-1.png,h,1,0.46172530006151646,h,1,0.3852859000908211,0.09909700008574873,0.09900930000003427,0.19954070006497204,0.20046299998648465,0.750284600071609
RSVPLG03,si,20260312-152359,1.0.2,20260219-152011,804,Introduction,Both,1,Automatic,main,5,20260312-152453,local,global,750,H,H,E,E,E-H.png,H-E.png,hH,hH,mask-4.png,mask-1.png,h,1,3.9758012000238523,h,1,1.1926361001096666,0.09913340001367033,0.09978339995723218,0.1986502999207005,0.20091649994719774,0.7493821999523789
RSVPLG03,si,20260312-152359,1.0.2,20260219-152011,804,Introduction,Both,1,Automatic,main,6,20260312-152502,local,local,750,S,S,A,A,A-S.png,A-S.png,sS,sS,mask-1.png,mask-2.png,s,1,0.9777467999374494,s,1,0.49590390000957996,0.10052910004742444,0.10014190000947565,0.19852510001510382,0.1995131999719888,0.7503991000121459
RSVPLG03,si,20260312-152359,1.0.2,20260219-152011,804,Introduction,Both,1,Automatic,main,7,20260312-152508,global,global,750,H,S,A,A,H-A.png,S-A.png,hH,sS,mask-2.png,mask-4.png,h,1,0.943123200093396,s,1,0.16894570004660636,0.10008799994830042,0.10106729995459318,0.20065489993430674,0.2003557999851182,0.7503948999801651
RSVPLG03,si,20260312-152359,1.0.2,20260219-152011,804,Introduction,Both,1,Automatic,main,8,20260312-152513,global,local,750,H,S,A,A,H-A.png,A-S.png,hH,sS,mask-3.png,mask-2.png,h,1,2.1474802000448108,s,1,0.06552479998208582,0.10058830003254116,0.09983199997805059,0.19968830002471805,0.19982840004377067,0.7517237999709323
RSVPLG03,si,20260312-152359,1.0.2,20260219-152011,804,Introduction,Both,1,Automatic,main,9,20260312-152520,global,global,750,S,S,A,E,S-A.png,S-E.png,sS,sS,mask-2.png,mask-2.png,s,1,0.4477219000691548,s,1,0.2706964999670163,0.09979200002271682,0.09864119999110699,0.19944760005455464,0.19893950002733618,0.7516292000655085
RSVPLG03,si,20260312-152359,1.0.2,20260219-152011,804,Introduction,Both,1,Automatic,main,10,20260312-152525,global,local,750,S,S,E,A,S-E.png,A-S.png,sS,sS,mask-1.png,mask-4.png,s,1,2.963868199964054,s,1,1.3328810000093654,0.10047760000452399,0.09951720002572984,0.20159429998602718,0.20027659996412694,0.7505622999742627
RSVPLG03,si,20260312-152359,1.0.2,20260219-152011,804,Introduction,Both,1,Automatic,main,11,20260312-152533,global,local,750,S,H,A,E,S-A.png,E-H.png,sS,hH,mask-1.png,mask-4.png,s,1,0.6820285000139847,h,1,0.1766363000497222,0.10088140005245805,0.10109889996238053,0.20054510002955794,0.2012558999704197,0.7519081000937149
RSVPLG03,si,20260312-152359,1.0.2,20260219-152011,804,Introduction,Both,1,Automatic,main,12,20260312-152539,local,global,750,S,S,A,E,A-S.png,S-E.png,sS,sS,mask-2.png,mask-2.png,h,0,2.151906300103292,h,0,0.09001060004811734,0.10216130001936108,0.10024980001617223,0.2005998999811709,0.20020890003070235,0.7514359999913722
RSVPLG03,si,20260312-152359,1.0.2,20260219-152011,804,Introduction,Both,1,Automatic,main,13,20260312-152545,local,local,750,H,H,A,E,A-H.png,E-H.png,hH,hH,mask-3.png,mask-2.png,h,1,1.3398958999896422,s,0,0.6808393000392243,0.10048999998252839,0.10081999993417412,0.19897579995449632,0.20007989997975528,0.7495922000380233
RSVPLG03,si,20260312-152359,1.0.2,20260219-152011,804,Introduction,Both,1,Automatic,main,14,20260312-152551,local,local,750,S,H,E,E,E-S.png,E-H.png,sS,hH,mask-2.png,mask-2.png,s,1,2.0234725000336766,h,1,0.09718000004068017,0.10020540002733469,0.0991187000181526,0.20002089999616146,0.19977850001305342,0.7520124999573454
RSVPLG03,si,20260312-152359,1.0.2,20260219-152011,804,Introduction,Both,1,Automatic,main,15,20260312-152558,local,local,750,H,S,A,E,A-H.png,E-S.png,hH,sS,mask-3.png,mask-2.png,h,1,0.49406259995885193,s,1,0.016376500017940998,0.09972699999343604,0.09887089999392629,0.19974770001135767,0.20045890007168055,0.7510701999999583
RSVPLG03,si,20260312-152359,1.0.2,20260219-152011,804,Introduction,Both,1,Automatic,main,16,20260312-152603,local,global,750,H,S,E,E,E-H.png,S-E.png,hH,sS,mask-4.png,mask-4.png,h,1,3.094771199976094,s,1,1.4545887000858784,0.09988839994184673,0.09829809993971139,0.19978949998039752,0.19848609995096922,0.7516952999867499
RSVPLG03,si,20260312-152902,1.0.2,20260219-152011,804,Practice,Both,1,Automatic,main,1,20260312-152951,global,local,300,S,S,E,A,S-E.png,A-S.png,sS,sS,mask-3.png,mask-3.png,s,1,0.6088593000313267,h,0,0.08129960007499903,0.04511240008287132,0.047628300031647086,0.09587399999145418,0.0984365000622347,0.29733550001401454
RSVPLG03,si,20260312-152902,1.0.2,20260219-152011,804,Practice,Both,1,Automatic,main,2,20260312-152956,local,local,750,S,H,E,E,E-S.png,E-H.png,sS,hH,mask-3.png,mask-4.png,s,1,0.6654037999687716,h,1,0.0925974000710994,0.050059700035490096,0.05013150000013411,0.09945470001548529,0.10001129994634539,0.7476064000511542
RSVPLG03,si,20260312-152902,1.0.2,20260219-152011,804,Practice,Both,1,Automatic,main,3,20260312-153001,global,global,300,S,H,E,E,S-E.png,H-E.png,sS,hH,mask-2.png,mask-3.png,s,1,0.6200204000342637,h,1,0.08091849996708333,0.049147300072945654,0.05129309999756515,0.10106380004435778,0.1002901999745518,0.2993185000959784
RSVPLG03,si,20260312-152902,1.0.2,20260219-152011,804,Practice,Both,1,Automatic,main,4,20260312-153005,local,global,750,S,S,A,E,A-S.png,S-E.png,sS,sS,mask-3.png,mask-2.png,s,1,0.8066987000638619,h,0,0.025359999970532954,0.05010370002128184,0.05001000000629574,0.09898719994816929,0.10209179995581508,0.7478563999757171
RSVPLG03,si,20260312-152902,1.0.2,20260219-152011,804,Practice,Both,1,Automatic,main,5,20260312-153010,global,global,300,H,S,A,E,H-A.png,S-E.png,hH,sS,mask-3.png,mask-3.png,h,1,1.2713874999899417,s,1,0.3122589000267908,0.05022340000141412,0.04890649998560548,0.09997239999938756,0.09789879992604256,0.3005264000967145
RSVPLG03,si,20260312-152902,1.0.2,20260219-152011,804,Practice,Both,1,Automatic,main,6,20260312-153015,global,local,300,S,S,E,E,S-E.png,E-S.png,sS,sS,mask-4.png,mask-4.png,s,1,0.4919065000722185,h,0,0.04733129998203367,0.0497365000192076,0.05002590001095086,0.09937700000591576,0.10008859995286912,0.30086179997306317
RSVPLG03,si,20260312-152902,1.0.2,20260219-152011,804,Practice,Both,1,Automatic,main,7,20260312-153020,local,local,750,S,H,A,E,A-S.png,E-H.png,sS,hH,mask-1.png,mask-1.png,h,0,0.5712034999160096,s,0,0.7311966998968273,0.04970059997867793,0.050825699931010604,0.09919570002239197,0.10146809997968376,0.7474830000428483
RSVPLG03,si,20260312-152902,1.0.2,20260219-152011,804,Practice,Both,1,Automatic,main,8,20260312-153024,local,local,300,H,S,E,A,E-H.png,A-S.png,hH,sS,mask-1.png,mask-2.png,h,1,0.7456505000591278,s,1,0.04161690000910312,0.048367699957452714,0.05006229993887246,0.09893710003234446,0.10146399994846433,0.29811329999938607
RSVPLG03,si,20260312-152902,1.0.2,20260219-152011,804,Practice,Both,1,Automatic,main,9,20260312-153029,global,global,750,H,S,E,A,H-E.png,S-A.png,hH,sS,mask-3.png,mask-4.png,h,1,0.6784979000221938,s,1,0.005812800023704767,0.04847529996186495,0.0505608000094071,0.09828110004309565,0.09963980002794415,0.7482161000370979
RSVPLG03,si,20260312-152902,1.0.2,20260219-152011,804,Practice,Both,1,Automatic,main,10,20260312-153034,local,global,300,H,S,E,A,E-H.png,S-A.png,hH,sS,mask-4.png,mask-3.png,h,1,0.649925300036557,s,1,0.055771299987100065,0.049851200077682734,0.049993199994787574,0.09990839997772127,0.09988069999963045,0.2994354000547901
RSVPLG03,si,20260312-152902,1.0.2,20260219-152011,804,Practice,Both,1,Automatic,main,11,20260312-153038,local,global,750,S,H,A,E,A-S.png,H-E.png,sS,hH,mask-4.png,mask-4.png,h,0,0.6387294000014663,h,1,3.6520858999574557,0.047674600034952164,0.048882000031881034,0.09776410006452352,0.09945770003832877,0.7481287999544293
RSVPLG03,si,20260312-152902,1.0.2,20260219-152011,804,Practice,Both,1,Automatic,main,12,20260312-153047,local,global,300,H,S,A,A,A-H.png,S-A.png,hH,sS,mask-4.png,mask-2.png,s,0,1.9326907999347895,h,0,0.09526899992488325,0.04841579997446388,0.048502800054848194,0.09936920006293803,0.0986042000586167,0.30000899999868125
RSVPLG03,si,20260312-152902,1.0.2,20260219-152011,804,Practice,Both,1,Automatic,main,13,20260312-153052,local,local,300,S,H,E,A,E-S.png,A-H.png,sS,hH,mask-1.png,mask-1.png,s,1,1.913541299989447,h,1,0.036394699942320585,0.05032979999668896,0.05189130001235753,0.10036769998259842,0.09949510009028018,0.29947279999032617
RSVPLG03,si,20260312-152902,1.0.2,20260219-152011,804,Practice,Both,1,Automatic,main,14,20260312-153058,global,local,750,S,S,A,E,S-A.png,E-S.png,sS,sS,mask-4.png,mask-3.png,h,0,0.815366999944672,s,1,0.05717689997982234,0.048284299904480577,0.05166220001410693,0.09930080000776798,0.09808980009984225,0.7488251999020576
RSVPLG03,si,20260312-152902,1.0.2,20260219-152011,804,Practice,Both,1,Automatic,main,15,20260312-153103,global,local,750,S,H,E,A,S-E.png,A-H.png,sS,hH,mask-2.png,mask-4.png,s,1,0.7630872000008821,h,1,0.11407979996874928,0.05229500005953014,0.050161799998022616,0.1015517000341788,0.09884140000212938,0.750791099970229
RSVPLG03,si,20260312-152902,1.0.2,20260219-152011,804,Practice,Both,1,Automatic,main,16,20260312-153108,global,global,750,H,H,A,E,H-A.png,H-E.png,hH,hH,mask-1.png,mask-1.png,h,1,1.7910580000607297,s,0,0.01860040007159114,0.04932250001002103,0.047838600003160536,0.09934040007647127,0.09866590006276965,0.7491727999877185
RSVPLG03,si,20260312-153208,1.0.2,20260219-152011,804,Experiment,Both,1,Automatic,warmup,1,20260312-153231,local,local,750,S,H,A,E,A-S.png,E-H.png,sS,hH,mask-4.png,mask-4.png,s,1,0.45229000004474074,h,1,0.03428669995628297,0.04037070006597787,0.05028440000023693,0.09034270001575351,0.10059649997856468,0.7399148000404239
RSVPLG03,si,20260312-153208,1.0.2,20260219-152011,804,Experiment,Both,1,Automatic,warmup,2,20260312-153236,global,local,300,H,S,A,A,H-A.png,A-S.png,hH,sS,mask-3.png,mask-1.png,h,1,0.6520276999799535,h,0,0.08992579998448491,0.04991379997227341,0.05272030003834516,0.10179540002718568,0.10125870001502335,0.30011449998710304
RSVPLG03,si,20260312-153208,1.0.2,20260219-152011,804,Experiment,Both,1,Automatic,warmup,3,20260312-153240,local,local,300,H,S,E,A,E-H.png,A-S.png,hH,sS,mask-4.png,mask-1.png,h,1,0.4579854999901727,s,1,0.01778400002513081,0.0504052999895066,0.04867499996908009,0.09941689996048808,0.10143060004338622,0.2999871999491006
RSVPLG03,si,20260312-153208,1.0.2,20260219-152011,804,Experiment,Both,1,Automatic,warmup,4,20260312-153244,global,global,300,H,S,A,E,H-A.png,S-E.png,hH,sS,mask-1.png,mask-4.png,h,1,0.4705442999256775,s,1,0.025315699982456863,0.049568000016734004,0.04933479998726398,0.0997559999814257,0.10020949994213879,0.30044500005897135
RSVPLG03,si,20260312-153208,1.0.2,20260219-152011,804,Experiment,Both,1,Automatic,main,5,20260312-153248,local,global,750,S,H,E,A,E-S.png,H-A.png,sS,hH,mask-4.png,mask-4.png,s,1,0.6228717999765649,h,1,0.0732154999859631,0.049730799975804985,0.051305699977092445,0.10005050001200289,0.10259070002939552,0.7506525999633595
RSVPLG03,si,20260312-153208,1.0.2,20260219-152011,804,Experiment,Both,1,Automatic,main,6,20260312-153253,local,local,300,H,H,A,E,A-H.png,E-H.png,hH,hH,mask-4.png,mask-2.png,h,1,0.5586410999530926,s,0,0.014240400050766766,0.05049910000525415,0.04887649999000132,0.10030120005831122,0.09817260003183037,0.30048099998384714
RSVPLG03,si,20260312-153208,1.0.2,20260219-152011,804,Experiment,Both,1,Automatic,main,7,20260312-153257,global,global,300,S,S,E,A,S-E.png,S-A.png,sS,sS,mask-2.png,mask-2.png,s,1,0.3633766000857577,h,0,0.05057920003309846,0.05027520004659891,0.0502495999680832,0.09999350004363805,0.09996089991182089,0.299516300088726
RSVPLG03,si,20260312-153208,1.0.2,20260219-152011,804,Experiment,Both,1,Automatic,main,8,20260312-153302,global,global,300,S,S,A,A,S-A.png,S-A.png,sS,sS,mask-1.png,mask-2.png,h,0,2.2751264999387786,s,1,0.04018390004057437,0.04996219999156892,0.04936079995241016,0.09984619996976107,0.09907270001713187,0.30215250002220273
RSVPLG03,si,20260312-153208,1.0.2,20260219-152011,804,Experiment,Both,1,Automatic,main,9,20260312-153308,local,local,750,H,H,A,E,A-H.png,E-H.png,hH,hH,mask-3.png,mask-4.png,s,0,1.0356646000873297,h,1,0.03527520003262907,0.049832899938337505,0.04839370003901422,0.0984637999208644,0.09880070004146546,0.7516992999007925
RSVPLG03,si,20260312-153208,1.0.2,20260219-152011,804,Experiment,Both,1,Automatic,main,10,20260312-153313,global,global,750,H,H,E,A,H-E.png,H-A.png,hH,hH,mask-3.png,mask-4.png,h,1,0.5840550001012161,s,0,0.040915500023402274,0.050541300093755126,0.050754399970173836,0.10048400005325675,0.0988802999490872,0.7516408000374213
RSVPLG03,si,20260312-153208,1.0.2,20260219-152011,804,Experiment,Both,1,Automatic,main,11,20260312-153318,local,local,750,H,H,E,A,E-H.png,A-H.png,hH,hH,mask-4.png,mask-1.png,h,1,0.5549735999666154,h,1,0.08528589992783964,0.05108180001843721,0.049200500012375414,0.10061480000149459,0.09938300005160272,0.7525889999233186
RSVPLG03,si,20260312-153208,1.0.2,20260219-152011,804,Experiment,Both,1,Automatic,main,12,20260312-153322,global,local,300,H,S,E,E,H-E.png,E-S.png,hH,sS,mask-2.png,mask-3.png,h,1,0.42507670004852116,s,1,0.03353719995357096,0.050493799964897335,0.05040399997960776,0.09839930001180619,0.10104550002142787,0.3012485000072047
RSVPLG03,si,20260312-153208,1.0.2,20260219-152011,804,Experiment,Both,1,Automatic,main,13,20260312-153326,local,local,750,H,S,E,A,E-H.png,A-S.png,hH,sS,mask-2.png,mask-2.png,h,1,1.2850419000023976,s,1,0.04858999990392476,0.050253900000825524,0.04917889996431768,0.10115240002050996,0.09975819999817759,0.752091999980621
RSVPLG03,si,20260312-153208,1.0.2,20260219-152011,804,Experiment,Both,1,Automatic,main,14,20260312-153332,local,global,750,H,S,A,A,A-H.png,S-A.png,hH,sS,mask-4.png,mask-4.png,h,1,0.614824500051327,s,1,0.057347900001332164,0.049757199943996966,0.049647800042293966,0.10113880003336817,0.10172500007320195,0.751857899944298
RSVPLG03,si,20260312-153208,1.0.2,20260219-152011,804,Experiment,Both,1,Automatic,main,15,20260312-153337,global,global,300,S,H,A,A,S-A.png,H-A.png,sS,hH,mask-4.png,mask-3.png,h,0,2.675071300007403,s,0,0.0778381999116391,0.04999680002219975,0.04965259996242821,0.10024040006101131,0.0999545999802649,0.301452900050208
RSVPLG03,si,20260312-153208,1.0.2,20260219-152011,804,Experiment,Both,1,Automatic,main,16,20260312-153343,global,local,750,S,H,E,A,S-E.png,A-H.png,sS,hH,mask-1.png,mask-2.png,s,1,1.0376000000396743,h,1,0.12158929998986423,0.05018159991595894,0.04891519993543625,0.10577799996826798,0.09999219991732389,0.7527645999798551
RSVPLG03,si,20260312-153208,1.0.2,20260219-152011,804,Experiment,Both,1,Automatic,main,17,20260312-153348,global,global,300,S,S,E,A,S-E.png,S-A.png,sS,sS,mask-3.png,mask-1.png,s,1,0.599188799969852,h,0,0.015948700020089746,0.05050360003951937,0.048952999990433455,0.10145670000929385,0.09970749996136874,0.29985860001761466
RSVPLG03,si,20260312-153208,1.0.2,20260219-152011,804,Experiment,Both,1,Automatic,main,18,20260312-153353,local,local,300,S,S,A,E,A-S.png,E-S.png,sS,sS,mask-3.png,mask-4.png,s,1,1.7799416000489146,h,0,0.05561159993521869,0.048589900019578636,0.0508457999676466,0.09805949998553842,0.09994530002586544,0.2994048000546172
RSVPLG03,si,20260312-153208,1.0.2,20260219-152011,804,Experiment,Both,1,Automatic,main,19,20260312-153358,global,global,750,S,H,A,E,S-A.png,H-E.png,sS,hH,mask-1.png,mask-1.png,s,1,1.950450300006196,h,1,0.06514079996850342,0.049471399979665875,0.05003949999809265,0.09940449998248369,0.10110920004080981,0.7500718999654055
RSVPLG03,si,20260312-153208,1.0.2,20260219-152011,804,Experiment,Both,1,Automatic,main,20,20260312-153404,local,global,750,H,S,E,A,E-H.png,S-A.png,hH,sS,mask-3.png,mask-4.png,h,1,0.8247215000446886,s,1,0.0643926999764517,0.04903190000914037,0.04824349994305521,0.10032079997472465,0.09798309998586774,0.7524452999932691
RSVPLG03,si,20260312-153208,1.0.2,20260219-152011,804,Experiment,Both,1,Automatic,main,21,20260312-153409,local,local,750,H,S,A,A,A-H.png,A-S.png,hH,sS,mask-4.png,mask-3.png,h,1,0.5876046000048518,s,1,0.012730699963867664,0.04979199997615069,0.04958350001834333,0.0995884999865666,0.09988340002018958,0.7525828999932855
RSVPLG03,si,20260312-153208,1.0.2,20260219-152011,804,Experiment,Both,1,Automatic,main,22,20260312-153414,local,global,750,S,S,E,E,E-S.png,S-E.png,sS,sS,mask-3.png,mask-4.png,s,1,0.480058699962683,s,1,0.3520292000612244,0.049942499957978725,0.04979479999747127,0.10075779992621392,0.10067019995767623,0.7505286999512464
RSVPLG03,si,20260312-153208,1.0.2,20260219-152011,804,Experiment,Both,1,Automatic,main,23,20260312-153419,global,global,300,H,H,E,E,H-E.png,H-E.png,hH,hH,mask-1.png,mask-4.png,h,1,0.5022360000293702,s,0,1.6326672999421135,0.05133040004875511,0.04868060001172125,0.10127760004252195,0.10065510007552803,0.30076949996873736
RSVPLG03,si,20260312-153208,1.0.2,20260219-152011,804,Experiment,Both,1,Automatic,main,24,20260312-153425,local,global,750,S,S,E,A,E-S.png,S-A.png,sS,sS,mask-3.png,mask-3.png,s,1,0.5421500999946147,s,1,0.07529210008215159,0.049235799931921065,0.050001599942333996,0.0989855999359861,0.09990579995792359,0.7506895000115037
RSVPLG03,si,20260312-153208,1.0.2,20260219-152011,804,Experiment,Both,1,Automatic,main,25,20260312-153430,local,global,750,H,S,A,A,A-H.png,S-A.png,hH,sS,mask-4.png,mask-2.png,h,1,0.7288638000609353,s,1,0.8814299000659958,0.049380999989807606,0.049954499932937324,0.09944630006793886,0.09893609990831465,0.7516589000588283
RSVPLG03,si,20260312-153208,1.0.2,20260219-152011,804,Experiment,Both,1,Automatic,main,26,20260312-153510,global,local,300,H,H,A,E,H-A.png,E-H.png,hH,hH,mask-3.png,mask-4.png,h,1,0.6817468999652192,s,0,0.48586329992394894,0.048748499946668744,0.04890230007003993,0.09851509996224195,0.09946390008553863,0.2990201999200508
RSVPLG03,si,20260312-153208,1.0.2,20260219-152011,804,Experiment,Both,1,Automatic,main,27,20260312-153515,local,local,300,S,S,A,E,A-S.png,E-S.png,sS,sS,mask-4.png,mask-3.png,s,1,0.7111903000622988,s,1,0.06604259996674955,0.0497718999395147,0.04989739996381104,0.09959120000712574,0.09929649997502565,0.3012031000107527
RSVPLG03,si,20260312-153208,1.0.2,20260219-152011,804,Experiment,Both,1,Automatic,main,28,20260312-153519,global,local,750,H,S,E,A,H-E.png,A-S.png,hH,sS,mask-1.png,mask-1.png,h,1,0.8549307000357658,s,1,0.06544639996718615,0.04992839996702969,0.04985609999857843,0.1008855999680236,0.10006209998391569,0.7517430000007153
RSVPLG03,si,20260312-153208,1.0.2,20260219-152011,804,Experiment,Both,1,Automatic,main,29,20260312-153524,local,global,300,S,S,A,E,A-S.png,S-E.png,sS,sS,mask-4.png,mask-3.png,s,1,1.0601334000239149,h,0,0.5087624998996034,0.05023649998474866,0.05035999999381602,0.10011140001006424,0.09997840004507452,0.3006128999404609
RSVPLG03,si,20260312-153208,1.0.2,20260219-152011,804,Experiment,Both,1,Automatic,main,30,20260312-153529,global,global,750,H,H,E,A,H-E.png,H-A.png,hH,hH,mask-4.png,mask-2.png,h,1,0.41605080000590533,h,1,0.08249549998436123,0.05094690003897995,0.04992300004232675,0.10341199999675155,0.09960910002700984,0.7521067999769002
RSVPLG03,si,20260312-153208,1.0.2,20260219-152011,804,Experiment,Both,1,Automatic,main,31,20260312-153534,global,local,300,S,H,E,A,S-E.png,A-H.png,sS,hH,mask-2.png,mask-3.png,h,0,1.8795078999828547,s,0,0.08135819993913174,0.04864719999022782,0.050132400006987154,0.09871579997707158,0.10103650006931275,0.2984702999237925
RSVPLG03,si,20260312-153208,1.0.2,20260219-152011,804,Experiment,Both,1,Automatic,main,32,20260312-153540,local,global,750,H,H,E,A,E-H.png,H-A.png,hH,hH,mask-2.png,mask-3.png,s,0,1.7960148999700323,h,1,0.13439939997624606,0.0491673001088202,0.05164159997366369,0.0994598000543192,0.10223810002207756,0.7493677000747994
RSVPLG03,si,20260312-153208,1.0.2,20260219-152011,804,Experiment,Both,1,Automatic,main,33,20260312-153546,global,local,300,H,S,E,A,H-E.png,A-S.png,hH,sS,mask-4.png,mask-3.png,h,1,0.5784647000255063,s,1,0.18989369994960725,0.050828700070269406,0.0500713000074029,0.09898160002194345,0.09978419996332377,0.3001845000544563
RSVPLG03,si,20260312-153208,1.0.2,20260219-152011,804,Experiment,Both,1,Automatic,main,34,20260312-153550,local,global,300,H,H,E,A,E-H.png,H-A.png,hH,hH,mask-3.png,mask-1.png,h,1,0.7108500000322238,s,0,0.09612050000578165,0.04870459996163845,0.05157269991468638,0.09948289999738336,0.10177860001567751,0.2992344000376761
RSVPLG03,si,20260312-153208,1.0.2,20260219-152011,804,Experiment,Both,1,Automatic,main,35,20260312-153555,local,global,300,S,H,E,A,E-S.png,H-A.png,sS,hH,mask-4.png,mask-4.png,s,1,0.47712119994685054,s,0,0.1982220000354573,0.048846299992874265,0.05031329998746514,0.09907719993498176,0.10134490008931607,0.2990335999056697
RSVPLG03,si,20260312-153208,1.0.2,20260219-152011,804,Experiment,Both,1,Automatic,main,36,20260312-153559,local,global,300,H,S,A,A,A-H.png,S-A.png,hH,sS,mask-3.png,mask-2.png,h,1,1.2901438999688253,s,1,0.736680299974978,0.05015919997822493,0.05022340000141412,0.10195050004404038,0.10043949994724244,0.3005669000558555
RSVPLG03,si,20260312-153208,1.0.2,20260219-152011,804,Experiment,Both,1,Automatic,main,37,20260312-153605,local,local,750,H,H,E,E,E-H.png,E-H.png,hH,hH,mask-1.png,mask-3.png,h,1,0.8458145000040531,s,0,0.30348769994452596,0.04988690000027418,0.050556099973618984,0.10030859999824315,0.09987560007721186,0.7497581000206992
RSVPLG03,si,20260312-153208,1.0.2,20260219-152011,804,Experiment,Both,1,Automatic,main,38,20260312-153610,global,local,750,S,S,A,A,S-A.png,A-S.png,sS,sS,mask-2.png,mask-4.png,h,0,0.8055474000284448,s,1,0.11056880000978708,0.048762000049464405,0.049132300075143576,0.09844030009116977,0.09955639997497201,0.7501547000138089
RSVPLG03,si,20260312-153208,1.0.2,20260219-152011,804,Experiment,Both,1,Automatic,main,39,20260312-153615,global,global,750,H,H,A,A,H-A.png,H-A.png,hH,hH,mask-4.png,mask-3.png,h,1,1.242822999949567,h,1,0.09734650002792478,0.04964380001183599,0.05039240000769496,0.10018609999679029,0.09962240001186728,0.7518769999733195
RSVPLG03,si,20260312-153208,1.0.2,20260219-152011,804,Experiment,Both,1,Automatic,main,40,20260312-153621,global,local,750,S,H,A,E,S-A.png,E-H.png,sS,hH,mask-4.png,mask-4.png,s,1,0.7334196000592783,h,1,0.23684120003599674,0.05017699999734759,0.05022800003644079,0.10200810001697391,0.10200459999032319,0.751111299963668
RSVPLG03,si,20260312-153208,1.0.2,20260219-152011,804,Experiment,Both,1,Automatic,main,41,20260312-153626,local,local,750,H,S,A,E,A-H.png,E-S.png,hH,sS,mask-1.png,mask-2.png,h,1,0.7460519999731332,s,1,0.040579100023023784,0.05072269996162504,0.05099220003467053,0.10239739995449781,0.09985210001468658,0.7517015999183059
RSVPLG03,si,20260312-153208,1.0.2,20260219-152011,804,Experiment,Both,1,Automatic,main,42,20260312-153631,global,local,750,H,S,A,A,H-A.png,A-S.png,hH,sS,mask-3.png,mask-4.png,s,0,1.6281778999837115,s,1,0.09978969988878816,0.04868580005131662,0.05158219998702407,0.09875610005110502,0.1000743000768125,0.7496417999500409
RSVPLG03,si,20260312-153208,1.0.2,20260219-152011,804,Experiment,Both,1,Automatic,main,43,20260312-153637,global,global,750,S,S,A,A,S-A.png,S-A.png,sS,sS,mask-3.png,mask-1.png,h,0,0.9012342999922112,s,1,0.15429829992353916,0.05113600008189678,0.04994199995417148,0.1018298000562936,0.09995109995361418,0.7520433000754565
RSVPLG03,si,20260312-153208,1.0.2,20260219-152011,804,Experiment,Both,1,Automatic,main,44,20260312-153642,local,local,750,H,S,A,A,A-H.png,A-S.png,hH,sS,mask-1.png,mask-3.png,h,1,0.8328671999042854,s,1,0.011278499965555966,0.04965200007427484,0.04982680000830442,0.09941580006852746,0.09783720003906637,0.7520520000252873
RSVPLG03,si,20260312-153208,1.0.2,20260219-152011,804,Experiment,Both,1,Automatic,main,45,20260312-153647,global,global,300,S,S,E,E,S-E.png,S-E.png,sS,sS,mask-4.png,mask-2.png,s,1,1.6232744000153616,h,0,0.4246462999144569,0.04904049995820969,0.04911359993275255,0.09915939997881651,0.09944799996446818,0.3004880000371486
RSVPLG03,si,20260312-153208,1.0.2,20260219-152011,804,Experiment,Both,1,Automatic,main,46,20260312-153653,global,global,300,S,H,A,A,S-A.png,H-A.png,sS,hH,mask-4.png,mask-3.png,s,1,0.9112508000107482,h,1,0.1329799999948591,0.04801549995318055,0.05203000002074987,0.09975269995629787,0.10253600007854402,0.29792139993514866
RSVPLG03,si,20260312-153208,1.0.2,20260219-152011,804,Experiment,Both,1,Automatic,main,47,20260312-153658,local,global,300,S,S,E,E,E-S.png,S-E.png,sS,sS,mask-1.png,mask-1.png,s,1,0.6232304000295699,s,1,0.20228999992832541,0.051172500010579824,0.04996590001974255,0.10162210010457784,0.10252980003133416,0.29990149999503046
RSVPLG03,si,20260312-153208,1.0.2,20260219-152011,804,Experiment,Both,1,Automatic,main,48,20260312-153702,local,global,300,H,S,E,A,E-H.png,S-A.png,hH,sS,mask-4.png,mask-4.png,h,1,0.8795738999033347,s,1,0.08616219996474683,0.05165149993263185,0.05001300002913922,0.10113129997625947,0.10004150005988777,0.3009195999475196
RSVPLG03,si,20260312-153208,1.0.2,20260219-152011,804,Experiment,Both,1,Automatic,main,49,20260312-153707,local,global,750,S,S,E,A,E-S.png,S-A.png,sS,sS,mask-2.png,mask-1.png,s,1,2.089901900035329,h,0,0.2982412999263033,0.04903509991709143,0.04953169997315854,0.09870540001429617,0.09872390003874898,0.7516125999391079
RSVPLG03,si,20260312-153208,1.0.2,20260219-152011,804,Experiment,Both,1,Automatic,main,50,20260312-153713,local,global,300,S,H,E,A,E-S.png,H-A.png,sS,hH,mask-3.png,mask-3.png,h,0,0.9154617000604048,s,0,0.2019334000069648,0.04875089996494353,0.05061879998538643,0.10016339994035661,0.10247919999528676,0.29964999994263053
RSVPLG03,si,20260312-153208,1.0.2,20260219-152011,804,Experiment,Both,1,Automatic,main,51,20260312-153752,local,local,300,H,H,A,A,A-H.png,A-H.png,hH,hH,mask-2.png,mask-1.png,h,1,0.7459397000493482,h,1,0.1910310999955982,0.05017609999049455,0.05005630000960082,0.0992538999998942,0.10084839991759509,0.3006445000646636
RSVPLG03,si,20260312-153208,1.0.2,20260219-152011,804,Experiment,Both,1,Automatic,main,52,20260312-153757,global,local,300,H,H,A,A,H-A.png,A-H.png,hH,hH,mask-4.png,mask-3.png,h,1,0.9755450000520796,h,1,0.3695102999918163,0.050051000085659325,0.0502455000532791,0.10068010003305972,0.10026670002844185,0.29981080000288785
RSVPLG03,si,20260312-153208,1.0.2,20260219-152011,804,Experiment,Both,1,Automatic,main,53,20260312-153802,local,global,750,S,S,A,E,A-S.png,S-E.png,sS,sS,mask-4.png,mask-2.png,s,1,0.4676854000426829,s,1,0.18732490006368607,0.048118399921804667,0.05160150001756847,0.10018269997090101,0.10014190000947565,0.7494243999244645
RSVPLG03,si,20260312-153208,1.0.2,20260219-152011,804,Experiment,Both,1,Automatic,main,54,20260312-153807,local,local,300,H,H,E,A,E-H.png,A-H.png,hH,hH,mask-3.png,mask-2.png,h,1,0.3863040000433102,h,1,0.1921576999593526,0.04964460001792759,0.05118390009738505,0.10010569996666163,0.10141690005548298,0.29865659994538873
RSVPLG03,si,20260312-153208,1.0.2,20260219-152011,804,Experiment,Both,1,Automatic,main,55,20260312-153811,global,global,750,S,H,E,A,S-E.png,H-A.png,sS,hH,mask-4.png,mask-4.png,s,1,0.46955290006008,h,1,0.12787059997208416,0.04993179999291897,0.04948439996223897,0.09977710002567619,0.09949529997538775,0.7517797000473365
RSVPLG03,si,20260312-153208,1.0.2,20260219-152011,804,Experiment,Both,1,Automatic,main,56,20260312-153816,global,global,750,H,S,E,A,H-E.png,S-A.png,hH,sS,mask-1.png,mask-4.png,h,1,0.4970236000372097,s,1,0.0737811999861151,0.05097709991969168,0.04909860005136579,0.10219459992367774,0.10007819999009371,0.7521029999479651
RSVPLG03,si,20260312-153208,1.0.2,20260219-152011,804,Experiment,Both,1,Automatic,main,57,20260312-153821,local,local,300,H,H,E,E,E-H.png,E-H.png,hH,hH,mask-1.png,mask-2.png,h,1,0.6203120000427589,h,1,0.16501440003048629,0.050859699957072735,0.050152999931015074,0.09997029998339713,0.09965059999376535,0.30123049998655915
RSVPLG03,si,20260312-153208,1.0.2,20260219-152011,804,Experiment,Both,1,Automatic,main,58,20260312-153825,global,global,750,H,H,A,E,H-A.png,H-E.png,hH,hH,mask-1.png,mask-1.png,h,1,0.3921286999247968,h,1,0.1304845999693498,0.05026059993542731,0.04998729994986206,0.1005820999853313,0.10000799992121756,0.7517309000249952
RSVPLG03,si,20260312-153208,1.0.2,20260219-152011,804,Experiment,Both,1,Automatic,main,59,20260312-153830,global,global,300,H,S,E,A,H-E.png,S-A.png,hH,sS,mask-1.png,mask-2.png,h,1,0.5054816999472678,s,1,0.07044130004942417,0.051125199999660254,0.04955570003949106,0.09981980000156909,0.09992569999303669,0.30167419998906553
RSVPLG03,si,20260312-153208,1.0.2,20260219-152011,804,Experiment,Both,1,Automatic,main,60,20260312-153834,local,local,300,H,H,E,E,E-H.png,E-H.png,hH,hH,mask-4.png,mask-2.png,h,1,0.6347452999325469,h,1,0.1371701000025496,0.04945290007162839,0.049758799956180155,0.0990563000086695,0.09958309994544834,0.29957700008526444
RSVPLG03,si,20260312-153208,1.0.2,20260219-152011,804,Experiment,Both,1,Automatic,main,61,20260312-153839,local,local,750,H,S,A,A,A-H.png,A-S.png,hH,sS,mask-3.png,mask-4.png,h,1,0.4513408000348136,s,1,0.07091479992959648,0.04915550001896918,0.050304300035350025,0.09909989999141544,0.10047380009200424,0.7513080999488011
RSVPLG03,si,20260312-153208,1.0.2,20260219-152011,804,Experiment,Both,1,Automatic,main,62,20260312-153844,local,local,300,H,H,E,A,E-H.png,A-H.png,hH,hH,mask-1.png,mask-2.png,s,0,0.732529699918814,h,1,0.0879176000598818,0.04912239999976009,0.04807999997865409,0.09963269997388124,0.09806280001066625,0.3012267999583855
RSVPLG03,si,20260312-153208,1.0.2,20260219-152011,804,Experiment,Both,1,Automatic,main,63,20260312-153848,local,global,300,H,H,E,A,E-H.png,H-A.png,hH,hH,mask-3.png,mask-2.png,h,1,0.8789937999099493,s,0,0.10525459994096309,0.050970699987374246,0.04947529989294708,0.10104700003284961,0.09966539999004453,0.30189680005423725
RSVPLG03,si,20260312-153208,1.0.2,20260219-152011,804,Experiment,Both,1,Automatic,main,64,20260312-153853,global,global,750,S,S,E,E,S-E.png,S-E.png,sS,sS,mask-3.png,mask-1.png,s,1,0.697613500058651,s,1,0.15611049998551607,0.05008730001281947,0.0503819000441581,0.10118329990655184,0.10082759999204427,0.7523145999293774
RSVPLG03,si,20260312-153208,1.0.2,20260219-152011,804,Experiment,Both,1,Automatic,main,65,20260312-153858,local,local,750,H,H,A,A,A-H.png,A-H.png,hH,hH,mask-1.png,mask-3.png,h,1,0.982670099940151,h,1,0.11679899995215237,0.048944300040602684,0.049938400043174624,0.1006630000192672,0.09901400003582239,0.7518168999813497
RSVPLG03,si,20260312-153208,1.0.2,20260219-152011,804,Experiment,Both,1,Automatic,main,66,20260312-153903,global,local,750,S,H,E,A,S-E.png,A-H.png,sS,hH,mask-2.png,mask-1.png,h,0,0.47656139999162406,h,1,0.1873331000097096,0.05173909990116954,0.05033320002257824,0.10019399994052947,0.10129470005631447,0.7524950999068096
RSVPLG03,si,20260312-153208,1.0.2,20260219-152011,804,Experiment,Both,1,Automatic,main,67,20260312-153908,local,global,750,H,S,E,A,E-H.png,S-A.png,hH,sS,mask-2.png,mask-3.png,h,1,0.5501676000421867,h,0,2.3215199999976903,0.053015299956314266,0.05033800005912781,0.09948810003697872,0.09874589997343719,0.7507603999692947
RSVPLG03,si,20260312-153208,1.0.2,20260219-152011,804,Experiment,Both,1,Automatic,main,68,20260312-153915,global,local,750,H,S,E,A,H-E.png,A-S.png,hH,sS,mask-1.png,mask-4.png,h,1,0.4830663000466302,s,1,0.7561792000196874,0.0500206999713555,0.050043500028550625,0.09882569999899715,0.09992850001435727,0.7520218000281602
RSVPLG03,si,20260312-153208,1.0.2,20260219-152011,804,Experiment,Both,1,Automatic,main,69,20260312-153921,local,local,750,H,S,E,A,E-H.png,A-S.png,hH,sS,mask-1.png,mask-3.png,h,1,0.8618018000852317,s,1,0.12372310005594045,0.04944069997873157,0.04993800004012883,0.0984956999309361,0.10118190001230687,0.7491313999053091
RSVPLG03,si,20260312-153208,1.0.2,20260219-152011,804,Experiment,Both,1,Automatic,main,70,20260312-153926,global,local,300,H,S,A,A,H-A.png,A-S.png,hH,sS,mask-4.png,mask-2.png,s,0,1.2257590000517666,h,0,0.24132390005979687,0.05115109996404499,0.05015040002763271,0.10136289999354631,0.1003513999748975,0.30159049993380904
RSVPLG03,si,20260312-153208,1.0.2,20260219-152011,804,Experiment,Both,1,Automatic,main,71,20260312-153931,global,local,300,H,H,E,E,H-E.png,E-H.png,hH,hH,mask-3.png,mask-3.png,h,1,0.6697541999164969,s,0,0.28241710003931075,0.05016509990673512,0.04916259995661676,0.1013986999168992,0.09915799996815622,0.30161369999404997
RSVPLG03,si,20260312-153208,1.0.2,20260219-152011,804,Experiment,Both,1,Automatic,main,72,20260312-153936,global,local,750,S,H,A,A,S-A.png,A-H.png,sS,hH,mask-1.png,mask-4.png,s,1,0.5943032999057323,h,1,0.1421597000444308,0.048140799975953996,0.0494561999803409,0.09911419998388737,0.09856760001275688,0.7504879999905825
RSVPLG03,si,20260312-153208,1.0.2,20260219-152011,804,Experiment,Both,1,Automatic,main,73,20260312-153941,local,local,300,H,H,A,A,A-H.png,A-H.png,hH,hH,mask-2.png,mask-2.png,h,1,1.5094040000112727,s,0,0.1592772000003606,0.051922100014053285,0.05013009998947382,0.10199699993245304,0.09939359989948571,0.30199810001067817
RSVPLG03,si,20260312-153208,1.0.2,20260219-152011,804,Experiment,Both,1,Automatic,main,74,20260312-153946,local,global,300,S,H,E,A,E-S.png,H-A.png,sS,hH,mask-1.png,mask-4.png,s,1,0.578545399941504,s,0,0.2150867999298498,0.04897619993425906,0.05095290008466691,0.09960590000264347,0.10086630005389452,0.2995578999398276
RSVPLG03,si,20260312-153208,1.0.2,20260219-152011,804,Experiment,Both,1,Automatic,main,75,20260312-153951,local,global,750,H,S,A,A,A-H.png,S-A.png,hH,sS,mask-4.png,mask-3.png,h,1,1.0629907000111416,s,1,0.05815609998535365,0.051741600036621094,0.050024299998767674,0.10111579997465014,0.10002400004304945,0.7528135000029579
RSVPLG03,si,20260312-153208,1.0.2,20260219-152011,804,Experiment,Both,1,Automatic,main,76,20260312-154044,global,local,300,H,S,E,E,H-E.png,E-S.png,hH,sS,mask-1.png,mask-1.png,h,1,0.617901699966751,s,1,0.058271899935789406,0.050007899990305305,0.049874700023792684,0.1013395000481978,0.10049430001527071,0.3012161999940872
RSVPLG03,si,20260312-153208,1.0.2,20260219-152011,804,Experiment,Both,1,Automatic,main,77,20260312-154049,local,global,300,H,H,E,A,E-H.png,H-A.png,hH,hH,mask-1.png,mask-1.png,h,1,0.9328098999103531,s,0,0.16985379997640848,0.048766500083729625,0.05028699990361929,0.09903120005037636,0.10082649998366833,0.297910200082697
RSVPLG03,si,20260312-153208,1.0.2,20260219-152011,804,Experiment,Both,1,Automatic,main,78,20260312-154053,global,local,750,S,S,A,A,S-A.png,A-S.png,sS,sS,mask-3.png,mask-3.png,s,1,0.6097760000266135,h,0,0.249318000045605,0.04870369995478541,0.04831660003401339,0.09887480002362281,0.09950630005914718,0.7520137999672443
RSVPLG03,si,20260312-153208,1.0.2,20260219-152011,804,Experiment,Both,1,Automatic,main,79,20260312-154059,local,local,750,S,S,E,E,E-S.png,E-S.png,sS,sS,mask-4.png,mask-3.png,h,0,0.7420543000334874,s,1,0.18640669994056225,0.05119709996506572,0.0511960000731051,0.10032309999223799,0.10063060000538826,0.7499978999840096
RSVPLG03,si,20260312-153208,1.0.2,20260219-152011,804,Experiment,Both,1,Automatic,main,80,20260312-154104,global,local,300,S,H,E,E,S-E.png,E-H.png,sS,hH,mask-1.png,mask-3.png,s,1,0.5010056000901386,s,0,0.2521340000675991,0.049480500048957765,0.04981310002040118,0.10067960002925247,0.1003400000045076,0.2997009999817237
RSVPLG03,si,20260312-153208,1.0.2,20260219-152011,804,Experiment,Both,1,Automatic,main,81,20260312-154108,local,local,300,S,H,A,A,A-S.png,A-H.png,sS,hH,mask-3.png,mask-4.png,h,0,0.5233924000058323,s,0,0.33365339995361865,0.05000990000553429,0.0498096999945119,0.0988684999756515,0.10005780006758869,0.29956590000074357
RSVPLG03,si,20260312-153208,1.0.2,20260219-152011,804,Experiment,Both,1,Automatic,main,82,20260312-154113,global,local,300,H,S,E,E,H-E.png,E-S.png,hH,sS,mask-2.png,mask-2.png,h,1,2.1061277999542654,s,1,0.14971280004829168,0.05076259991619736,0.04985790001228452,0.09900409996043891,0.10005559993442148,0.2998088999884203
RSVPLG03,si,20260312-153208,1.0.2,20260219-152011,804,Experiment,Both,1,Automatic,main,83,20260312-154119,local,local,300,H,H,E,A,E-H.png,A-H.png,hH,hH,mask-1.png,mask-4.png,h,1,0.7410120000131428,s,0,0.2752605000277981,0.04866590001620352,0.05123049998655915,0.0985215000109747,0.09861649991944432,0.3001859000651166
RSVPLG03,si,20260312-153208,1.0.2,20260219-152011,804,Experiment,Both,1,Automatic,main,84,20260312-154124,local,global,300,S,H,A,A,A-S.png,H-A.png,sS,hH,mask-1.png,mask-4.png,s,1,0.4052184000611305,s,0,0.9368997000856325,0.04882289993111044,0.04971280007157475,0.10007739998400211,0.1006863999646157,0.3005367999430746
RSVPLG03,si,20260312-153208,1.0.2,20260219-152011,804,Experiment,Both,1,Automatic,main,85,20260312-154129,global,global,300,H,H,A,A,H-A.png,H-A.png,hH,hH,mask-1.png,mask-3.png,h,1,1.4709997000172734,h,1,0.27754339994862676,0.05032400006894022,0.049005999928340316,0.10006550000980496,0.09858220000751317,0.3017906000604853
RSVPLG03,si,20260312-153208,1.0.2,20260219-152011,804,Experiment,Both,1,Automatic,main,86,20260312-154135,global,local,300,H,H,A,E,H-A.png,E-H.png,hH,hH,mask-4.png,mask-2.png,h,1,0.5036013999488205,s,0,0.2944132999982685,0.050713300006464124,0.05001879995688796,0.1014891000231728,0.09844349999912083,0.30227860005106777
RSVPLG03,si,20260312-153208,1.0.2,20260219-152011,804,Experiment,Both,1,Automatic,main,87,20260312-154139,global,global,750,H,H,E,A,H-E.png,H-A.png,hH,hH,mask-1.png,mask-2.png,h,1,0.7818239000625908,h,1,0.2589137000031769,0.051492200000211596,0.05221639992669225,0.10120679996907711,0.10011949995532632,0.7506208000704646
RSVPLG03,si,20260312-153208,1.0.2,20260219-152011,804,Experiment,Both,1,Automatic,main,88,20260312-154144,global,global,300,S,H,E,A,S-E.png,H-A.png,sS,hH,mask-1.png,mask-4.png,s,1,1.3337412000400946,h,1,0.3418240000028163,0.05007110000588,0.050044899922795594,0.10081670002546161,0.101262699929066,0.30002180009614676
RSVPLG03,si,20260312-153208,1.0.2,20260219-152011,804,Experiment,Both,1,Automatic,main,89,20260312-154150,global,global,300,H,H,E,A,H-E.png,H-A.png,hH,hH,mask-4.png,mask-4.png,h,1,1.450940000009723,h,1,0.23136659990996122,0.05109409999568015,0.04811079998034984,0.10204829997383058,0.0995262999786064,0.3030045999912545
RSVPLG03,si,20260312-153208,1.0.2,20260219-152011,804,Experiment,Both,1,Automatic,main,90,20260312-154155,global,local,300,S,H,E,A,S-E.png,A-H.png,sS,hH,mask-1.png,mask-2.png,s,1,0.35193380003329366,h,1,0.4776911000953987,0.04755809996277094,0.04996870004106313,0.0998927999753505,0.09980900003574789,0.29981080000288785
RSVPLG03,si,20260312-153208,1.0.2,20260219-152011,804,Experiment,Both,1,Automatic,main,91,20260312-154200,local,global,300,S,S,E,E,E-S.png,S-E.png,sS,sS,mask-1.png,mask-3.png,s,1,0.6271900999126956,h,0,0.9999283000361174,0.050221099983900785,0.051553099998272955,0.1007802999811247,0.10081969993188977,0.3005329000297934
RSVPLG03,si,20260312-153208,1.0.2,20260219-152011,804,Experiment,Both,1,Automatic,main,92,20260312-154205,local,local,300,S,H,A,A,A-S.png,A-H.png,sS,hH,mask-2.png,mask-3.png,s,1,0.5273050999967381,s,0,0.28885970008559525,0.050919000059366226,0.05177919997368008,0.1009868000401184,0.10011630004737526,0.30024030001368374
RSVPLG03,si,20260312-153208,1.0.2,20260219-152011,804,Experiment,Both,1,Automatic,main,93,20260312-154210,global,global,750,H,H,A,A,H-A.png,H-A.png,hH,hH,mask-2.png,mask-1.png,h,1,1.0102970999432728,s,0,0.22494210000149906,0.0495181999867782,0.051985700032673776,0.09903789998497814,0.10180940001737326,0.7488687000004575
RSVPLG03,si,20260312-153208,1.0.2,20260219-152011,804,Experiment,Both,1,Automatic,main,94,20260312-154215,global,global,300,H,H,E,A,H-E.png,H-A.png,hH,hH,mask-4.png,mask-3.png,h,1,0.534577100072056,h,1,0.20896809990517795,0.04838719998952001,0.04895470000337809,0.09842059994116426,0.09943169995676726,0.3007207999471575
RSVPLG03,si,20260312-153208,1.0.2,20260219-152011,804,Experiment,Both,1,Automatic,main,95,20260312-154220,global,global,750,S,H,E,A,S-E.png,H-A.png,sS,hH,mask-3.png,mask-2.png,h,0,0.8377014000434428,h,1,0.43281090003438294,0.051438999944366515,0.049693800043314695,0.10446699999738485,0.10011320002377033,0.751750799943693
RSVPLG03,si,20260312-153208,1.0.2,20260219-152011,804,Experiment,Both,1,Automatic,main,96,20260312-154225,local,global,750,S,H,E,E,E-S.png,H-E.png,sS,hH,mask-4.png,mask-1.png,s,1,0.8918387000449002,s,0,0.2900733998976648,0.05016270000487566,0.05117849993985146,0.10183280007913709,0.10220049996860325,0.7510760000441223
RSVPLG03,si,20260312-153208,1.0.2,20260219-152011,804,Experiment,Both,1,Automatic,main,97,20260312-154230,global,local,750,H,S,A,A,H-A.png,A-S.png,hH,sS,mask-2.png,mask-2.png,h,1,1.2281846000114456,s,1,1.88088399998378,0.04760849999729544,0.05102030001580715,0.09915839997120202,0.101094999932684,0.749205100000836
RSVPLG03,si,20260312-153208,1.0.2,20260219-152011,804,Experiment,Both,1,Automatic,main,98,20260312-154238,global,local,750,S,S,E,E,S-E.png,E-S.png,sS,sS,mask-1.png,mask-1.png,s,1,0.5067809999454767,s,1,0.7208892999915406,0.05157099990174174,0.04978899995330721,0.1005629999563098,0.09931629989296198,0.7527378000086173
RSVPLG03,si,20260312-153208,1.0.2,20260219-152011,804,Experiment,Both,1,Automatic,main,99,20260312-154243,local,local,750,S,S,A,A,A-S.png,A-S.png,sS,sS,mask-1.png,mask-1.png,s,1,0.822776100016199,h,0,0.9527415999909863,0.04961750004440546,0.048942399909719825,0.09997030009981245,0.10105810000095516,0.7512663000961766
RSVPLG03,si,20260312-153208,1.0.2,20260219-152011,804,Experiment,Both,1,Automatic,main,100,20260312-154249,global,local,750,H,H,E,E,H-E.png,E-H.png,hH,hH,mask-2.png,mask-4.png,h,1,0.4173360000131652,h,1,0.27112250006757677,0.04907560010906309,0.049866000073961914,0.09901230002287775,0.1007994000101462,0.7514078000094742
RSVPLG03,si,20260312-154319,1.0.2,20260219-152011,804,Experiment,Both,1,Automatic,warmup,1,20260312-154351,local,global,300,S,S,E,E,E-S.png,S-E.png,sS,sS,mask-1.png,mask-1.png,s,1,0.4394429000094533,s,1,0.1591609000461176,0.039962599985301495,0.050683600013144314,0.0886821000603959,0.09988200000952929,0.28843770001549274
RSVPLG03,si,20260312-154319,1.0.2,20260219-152011,804,Experiment,Both,1,Automatic,warmup,2,20260312-154355,global,local,750,H,H,E,A,H-E.png,A-H.png,hH,hH,mask-1.png,mask-1.png,h,1,0.6695711000356823,h,1,2.4074487999314442,0.05069579998962581,0.04762119997758418,0.10005539993289858,0.09754270000848919,0.7495768999215215
RSVPLG03,si,20260312-154319,1.0.2,20260219-152011,804,Experiment,Both,1,Automatic,warmup,3,20260312-154402,local,local,750,H,S,A,E,A-H.png,E-S.png,hH,sS,mask-2.png,mask-1.png,h,1,0.7094469000585377,s,1,0.19344260008074343,0.048877599998377264,0.04943969997111708,0.0994787000818178,0.09956010000314564,0.7486022000666708
RSVPLG03,si,20260312-154319,1.0.2,20260219-152011,804,Experiment,Both,1,Automatic,warmup,4,20260312-154407,local,local,300,S,S,A,A,A-S.png,A-S.png,sS,sS,mask-2.png,mask-2.png,s,1,0.841585399932228,s,1,0.1599587999517098,0.05089159996714443,0.05030620004981756,0.10121389990672469,0.0978639000095427,0.30145349993836135
RSVPLG03,si,20260312-154319,1.0.2,20260219-152011,804,Experiment,Both,1,Automatic,main,5,20260312-154412,local,global,300,S,H,A,E,A-S.png,H-E.png,sS,hH,mask-1.png,mask-3.png,s,1,0.6693796999752522,h,1,0.14284240000415593,0.04986150003969669,0.04951709997840226,0.10076639999169856,0.09818930004257709,0.30060600000433624
RSVPLG03,si,20260312-154319,1.0.2,20260219-152011,804,Experiment,Both,1,Automatic,main,6,20260312-154417,local,global,300,S,S,E,A,E-S.png,S-A.png,sS,sS,mask-3.png,mask-3.png,s,1,1.2129085001070052,s,1,0.09693589992821217,0.048203700105659664,0.049052200047299266,0.10098270000889897,0.09915860008914024,0.2994765000184998
RSVPLG03,si,20260312-154319,1.0.2,20260219-152011,804,Experiment,Both,1,Automatic,main,7,20260312-154422,global,local,750,S,S,A,A,S-A.png,A-S.png,sS,sS,mask-2.png,mask-1.png,h,0,1.4014095000457019,s,1,0.1673497000010684,0.049090699991211295,0.05004569992888719,0.09939750004559755,0.10045329993590713,0.7480807000538334
RSVPLG03,si,20260312-154319,1.0.2,20260219-152011,804,Experiment,Both,1,Automatic,main,8,20260312-154428,global,local,750,S,H,E,A,S-E.png,A-H.png,sS,hH,mask-3.png,mask-3.png,h,0,0.9961075000464916,h,1,0.44373379996977746,0.04993560002185404,0.04941490001510829,0.10089630004949868,0.09930370002985,0.7496867999434471
RSVPLG03,si,20260312-154319,1.0.2,20260219-152011,804,Experiment,Both,1,Automatic,main,9,20260312-154433,local,local,300,S,S,A,A,A-S.png,A-S.png,sS,sS,mask-2.png,mask-4.png,s,1,0.4888464000541717,s,1,0.3210747999837622,0.05033060000278056,0.05238170002121478,0.10198299994226545,0.09927640005480498,0.29980509995948523
RSVPLG03,si,20260312-154319,1.0.2,20260219-152011,804,Experiment,Both,1,Automatic,main,10,20260312-154438,local,local,750,S,S,E,E,E-S.png,E-S.png,sS,sS,mask-3.png,mask-3.png,s,1,0.5457316000247374,s,1,0.2690829000202939,0.05166080000344664,0.04962129995692521,0.10114909999538213,0.09969009994529188,0.7509421999566257
RSVPLG03,si,20260312-154319,1.0.2,20260219-152011,804,Experiment,Both,1,Automatic,main,11,20260312-154443,global,local,300,H,H,E,A,H-E.png,A-H.png,hH,hH,mask-1.png,mask-4.png,h,1,1.6334020999493077,s,0,0.31019170000217855,0.04909869993571192,0.048816700000315905,0.09997949993703514,0.10052010009530932,0.299905699910596
RSVPLG03,si,20260312-154319,1.0.2,20260219-152011,804,Experiment,Both,1,Automatic,main,12,20260312-154448,local,local,750,S,H,E,E,E-S.png,E-H.png,sS,hH,mask-1.png,mask-1.png,s,1,0.5094078999245539,h,1,0.2253457000479102,0.049945599981583655,0.049917500000447035,0.09866769996006042,0.10039440006949008,0.7473486999515444
RSVPLG03,si,20260312-154319,1.0.2,20260219-152011,804,Experiment,Both,1,Automatic,main,13,20260312-154453,local,global,750,S,H,A,A,A-S.png,H-A.png,sS,hH,mask-4.png,mask-1.png,h,0,0.8644387000240386,s,0,0.1621445999480784,0.04996939992997795,0.05089650000445545,0.10006689990404993,0.09945620002690703,0.7484911999199539
RSVPLG03,si,20260312-154319,1.0.2,20260219-152011,804,Experiment,Both,1,Automatic,main,14,20260312-154459,local,global,300,H,S,A,A,A-H.png,S-A.png,hH,sS,mask-4.png,mask-2.png,s,0,3.8397351000458,s,1,0.15326859999913722,0.051884999964386225,0.047909699962474406,0.10099649999756366,0.09807130007538944,0.30226779996883124
RSVPLG03,si,20260312-154319,1.0.2,20260219-152011,804,Experiment,Both,1,Automatic,main,15,20260312-154506,local,global,750,S,H,A,E,A-S.png,H-E.png,sS,hH,mask-3.png,mask-3.png,h,0,1.9874487000051886,s,0,0.14516409998759627,0.05055069993250072,0.04864799999631941,0.09897149994503707,0.09883539995644242,0.7506776000373065
RSVPLG03,si,20260312-154319,1.0.2,20260219-152011,804,Experiment,Both,1,Automatic,main,16,20260312-154512,global,global,300,S,S,E,A,S-E.png,S-A.png,sS,sS,mask-2.png,mask-1.png,h,0,2.9819298000074923,s,1,0.39960220002103597,0.0484089000383392,0.049237099941819906,0.09966720000375062,0.10008769994601607,0.29891840007621795
RSVPLG03,si,20260312-154319,1.0.2,20260219-152011,804,Experiment,Both,1,Automatic,main,17,20260312-154520,global,local,300,H,H,A,E,H-A.png,E-H.png,hH,hH,mask-3.png,mask-3.png,s,0,0.7943333999719471,s,0,0.22372240002732724,0.04942749999463558,0.049160399939864874,0.09739569993689656,0.0998425999423489,0.29862180002965033
RSVPLG03,si,20260312-154319,1.0.2,20260219-152011,804,Experiment,Both,1,Automatic,main,18,20260312-154525,local,global,750,H,H,A,E,A-H.png,H-E.png,hH,hH,mask-4.png,mask-2.png,h,1,1.1691064999904484,s,0,0.07654569996520877,0.051686800085008144,0.04970360000152141,0.09970650007016957,0.09924879996106029,0.7490761000663042
RSVPLG03,si,20260312-154319,1.0.2,20260219-152011,804,Experiment,Both,1,Automatic,main,19,20260312-154530,local,local,300,H,H,A,A,A-H.png,A-H.png,hH,hH,mask-2.png,mask-4.png,h,1,0.7736195999896154,h,1,0.8892354000126943,0.04942589998245239,0.05014669999945909,0.09988369990605861,0.10107330000028014,0.29832709999755025
RSVPLG03,si,20260312-154319,1.0.2,20260219-152011,804,Experiment,Both,1,Automatic,main,20,20260312-154535,local,local,300,H,H,E,E,E-H.png,E-H.png,hH,hH,mask-3.png,mask-1.png,s,0,0.9377683999482542,h,1,0.3561874999431893,0.04944120009895414,0.0513314000563696,0.10015630000270903,0.10147560003679246,0.2991110000293702
RSVPLG03,si,20260312-154319,1.0.2,20260219-152011,804,Experiment,Both,1,Automatic,main,21,20260312-154541,global,local,300,H,S,A,A,H-A.png,A-S.png,hH,sS,mask-3.png,mask-1.png,h,1,3.0859865999082103,s,1,0.3129105999832973,0.05082310002762824,0.048551499960012734,0.09922430000733584,0.1022741999477148,0.30094750004354864
RSVPLG03,si,20260312-154319,1.0.2,20260219-152011,804,Experiment,Both,1,Automatic,main,22,20260312-154548,local,global,750,S,S,A,E,A-S.png,S-E.png,sS,sS,mask-1.png,mask-4.png,s,1,0.9598894999362528,h,0,2.564215900027193,0.05060539999976754,0.04863810003735125,0.10044210008345544,0.0977669000858441,0.7509765999857336
RSVPLG03,si,20260312-154319,1.0.2,20260219-152011,804,Experiment,Both,1,Automatic,main,23,20260312-154556,global,global,300,H,S,E,A,H-E.png,S-A.png,hH,sS,mask-1.png,mask-2.png,s,0,0.5975137000204995,s,1,0.5922433000523597,0.05147390009369701,0.05128410004545003,0.10073100007139146,0.10198370006401092,0.30040519998874515
RSVPLG03,si,20260312-154319,1.0.2,20260219-152011,804,Experiment,Both,1,Automatic,main,24,20260312-154601,local,global,750,H,S,E,A,E-H.png,S-A.png,hH,sS,mask-3.png,mask-1.png,h,1,3.9085969999432564,s,1,0.11990639998111874,0.04890019993763417,0.05205870000645518,0.09883539995644242,0.09985160001087934,0.7470427999505773
RSVPLG03,si,20260312-154319,1.0.2,20260219-152011,804,Experiment,Both,1,Automatic,main,25,20260312-154609,local,global,750,S,H,A,A,A-S.png,H-A.png,sS,hH,mask-2.png,mask-4.png,s,1,1.0511422998970374,s,0,1.0736699999542907,0.05397040001116693,0.04921289999037981,0.10070920002181083,0.1020843000151217,0.7492310999659821
RSVPLG03,si,20260312-154319,1.0.2,20260219-152011,804,Experiment,Both,1,Automatic,main,26,20260312-154632,local,local,750,S,H,A,A,A-S.png,A-H.png,sS,hH,mask-4.png,mask-2.png,s,1,0.6040812000865117,h,1,0.11757999996189028,0.04987570003140718,0.049992899992503226,0.09918890008702874,0.09842970001045614,0.7492955999914557
RSVPLG03,si,20260312-154319,1.0.2,20260219-152011,804,Experiment,Both,1,Automatic,main,27,20260312-154637,global,local,750,H,H,E,E,H-E.png,E-H.png,hH,hH,mask-1.png,mask-2.png,h,1,0.8581249999115244,h,1,0.09810319996904582,0.05007100000511855,0.050794499926269054,0.10085809999145567,0.10065709997434169,0.7494814000092447
RSVPLG03,si,20260312-154319,1.0.2,20260219-152011,804,Experiment,Both,1,Automatic,main,28,20260312-154642,local,local,750,S,H,A,A,A-S.png,A-H.png,sS,hH,mask-4.png,mask-4.png,s,1,0.40028659999370575,s,0,0.333456699969247,0.05109000008087605,0.050276300054974854,0.09967970009893179,0.1012155000353232,0.7483031000010669
RSVPLG03,si,20260312-154319,1.0.2,20260219-152011,804,Experiment,Both,1,Automatic,main,29,20260312-154647,global,local,750,H,H,A,E,H-A.png,E-H.png,hH,hH,mask-3.png,mask-1.png,h,1,0.5389682999812067,h,1,0.5612179999006912,0.04802470002323389,0.049538300023414195,0.09931270009838045,0.09877039992716163,0.7480686000781134
RSVPLG03,si,20260312-154319,1.0.2,20260219-152011,804,Experiment,Both,1,Automatic,main,30,20260312-154652,local,global,750,H,H,E,E,E-H.png,H-E.png,hH,hH,mask-3.png,mask-2.png,h,1,0.6805428999941796,h,1,0.4935539999278262,0.05115119996480644,0.051200499990954995,0.10134139994625002,0.10215020005125552,0.7487971999216825
RSVPLG03,si,20260312-154319,1.0.2,20260219-152011,804,Experiment,Both,1,Automatic,main,31,20260312-154658,global,global,750,H,H,E,E,H-E.png,H-E.png,hH,hH,mask-4.png,mask-1.png,h,1,0.6252604000037536,h,1,0.14284450002014637,0.04937459994107485,0.04969600006006658,0.09913919994141906,0.09995880001224577,0.7478229999542236
RSVPLG03,si,20260312-154319,1.0.2,20260219-152011,804,Experiment,Both,1,Automatic,main,32,20260312-154703,global,local,300,H,H,E,E,H-E.png,E-H.png,hH,hH,mask-1.png,mask-4.png,h,1,0.9809428000589833,s,0,0.18395029997918755,0.04917280003428459,0.05068700003903359,0.09918949997518212,0.10078670002985746,0.29839499993249774
RSVPLG03,si,20260312-154319,1.0.2,20260219-152011,804,Experiment,Both,1,Automatic,main,33,20260312-154708,local,local,300,S,H,A,E,A-S.png,E-H.png,sS,hH,mask-3.png,mask-4.png,s,1,0.49290189996827394,s,0,0.12518149998504668,0.04980719997547567,0.049425599980168045,0.09938390005845577,0.09948189998976886,0.2999073000391945
RSVPLG03,si,20260312-154319,1.0.2,20260219-152011,804,Experiment,Both,1,Automatic,main,34,20260312-154712,global,global,750,H,H,A,E,H-A.png,H-E.png,hH,hH,mask-1.png,mask-3.png,h,1,4.445330200018361,h,1,0.137484599952586,0.048206100007519126,0.05089459998998791,0.09895949997007847,0.09866890008561313,0.7479744999436662
RSVPLG03,si,20260312-154319,1.0.2,20260219-152011,804,Experiment,Both,1,Automatic,main,35,20260312-154720,global,local,750,S,S,A,A,S-A.png,A-S.png,sS,sS,mask-2.png,mask-3.png,s,1,0.3058908999664709,s,1,0.1306524999672547,0.04999580001458526,0.049728100071661174,0.10163640009704977,0.09807220008224249,0.7510721000144258
RSVPLG03,si,20260312-154319,1.0.2,20260219-152011,804,Experiment,Both,1,Automatic,main,36,20260312-154725,global,local,750,H,S,E,A,H-E.png,A-S.png,hH,sS,mask-4.png,mask-2.png,s,0,4.090697000036016,s,1,0.055867700022645295,0.05070990009699017,0.050806400016881526,0.10076070006471127,0.1011459999717772,0.7485365000320598
RSVPLG03,si,20260312-154319,1.0.2,20260219-152011,804,Experiment,Both,1,Automatic,main,37,20260312-154733,local,local,750,H,H,A,E,A-H.png,E-H.png,hH,hH,mask-2.png,mask-2.png,h,1,0.3191576999379322,h,1,0.09795470000244677,0.048280499991960824,0.049770900048315525,0.09693900006823242,0.09872709994670004,0.7478653000434861
RSVPLG03,si,20260312-154319,1.0.2,20260219-152011,804,Experiment,Both,1,Automatic,main,38,20260312-154738,global,local,300,S,S,A,A,S-A.png,A-S.png,sS,sS,mask-4.png,mask-2.png,h,0,1.5450953000690788,s,1,0.19137330004014075,0.0485329000512138,0.048695200006477535,0.09853399998974055,0.0997334000421688,0.29916950000915676
RSVPLG03,si,20260312-154319,1.0.2,20260219-152011,804,Experiment,Both,1,Automatic,main,39,20260312-154743,global,global,750,S,H,E,E,S-E.png,H-E.png,sS,hH,mask-1.png,mask-3.png,s,1,1.3302408000454307,s,0,0.19712160003837198,0.049167699995450675,0.049346999963745475,0.09810289996676147,0.09834479994606227,0.7483068000292405
RSVPLG03,si,20260312-154319,1.0.2,20260219-152011,804,Experiment,Both,1,Automatic,main,40,20260312-154749,local,global,300,S,H,A,E,A-S.png,H-E.png,sS,hH,mask-1.png,mask-3.png,s,1,0.7687014000257477,s,0,0.7860259999288246,0.04937030002474785,0.04986789997201413,0.09830870002042502,0.1008225999539718,0.2985490000573918
RSVPLG03,si,20260312-154319,1.0.2,20260219-152011,804,Experiment,Both,1,Automatic,main,41,20260312-154754,global,global,300,H,S,A,A,H-A.png,S-A.png,hH,sS,mask-2.png,mask-4.png,h,1,1.4831647999817505,s,1,0.11144999996758997,0.04950169997755438,0.05068160011433065,0.10263049998320639,0.09989180008415133,0.30061519995797426
RSVPLG03,si,20260312-154319,1.0.2,20260219-152011,804,Experiment,Both,1,Automatic,main,42,20260312-154800,local,global,300,S,S,A,A,A-S.png,S-A.png,sS,sS,mask-4.png,mask-4.png,s,1,1.2152312999824062,h,0,0.27314629999455065,0.05097280000336468,0.04819360002875328,0.09996090002823621,0.09768410003744066,0.30063429998699576
RSVPLG03,si,20260312-154319,1.0.2,20260219-152011,804,Experiment,Both,1,Automatic,main,43,20260312-154805,local,local,750,S,S,A,A,A-S.png,A-S.png,sS,sS,mask-3.png,mask-2.png,s,1,0.3871837999904528,s,1,0.1846232000971213,0.047588399960659444,0.050840199925005436,0.09758669999428093,0.10094949998892844,0.7472334000049159
RSVPLG03,si,20260312-154319,1.0.2,20260219-152011,804,Experiment,Both,1,Automatic,main,44,20260312-154810,global,global,300,H,S,A,A,H-A.png,S-A.png,hH,sS,mask-3.png,mask-1.png,h,1,1.291842699982226,s,1,0.2966632000170648,0.05153890000656247,0.04931629996281117,0.10138210002332926,0.10061369999311864,0.3002341000828892
RSVPLG03,si,20260312-154319,1.0.2,20260219-152011,804,Experiment,Both,1,Automatic,main,45,20260312-154815,local,local,750,S,H,A,A,A-S.png,A-H.png,sS,hH,mask-4.png,mask-3.png,s,1,0.4927794999675825,h,1,0.34821810002904385,0.05189370003063232,0.05047999997623265,0.10113219998311251,0.09881160000804812,0.7503361999988556
RSVPLG03,si,20260312-154319,1.0.2,20260219-152011,804,Experiment,Both,1,Automatic,main,46,20260312-154820,global,local,300,H,H,A,A,H-A.png,A-H.png,hH,hH,mask-1.png,mask-4.png,h,1,1.439908199943602,s,0,0.3260293999919668,0.04977030004374683,0.049505500006489456,0.10011180001311004,0.09914210007991642,0.29875379998702556
RSVPLG03,si,20260312-154319,1.0.2,20260219-152011,804,Experiment,Both,1,Automatic,main,47,20260312-154826,local,local,300,S,H,E,E,E-S.png,E-H.png,sS,hH,mask-1.png,mask-3.png,s,1,1.0694098999956623,h,1,0.852445499971509,0.05093789997044951,0.04878240008838475,0.09992629999760538,0.09921320003923029,0.2998805999523029
RSVPLG03,si,20260312-154319,1.0.2,20260219-152011,804,Experiment,Both,1,Automatic,main,48,20260312-154832,global,global,750,H,S,E,A,H-E.png,S-A.png,hH,sS,mask-3.png,mask-3.png,h,1,0.8211966999806464,s,1,0.3870390000520274,0.050686500035226345,0.049758999957703054,0.10050870000850409,0.1006010000128299,0.7485597000923008
RSVPLG03,si,20260312-154319,1.0.2,20260219-152011,804,Experiment,Both,1,Automatic,main,49,20260312-154837,global,global,750,H,H,A,E,H-A.png,H-E.png,hH,hH,mask-1.png,mask-1.png,h,1,1.204361299984157,s,0,0.34674829989671707,0.04823640000540763,0.050276000052690506,0.09809210000094026,0.10044940002262592,0.7480395999737084
RSVPLG03,si,20260312-154319,1.0.2,20260219-152011,804,Experiment,Both,1,Automatic,main,50,20260312-154843,local,local,750,S,S,A,A,A-S.png,A-S.png,sS,sS,mask-1.png,mask-1.png,h,0,1.4470351999625564,s,1,0.1951785999117419,0.05126330000348389,0.04962179996073246,0.10084179998375475,0.09875000000465661,0.7505248000379652
RSVPLG03,si,20260312-154319,1.0.2,20260219-152011,804,Experiment,Both,1,Automatic,main,51,20260312-154925,local,global,300,S,H,A,E,A-S.png,H-E.png,sS,hH,mask-2.png,mask-1.png,h,0,1.0338076999178156,h,1,0.1008355999365449,0.04950799990911037,0.04897739994339645,0.09957149997353554,0.0988497999496758,0.29978869995102286
RSVPLG03,si,20260312-154319,1.0.2,20260219-152011,804,Experiment,Both,1,Automatic,main,52,20260312-154930,global,local,300,S,H,E,E,S-E.png,E-H.png,sS,hH,mask-1.png,mask-2.png,h,0,3.2326047000242397,h,1,0.12936970009468496,0.05113919998984784,0.05054029996972531,0.10038499999791384,0.10160249995533377,0.29899520007893443
RSVPLG03,si,20260312-154319,1.0.2,20260219-152011,804,Experiment,Both,1,Automatic,main,53,20260312-154937,local,global,300,H,H,E,E,E-H.png,H-E.png,hH,hH,mask-3.png,mask-2.png,h,1,1.0569436999503523,h,1,0.35064419999253005,0.04940390004776418,0.05009030003566295,0.10005750006530434,0.10235230007674545,0.2986197000136599
RSVPLG03,si,20260312-154319,1.0.2,20260219-152011,804,Experiment,Both,1,Automatic,main,54,20260312-154942,global,global,750,S,S,A,A,S-A.png,S-A.png,sS,sS,mask-4.png,mask-4.png,s,1,0.5488995000487193,s,1,0.1691592000424862,0.04989859997294843,0.052768200053833425,0.09973699995316565,0.10006600001361221,0.7484575998969376
RSVPLG03,si,20260312-154319,1.0.2,20260219-152011,804,Experiment,Both,1,Automatic,main,55,20260312-154947,local,global,300,H,S,A,E,A-H.png,S-E.png,hH,sS,mask-1.png,mask-3.png,h,1,0.3900206000544131,h,0,0.1681343000382185,0.04948460008017719,0.05096239992417395,0.09865550009999424,0.10033990000374615,0.29835570009890944
RSVPLG03,si,20260312-154319,1.0.2,20260219-152011,804,Experiment,Both,1,Automatic,main,56,20260312-154951,local,global,750,S,S,A,E,A-S.png,S-E.png,sS,sS,mask-1.png,mask-2.png,s,1,0.6295624000485986,h,0,0.37697610002942383,0.048806400038301945,0.048893900006078184,0.09953979996498674,0.09895180002786219,0.7469106999924406
RSVPLG03,si,20260312-154319,1.0.2,20260219-152011,804,Experiment,Both,1,Automatic,main,57,20260312-154957,local,local,300,H,H,E,E,E-H.png,E-H.png,hH,hH,mask-2.png,mask-3.png,h,1,0.9051354000112042,s,0,0.17688199994154274,0.051036300021223724,0.05115840001963079,0.10106320003978908,0.10138040001038462,0.2999237000476569
RSVPLG03,si,20260312-154319,1.0.2,20260219-152011,804,Experiment,Both,1,Automatic,main,58,20260312-155001,local,global,300,S,H,E,A,E-S.png,H-A.png,sS,hH,mask-1.png,mask-3.png,s,1,0.5454661999829113,h,1,0.33508670004084706,0.0500824999762699,0.05116320005618036,0.10147150000557303,0.09968069999013096,0.29983459995128214
RSVPLG03,si,20260312-154319,1.0.2,20260219-152011,804,Experiment,Both,1,Automatic,main,59,20260312-155006,local,local,750,S,H,E,A,E-S.png,A-H.png,sS,hH,mask-2.png,mask-1.png,h,0,0.9122102999826893,s,0,0.2462276000296697,0.05180430004838854,0.050124799949117005,0.10091410006862134,0.10000390000641346,0.7502977000549436
RSVPLG03,si,20260312-154319,1.0.2,20260219-152011,804,Experiment,Both,1,Automatic,main,60,20260312-155011,global,local,300,H,H,A,A,H-A.png,A-H.png,hH,hH,mask-4.png,mask-2.png,h,1,0.8549332999391481,s,0,0.025115200085565448,0.05105330003425479,0.04887409997172654,0.10213640006259084,0.09925909992307425,0.2999125000787899
RSVPLG03,si,20260312-154319,1.0.2,20260219-152011,804,Experiment,Both,1,Automatic,main,61,20260312-155016,global,global,300,H,H,E,A,H-E.png,H-A.png,hH,hH,mask-4.png,mask-4.png,h,1,0.4688760000281036,h,1,0.5494269999908283,0.04971410008147359,0.04993910004850477,0.10125910001806915,0.100607700063847,0.2991860000183806
RSVPLG03,si,20260312-154319,1.0.2,20260219-152011,804,Experiment,Both,1,Automatic,main,62,20260312-155021,global,global,300,S,S,A,E,S-A.png,S-E.png,sS,sS,mask-1.png,mask-4.png,s,1,0.5819290999788791,h,0,0.6127899000421166,0.05089720000978559,0.050201899954117835,0.10136089997831732,0.09966359997633845,0.30017309996765107
RSVPLG03,si,20260312-154319,1.0.2,20260219-152011,804,Experiment,Both,1,Automatic,main,63,20260312-155026,local,global,300,S,S,E,A,E-S.png,S-A.png,sS,sS,mask-3.png,mask-2.png,s,1,0.6895595999667421,s,1,0.1360899000428617,0.04912670003250241,0.049286199966445565,0.09897649998310953,0.09957429999485612,0.29884790000505745
RSVPLG03,si,20260312-154319,1.0.2,20260219-152011,804,Experiment,Both,1,Automatic,main,64,20260312-155030,local,local,750,H,H,E,A,E-H.png,A-H.png,hH,hH,mask-1.png,mask-1.png,h,1,1.8574470999883488,s,0,0.2405714999185875,0.048324799980036914,0.04755630006548017,0.09917750000022352,0.09685440000612289,0.7502588999923319
RSVPLG03,si,20260312-154319,1.0.2,20260219-152011,804,Experiment,Both,1,Automatic,main,65,20260312-155037,global,local,750,H,S,A,A,H-A.png,A-S.png,hH,sS,mask-1.png,mask-2.png,h,1,0.43020740000065416,h,0,0.280899400007911,0.04977619997225702,0.049950300017371774,0.09972930001094937,0.09888449998106807,0.7511113999644294
RSVPLG03,si,20260312-154319,1.0.2,20260219-152011,804,Experiment,Both,1,Automatic,main,66,20260312-155041,global,global,750,H,H,E,A,H-E.png,H-A.png,hH,hH,mask-3.png,mask-4.png,h,1,0.43056210002396256,h,1,0.12130780005827546,0.0475370999192819,0.05086780001875013,0.09854639996774495,0.10130530002061278,0.7461059999186546
RSVPLG03,si,20260312-154319,1.0.2,20260219-152011,804,Experiment,Both,1,Automatic,main,67,20260312-155046,global,local,750,H,H,E,E,H-E.png,E-H.png,hH,hH,mask-3.png,mask-3.png,h,1,0.9100805999478325,s,0,0.08971790003124624,0.05019800004083663,0.05056719994172454,0.10002509993501008,0.10161319992039353,0.7489771000109613
RSVPLG03,si,20260312-154319,1.0.2,20260219-152011,804,Experiment,Both,1,Automatic,main,68,20260312-155051,global,global,750,S,H,A,E,S-A.png,H-E.png,sS,hH,mask-2.png,mask-1.png,s,1,0.7365348000312224,h,1,0.2380303000099957,0.04997860000003129,0.0492880999809131,0.10084009997081012,0.09881710004992783,0.7514795999741182
RSVPLG03,si,20260312-154319,1.0.2,20260219-152011,804,Experiment,Both,1,Automatic,main,69,20260312-155056,global,local,750,S,H,E,E,S-E.png,E-H.png,sS,hH,mask-2.png,mask-3.png,s,1,0.7492724999319762,h,1,0.20882780000101775,0.05079520004801452,0.049708600039593875,0.10079629998654127,0.09985450003296137,0.7492965999990702
RSVPLG03,si,20260312-154319,1.0.2,20260219-152011,804,Experiment,Both,1,Automatic,main,70,20260312-155102,local,global,750,S,H,E,A,E-S.png,H-A.png,sS,hH,mask-4.png,mask-3.png,s,1,0.5734993999358267,h,1,0.13726330001372844,0.05206309992354363,0.04921580001246184,0.10130949993617833,0.09747839998453856,0.7513295999960974
RSVPLG03,si,20260312-154319,1.0.2,20260219-152011,804,Experiment,Both,1,Automatic,main,71,20260312-155106,global,local,300,S,H,A,A,S-A.png,A-H.png,sS,hH,mask-3.png,mask-1.png,h,0,0.8615677999332547,s,0,0.05719139997381717,0.04944390000309795,0.05013889994006604,0.09982380003202707,0.09983820002526045,0.2990258000791073
RSVPLG03,si,20260312-154319,1.0.2,20260219-152011,804,Experiment,Both,1,Automatic,main,72,20260312-155111,global,global,750,S,S,E,E,S-E.png,S-E.png,sS,sS,mask-2.png,mask-1.png,s,1,1.0884329999098554,h,0,0.22553059994243085,0.049968999926932156,0.050070299999788404,0.10101479990407825,0.10187479993328452,0.747780799982138
RSVPLG03,si,20260312-154319,1.0.2,20260219-152011,804,Experiment,Both,1,Automatic,main,73,20260312-155116,local,local,300,S,H,A,A,A-S.png,A-H.png,sS,hH,mask-2.png,mask-4.png,s,1,0.9149203998968005,h,1,0.18525900004897267,0.04810150002595037,0.04856089991517365,0.10028950008563697,0.09929299994837493,0.2996540000895038
RSVPLG03,si,20260312-154319,1.0.2,20260219-152011,804,Experiment,Both,1,Automatic,main,74,20260312-155121,global,global,750,S,H,E,A,S-E.png,H-A.png,sS,hH,mask-3.png,mask-1.png,s,1,0.4041890000225976,s,0,0.20442850003018975,0.05026050005108118,0.04990049998741597,0.09966740000527352,0.09994039998855442,0.7487877999665216
RSVPLG03,si,20260312-154319,1.0.2,20260219-152011,804,Experiment,Both,1,Automatic,main,75,20260312-155126,global,global,750,H,S,E,A,H-E.png,S-A.png,hH,sS,mask-2.png,mask-2.png,h,1,0.7564455999527127,s,1,0.2478790000313893,0.04944690002594143,0.05095209996215999,0.09988610004074872,0.0994827999966219,0.7473277000244707
RSVPLG03,si,20260312-154319,1.0.2,20260219-152011,804,Experiment,Both,1,Automatic,main,76,20260312-155221,local,global,750,H,H,A,A,A-H.png,H-A.png,hH,hH,mask-1.png,mask-1.png,h,1,0.5185945000266656,h,1,0.15700600005220622,0.04944649990648031,0.048582399962469935,0.0991835999302566,0.09772299998439848,0.7490889999317005
RSVPLG03,si,20260312-154319,1.0.2,20260219-152011,804,Experiment,Both,1,Automatic,main,77,20260312-155226,global,global,300,S,H,E,A,S-E.png,H-A.png,sS,hH,mask-2.png,mask-1.png,s,1,0.5709726000204682,h,1,0.2785330999176949,0.05109319998882711,0.049090599990449846,0.09883249993436038,0.09994989994447678,0.2994777000276372
RSVPLG03,si,20260312-154319,1.0.2,20260219-152011,804,Experiment,Both,1,Automatic,main,78,20260312-155230,global,local,300,S,H,A,E,S-A.png,E-H.png,sS,hH,mask-1.png,mask-2.png,s,1,0.5599034999031574,s,0,0.3461776999756694,0.05172290001064539,0.05002289998810738,0.10063480003736913,0.09993340005166829,0.3008319999789819
RSVPLG03,si,20260312-154319,1.0.2,20260219-152011,804,Experiment,Both,1,Automatic,main,79,20260312-155235,local,local,300,H,S,E,E,E-H.png,E-S.png,hH,sS,mask-3.png,mask-4.png,h,1,0.5810337000293657,s,1,0.2097018000204116,0.04950010008178651,0.05022520001512021,0.09855590004008263,0.09963920002337545,0.2986059000249952
RSVPLG03,si,20260312-154319,1.0.2,20260219-152011,804,Experiment,Both,1,Automatic,main,80,20260312-155239,local,local,300,S,H,E,A,E-S.png,A-H.png,sS,hH,mask-3.png,mask-4.png,s,1,0.7827846000436693,h,1,0.2241904999827966,0.050163600011728704,0.050173599971458316,0.09892649995163083,0.10124560003168881,0.29787030001170933
RSVPLG03,si,20260312-154319,1.0.2,20260219-152011,804,Experiment,Both,1,Automatic,main,81,20260312-155244,local,global,300,H,H,A,E,A-H.png,H-E.png,hH,hH,mask-1.png,mask-1.png,h,1,0.6409330000169575,h,1,0.11126880010124296,0.047818000079132617,0.04903240001294762,0.09880170004907995,0.10031370003707707,0.2977272999705747
RSVPLG03,si,20260312-154319,1.0.2,20260219-152011,804,Experiment,Both,1,Automatic,main,82,20260312-155248,global,local,750,H,S,E,E,H-E.png,E-S.png,hH,sS,mask-3.png,mask-3.png,h,1,0.653705200063996,h,0,0.14012340002227575,0.0486697000451386,0.04650799999944866,0.09975070005748421,0.09843419992830604,0.7509115000721067
RSVPLG03,si,20260312-154319,1.0.2,20260219-152011,804,Experiment,Both,1,Automatic,main,83,20260312-155253,local,local,300,H,S,A,E,A-H.png,E-S.png,hH,sS,mask-2.png,mask-4.png,h,1,0.5594978000735864,s,1,0.2110100999707356,0.04848720005247742,0.04938480001874268,0.09828979999292642,0.0996031000977382,0.2985225999727845
RSVPLG03,si,20260312-154319,1.0.2,20260219-152011,804,Experiment,Both,1,Automatic,main,84,20260312-155258,local,global,750,S,S,E,E,E-S.png,S-E.png,sS,sS,mask-1.png,mask-4.png,s,1,0.5924683000193909,s,1,0.2897914999630302,0.05027039989363402,0.04977889999281615,0.09928089997265488,0.09912070003338158,0.7470581999514252
RSVPLG03,si,20260312-154319,1.0.2,20260219-152011,804,Experiment,Both,1,Automatic,main,85,20260312-155303,local,local,300,H,S,E,A,E-H.png,A-S.png,hH,sS,mask-2.png,mask-1.png,h,1,0.5649408000754192,h,0,0.15862310002557933,0.05116729997098446,0.04899380006827414,0.10073199996259063,0.10047010006383061,0.30070279992651194
RSVPLG03,si,20260312-154319,1.0.2,20260219-152011,804,Experiment,Both,1,Automatic,main,86,20260312-155307,local,local,750,H,S,A,E,A-H.png,E-S.png,hH,sS,mask-3.png,mask-4.png,s,0,0.6392482999945059,s,1,0.22537649993319064,0.04930299997795373,0.049683400080539286,0.09862469998188317,0.10025720007251948,0.7482206999557093
RSVPLG03,si,20260312-154319,1.0.2,20260219-152011,804,Experiment,Both,1,Automatic,main,87,20260312-155312,global,global,300,H,H,E,E,H-E.png,H-E.png,hH,hH,mask-4.png,mask-4.png,h,1,0.717905499972403,h,1,0.16965060005895793,0.05032549996394664,0.04941149998921901,0.09954460000153631,0.09876610001083463,0.30019869992975146
RSVPLG03,si,20260312-154319,1.0.2,20260219-152011,804,Experiment,Both,1,Automatic,main,88,20260312-155317,global,local,750,S,H,E,E,S-E.png,E-H.png,sS,hH,mask-1.png,mask-2.png,s,1,0.5621913999784738,s,0,0.18342399992980063,0.04906070011202246,0.050334100029431283,0.09794590005185455,0.10118340002372861,0.7478599000023678
RSVPLG03,si,20260312-154319,1.0.2,20260219-152011,804,Experiment,Both,1,Automatic,main,89,20260312-155321,global,global,300,S,S,A,A,S-A.png,S-A.png,sS,sS,mask-2.png,mask-3.png,s,1,2.3481163000687957,s,1,0.2156120000872761,0.048708399990573525,0.0485920999199152,0.09997640002984554,0.10115829994902015,0.2986441000830382
RSVPLG03,si,20260312-154319,1.0.2,20260219-152011,804,Experiment,Both,1,Automatic,main,90,20260312-155328,global,global,300,S,S,A,A,S-A.png,S-A.png,sS,sS,mask-2.png,mask-3.png,s,1,0.7084252999629825,s,1,0.2737876999890432,0.04975779994856566,0.04860870004631579,0.09879339998587966,0.09967260004486889,0.30009479995351285
RSVPLG03,si,20260312-154319,1.0.2,20260219-152011,804,Experiment,Both,1,Automatic,main,91,20260312-155332,global,local,750,H,H,E,A,H-E.png,A-H.png,hH,hH,mask-4.png,mask-4.png,h,1,0.4717224999330938,h,1,0.217175199999474,0.05008140008430928,0.04845599993132055,0.09997980005573481,0.09848179994150996,0.7501163000706583
RSVPLG03,si,20260312-154319,1.0.2,20260219-152011,804,Experiment,Both,1,Automatic,main,92,20260312-155337,global,local,300,S,S,A,E,S-A.png,E-S.png,sS,sS,mask-2.png,mask-2.png,s,1,0.5177447000751272,s,1,0.1936754999915138,0.0510907000862062,0.04986139992251992,0.10204570007044822,0.09978519997093827,0.30168860009871423
RSVPLG03,si,20260312-154319,1.0.2,20260219-152011,804,Experiment,Both,1,Automatic,main,93,20260312-155341,global,local,300,S,S,A,A,S-A.png,A-S.png,sS,sS,mask-3.png,mask-1.png,s,1,0.585165899945423,h,0,0.2742660999065265,0.05138940003234893,0.048370599979534745,0.10189389996230602,0.09821550000924617,0.30226170003879815
RSVPLG03,si,20260312-154319,1.0.2,20260219-152011,804,Experiment,Both,1,Automatic,main,94,20260312-155346,local,local,300,S,S,E,E,E-S.png,E-S.png,sS,sS,mask-1.png,mask-1.png,s,1,0.40787410002667457,s,1,0.23376750003080815,0.04884239996317774,0.0498412000015378,0.10066859994549304,0.09831169992685318,0.299827600014396
RSVPLG03,si,20260312-154319,1.0.2,20260219-152011,804,Experiment,Both,1,Automatic,main,95,20260312-155350,global,global,300,H,S,E,E,H-E.png,S-E.png,hH,sS,mask-1.png,mask-2.png,h,1,0.5779270000057295,s,1,0.5390642000129446,0.05092289997264743,0.05086840002331883,0.09989599999971688,0.10032090009190142,0.3002267999108881
RSVPLG03,si,20260312-154319,1.0.2,20260219-152011,804,Experiment,Both,1,Automatic,main,96,20260312-155355,local,global,300,S,H,E,A,E-S.png,H-A.png,sS,hH,mask-4.png,mask-4.png,s,1,0.4611406000331044,s,0,0.21841770003084093,0.04998629994224757,0.04913729999680072,0.09838310000486672,0.09987729997374117,0.29889830003958195
RSVPLG03,si,20260312-154319,1.0.2,20260219-152011,804,Experiment,Both,1,Automatic,main,97,20260312-155359,global,global,300,S,S,A,A,S-A.png,S-A.png,sS,sS,mask-1.png,mask-4.png,s,1,0.5784388999454677,s,1,0.17212210001889616,0.04973169998265803,0.04911870008800179,0.1000686000334099,0.10013100004289299,0.30007789994124323
RSVPLG03,si,20260312-154319,1.0.2,20260219-152011,804,Experiment,Both,1,Automatic,main,98,20260312-155404,global,global,750,S,S,E,A,S-E.png,S-A.png,sS,sS,mask-2.png,mask-4.png,s,1,0.730377999949269,h,0,0.2987100000027567,0.04948409995995462,0.04893170006107539,0.09987040003761649,0.099167300038971,0.7488379999995232
RSVPLG03,si,20260312-154319,1.0.2,20260219-152011,804,Experiment,Both,1,Automatic,main,99,20260312-155409,local,local,750,H,H,A,E,A-H.png,E-H.png,hH,hH,mask-3.png,mask-4.png,h,1,0.41141020006034523,h,1,0.28160990006290376,0.0505851999623701,0.049035599920898676,0.09979100001510233,0.09942579991184175,0.748158400063403
RSVPLG03,si,20260312-154319,1.0.2,20260219-152011,804,Experiment,Both,1,Automatic,main,100,20260312-155414,local,global,750,H,H,E,E,E-H.png,H-E.png,hH,hH,mask-1.png,mask-2.png,h,1,0.5122765999985859,h,1,0.16017679998185486,0.048287599929608405,0.05001140001695603,0.09894479997456074,0.09902300010435283,0.7485941998893395
