exp,exp_initials,runtime,ver,modtime,sub,blocktype,targets,cuetype,mode,trialtype,trial,trialtime,t1_level,t2_level,t2_lag,t1,t2,distractor1,distractor2,stimfile1,stimfile2,t1_corr,t2_corr,maskfile1,maskfile2,t1_resp,t1_acc,t1_rt,t2_resp,t2_acc,t2_rt,t1_dur,t2_dur,t1mask_soa,t2mask_soa,t1t2_soa
RSVPLG03,cs,20251023-125225,1.0.1,20251020-085245,714,Introduction,T1,1,Automatic,main,1,20251023-125255,global,local,750,S,S,E,E,S-E.png,E-S.png,sS,sS,mask-4.png,mask-3.png,s,1,14.936893300007796,none,-5,0,0.09218059999693651,0.09647800000675488,0.19317389999923762,0.19939650000014808,0.7455520999938017
RSVPLG03,cs,20251023-125225,1.0.1,20251020-085245,714,Introduction,T1,1,Automatic,main,2,20251023-125314,local,global,750,S,H,A,E,A-S.png,H-E.png,sS,hH,mask-2.png,mask-2.png,s,1,2.710390099993674,none,-5,0,0.09768720000283793,0.09748490000492893,0.1989880000037374,0.20054930000333115,0.7499446000001626
RSVPLG03,cs,20251023-125225,1.0.1,20251020-085245,714,Introduction,T1,1,Automatic,main,3,20251023-125321,local,global,750,S,S,E,E,E-S.png,S-E.png,sS,sS,mask-3.png,mask-1.png,s,1,1.0937513999961084,none,-5,0,0.09856670000590384,0.09736220000195317,0.20064260000071954,0.2004287000017939,0.7508506000012858
RSVPLG03,cs,20251023-125225,1.0.1,20251020-085245,714,Introduction,T1,1,Automatic,main,4,20251023-125326,local,global,750,H,S,A,A,A-H.png,S-A.png,hH,sS,mask-1.png,mask-2.png,h,1,0.6689461000059964,none,-5,0,0.09755700000096112,0.09747810001135804,0.199669299996458,0.20056110000587068,0.749963199996273
RSVPLG03,cs,20251023-125225,1.0.1,20251020-085245,714,Introduction,T1,1,Automatic,main,5,20251023-125331,global,global,750,S,H,E,A,S-E.png,H-A.png,sS,hH,mask-2.png,mask-4.png,s,1,1.9511149000027217,none,-5,0,0.09838469998794608,0.09745650000695605,0.20137519999116194,0.20040390000212938,0.7512123999913456
RSVPLG03,cs,20251023-125225,1.0.1,20251020-085245,714,Introduction,T1,1,Automatic,main,6,20251023-125337,global,local,750,S,H,A,E,S-A.png,E-H.png,sS,hH,mask-1.png,mask-3.png,h,0,1.159933999995701,none,-5,0,0.09739609999815002,0.09856379999837372,0.19913609999639448,0.2004365000029793,0.7492388999962714
RSVPLG03,cs,20251023-125225,1.0.1,20251020-085245,714,Introduction,T1,1,Automatic,main,7,20251023-125343,global,global,750,S,S,A,A,S-A.png,S-A.png,sS,sS,mask-2.png,mask-4.png,s,1,1.7556553000031272,none,-5,0,0.09739959999569692,0.09715970000252128,0.19932749999861699,0.19964550000440795,0.7500964999926509
RSVPLG03,cs,20251023-125225,1.0.1,20251020-085245,714,Introduction,T1,1,Automatic,main,8,20251023-125349,global,local,750,S,S,A,A,S-A.png,A-S.png,sS,sS,mask-2.png,mask-4.png,s,1,0.7121779000008246,none,-5,0,0.09743779999553226,0.09853339999972377,0.20131030000629835,0.20145330000377726,0.7500381999998353
RSVPLG03,cs,20251023-125225,1.0.1,20251020-085245,714,Introduction,T1,1,Automatic,main,9,20251023-125354,local,local,750,H,S,E,A,E-H.png,A-S.png,hH,sS,mask-1.png,mask-1.png,h,1,1.148826900011045,none,-5,0,0.0973978999973042,0.09917260000656825,0.20033769999281503,0.20106870000017807,0.7498382999910973
RSVPLG03,cs,20251023-125225,1.0.1,20251020-085245,714,Introduction,T1,1,Automatic,main,10,20251023-125359,local,local,750,H,S,A,E,A-H.png,E-S.png,hH,sS,mask-4.png,mask-1.png,h,1,0.8071004999947036,none,-5,0,0.09740220000094268,0.09720289999677334,0.20129409999935888,0.20008460000099149,0.7508808999991743
RSVPLG03,cs,20251023-125225,1.0.1,20251020-085245,714,Introduction,T1,1,Automatic,main,11,20251023-125404,local,local,750,S,S,A,E,A-S.png,E-S.png,sS,sS,mask-3.png,mask-3.png,s,1,0.7814072000037413,none,-5,0,0.09645139999338426,0.09837549999065232,0.20050609999452718,0.20104479999281466,0.7498107999999775
RSVPLG03,cs,20251023-125225,1.0.1,20251020-085245,714,Introduction,T1,1,Automatic,main,12,20251023-125409,global,local,750,S,S,A,A,S-A.png,A-S.png,sS,sS,mask-2.png,mask-1.png,s,1,1.0067695000034291,none,-5,0,0.09740069998952094,0.09836610000638757,0.20028849999653175,0.20025369999348186,0.7497182999941288
RSVPLG03,cs,20251023-125225,1.0.1,20251020-085245,714,Introduction,T1,1,Automatic,main,13,20251023-125414,global,global,750,H,S,E,E,H-E.png,S-E.png,hH,sS,mask-2.png,mask-2.png,h,1,0.4838484000065364,none,-5,0,0.09745309999561869,0.09764989999530371,0.20121719999588095,0.20157299999846146,0.7503762999986066
RSVPLG03,cs,20251023-125225,1.0.1,20251020-085245,714,Introduction,T1,1,Automatic,main,14,20251023-125419,global,global,750,H,S,A,A,H-A.png,S-A.png,hH,sS,mask-3.png,mask-2.png,h,1,0.5639716000005137,none,-5,0,0.09839630000351463,0.09637790000124369,0.20137910000630654,0.1989292999933241,0.7509081000025617
RSVPLG03,cs,20251023-125225,1.0.1,20251020-085245,714,Introduction,T1,1,Automatic,main,15,20251023-125423,local,global,750,H,H,A,E,A-H.png,H-E.png,hH,hH,mask-1.png,mask-3.png,h,1,0.4232273000088753,none,-5,0,0.09668460000830237,0.09770209999987856,0.2007614000031026,0.1998879000020679,0.7503547000087565
RSVPLG03,cs,20251023-125225,1.0.1,20251020-085245,714,Introduction,T1,1,Automatic,main,16,20251023-125428,local,local,750,S,H,A,A,A-S.png,A-H.png,sS,hH,mask-3.png,mask-1.png,s,1,1.4566536000056658,none,-5,0,0.09759309999935795,0.09754670000984333,0.20068120000360068,0.20066690001112875,0.750136399990879
RSVPLG03,cs,20251023-125446,1.0.1,20251020-085245,714,Practice,T1,1,Automatic,main,1,20251023-125509,local,local,750,S,H,A,E,A-S.png,E-H.png,sS,hH,mask-1.png,mask-4.png,s,1,0.8155093999957899,none,-5,0,0.04404910000448581,0.0475836999976309,0.09696139999141451,0.10053450000123121,0.7480792999995174
RSVPLG03,cs,20251023-125446,1.0.1,20251020-085245,714,Practice,T1,1,Automatic,main,2,20251023-125514,local,local,300,S,S,A,A,A-S.png,A-S.png,sS,sS,mask-4.png,mask-1.png,s,1,0.6625102999969386,none,-5,0,0.04544349999923725,0.048519599993596785,0.0985250000085216,0.10053429999970831,0.29852510000637267
RSVPLG03,cs,20251023-125446,1.0.1,20251020-085245,714,Practice,T1,1,Automatic,main,3,20251023-125518,local,local,750,H,S,A,A,A-H.png,A-S.png,hH,sS,mask-3.png,mask-2.png,h,1,0.31663589998788666,none,-5,0,0.04760729998815805,0.047515099999145605,0.10062589999870397,0.10058059998846147,0.7502787999983411
RSVPLG03,cs,20251023-125446,1.0.1,20251020-085245,714,Practice,T1,1,Automatic,main,4,20251023-125523,global,global,300,H,S,A,A,H-A.png,S-A.png,hH,sS,mask-3.png,mask-1.png,h,1,0.43970799999078736,none,-5,0,0.04753400001209229,0.04659209999954328,0.09952470001007896,0.0986138000007486,0.30076550001103897
RSVPLG03,cs,20251023-125446,1.0.1,20251020-085245,714,Practice,T1,1,Automatic,main,5,20251023-125527,global,local,750,H,H,E,E,H-E.png,E-H.png,hH,hH,mask-4.png,mask-3.png,h,1,0.3538740000076359,none,-5,0,0.04753149999305606,0.04953849999583326,0.09955080000509042,0.10162629999103956,0.7499565000034636
RSVPLG03,cs,20251023-125446,1.0.1,20251020-085245,714,Practice,T1,1,Automatic,main,6,20251023-125531,global,local,300,S,H,A,E,S-A.png,E-H.png,sS,hH,mask-2.png,mask-2.png,s,1,0.3756957000005059,none,-5,0,0.04753179999534041,0.04760649999661837,0.09960089999367483,0.10068639999371953,0.2994128999998793
RSVPLG03,cs,20251023-125446,1.0.1,20251020-085245,714,Practice,T1,1,Automatic,main,7,20251023-125535,global,global,300,H,S,A,E,H-A.png,S-E.png,hH,sS,mask-3.png,mask-1.png,h,1,0.3687359000032302,none,-5,0,0.04755899999872781,0.047532199998386204,0.09878320001007523,0.09960409998893738,0.3000983000092674
RSVPLG03,cs,20251023-125446,1.0.1,20251020-085245,714,Practice,T1,1,Automatic,main,8,20251023-125539,local,local,300,H,S,A,A,A-H.png,A-S.png,hH,sS,mask-1.png,mask-1.png,h,1,0.39388220000546426,none,-5,0,0.04753850000270177,0.04752550000557676,0.09955339999578428,0.09991469999658875,0.299906899992493
RSVPLG03,cs,20251023-125446,1.0.1,20251020-085245,714,Practice,T1,1,Automatic,main,9,20251023-125543,global,local,300,S,S,A,A,S-A.png,A-S.png,sS,sS,mask-3.png,mask-2.png,s,1,0.33574350000708364,none,-5,0,0.047203199996147305,0.04844360001152381,0.10025619999214541,0.10159850001218729,0.2990371999912895
RSVPLG03,cs,20251023-125446,1.0.1,20251020-085245,714,Practice,T1,1,Automatic,main,10,20251023-125547,global,global,750,S,H,E,E,S-E.png,H-E.png,sS,hH,mask-4.png,mask-3.png,s,1,0.45125240000197664,none,-5,0,0.04648970000562258,0.04751030000625178,0.09853290001046844,0.10049980001349468,0.7501219999976456
RSVPLG03,cs,20251023-125446,1.0.1,20251020-085245,714,Practice,T1,1,Automatic,main,11,20251023-125551,global,local,750,H,S,A,A,H-A.png,A-S.png,hH,sS,mask-2.png,mask-4.png,h,1,0.24023889999079984,none,-5,0,0.04650880000554025,0.04852549999486655,0.10058530000969768,0.10053630000038538,0.7500940000027185
RSVPLG03,cs,20251023-125446,1.0.1,20251020-085245,714,Practice,T1,1,Automatic,main,12,20251023-125556,global,global,750,S,S,E,E,S-E.png,S-E.png,sS,sS,mask-3.png,mask-4.png,s,1,0.09040950000053272,none,-5,0,0.04760879999957979,0.047636599992983975,0.09958890000416432,0.09866390000388492,0.751985800001421
RSVPLG03,cs,20251023-125446,1.0.1,20251020-085245,714,Practice,T1,1,Automatic,main,13,20251023-125600,local,global,750,S,S,E,E,E-S.png,S-E.png,sS,sS,mask-1.png,mask-3.png,s,1,0.4382583000115119,none,-5,0,0.04694399998697918,0.048717300000134856,0.09943369998654816,0.10090800000762101,0.7504188999882899
RSVPLG03,cs,20251023-125446,1.0.1,20251020-085245,714,Practice,T1,1,Automatic,main,14,20251023-125604,local,global,750,H,S,E,A,E-H.png,S-A.png,hH,sS,mask-1.png,mask-4.png,h,1,0.28221299999859184,none,-5,0,0.048604199997498654,0.047553600001265295,0.10162830000626855,0.0986648999969475,0.7533792000031099
RSVPLG03,cs,20251023-125446,1.0.1,20251020-085245,714,Practice,T1,1,Automatic,main,15,20251023-125608,local,global,300,H,S,E,A,E-H.png,S-A.png,hH,sS,mask-3.png,mask-3.png,h,1,0.4657839999999851,none,-5,0,0.04753100000380073,0.0484738999948604,0.09956269999383949,0.10043940000468865,0.2998427999991691
RSVPLG03,cs,20251023-125446,1.0.1,20251020-085245,714,Practice,T1,1,Automatic,main,16,20251023-125612,local,global,300,S,H,A,A,A-S.png,H-A.png,sS,hH,mask-2.png,mask-1.png,s,1,0.3395606999984011,none,-5,0,0.047292100003687665,0.04719029999978375,0.09854449999693315,0.10024849999172147,0.2999116999999387
RSVPLG03,cs,20251023-125836,1.0.1,20251020-085245,714,Introduction,Both,1,Automatic,main,1,20251023-125902,local,global,750,S,H,E,A,E-S.png,H-A.png,sS,hH,mask-4.png,mask-1.png,s,1,1.63451289999648,h,1,1.1534620000020368,0.09117780000087805,0.09556020000309218,0.19416759999876376,0.1995325000025332,0.7450411000027088
RSVPLG03,cs,20251023-125836,1.0.1,20251020-085245,714,Introduction,Both,1,Automatic,main,2,20251023-125909,global,global,750,H,S,E,E,H-E.png,S-E.png,hH,sS,mask-2.png,mask-3.png,h,1,2.154854099993827,s,1,1.5769737999944482,0.09667179999814834,0.09754570000222884,0.20064110000384971,0.1986378000001423,0.750448899998446
RSVPLG03,cs,20251023-125836,1.0.1,20251020-085245,714,Introduction,Both,1,Automatic,main,3,20251023-125917,global,global,750,S,H,E,E,S-E.png,H-E.png,sS,hH,mask-1.png,mask-1.png,s,1,1.9336264000012306,h,1,1.878077100001974,0.0963723999884678,0.0960831000120379,0.1991074999968987,0.1986450000113109,0.7498111999884713
RSVPLG03,cs,20251023-125836,1.0.1,20251020-085245,714,Introduction,Both,1,Automatic,main,4,20251023-125926,local,global,750,H,H,A,A,A-H.png,H-A.png,hH,hH,mask-1.png,mask-3.png,h,1,1.468257000000449,s,0,1.0909718000038993,0.09836640000867192,0.09720689999812748,0.20010710001224652,0.20014410000294447,0.7503658000059659
RSVPLG03,cs,20251023-125836,1.0.1,20251020-085245,714,Introduction,Both,1,Automatic,main,5,20251023-125932,global,local,750,S,H,E,A,S-E.png,A-H.png,sS,hH,mask-2.png,mask-4.png,s,1,1.4916354999877512,h,1,0.604749999998603,0.09752000001026317,0.09851789999811444,0.1994330000015907,0.20042439999815542,0.7488916000002064
RSVPLG03,cs,20251023-125836,1.0.1,20251020-085245,714,Introduction,Both,1,Automatic,main,6,20251023-125939,global,global,750,H,H,E,E,H-E.png,H-E.png,hH,hH,mask-4.png,mask-4.png,h,1,1.0299452000035672,h,1,1.436222300006193,0.09644239999761339,0.09740170001168735,0.19931219999853056,0.20030229999974836,0.7488789999915753
RSVPLG03,cs,20251023-125836,1.0.1,20251020-085245,714,Introduction,Both,1,Automatic,main,7,20251023-125946,local,local,750,S,S,E,E,E-S.png,E-S.png,sS,sS,mask-1.png,mask-3.png,s,1,1.1942240999924252,h,0,0.5698274999886053,0.09647910000057891,0.09680710000975523,0.2002535999927204,0.1997900000133086,0.7502490999904694
RSVPLG03,cs,20251023-125836,1.0.1,20251020-085245,714,Introduction,Both,1,Automatic,main,8,20251023-125952,global,global,750,H,S,E,A,H-E.png,S-A.png,hH,sS,mask-1.png,mask-3.png,h,1,1.9735990000044694,s,1,1.3197927000001073,0.098350100000971,0.09740040000178851,0.20020029999432154,0.19925969999167137,0.7508124000014504
RSVPLG03,cs,20251023-125836,1.0.1,20251020-085245,714,Introduction,Both,1,Automatic,main,9,20251023-125959,global,local,750,H,H,E,E,H-E.png,E-H.png,hH,hH,mask-2.png,mask-4.png,h,1,0.9301583000051323,h,1,0.3393810999987181,0.09855719999177381,0.09836889999860432,0.1998079999902984,0.19990099999995437,0.7501608999882592
RSVPLG03,cs,20251023-125836,1.0.1,20251020-085245,714,Introduction,Both,1,Automatic,main,10,20251023-130005,local,global,750,S,H,A,A,A-S.png,H-A.png,sS,hH,mask-1.png,mask-3.png,s,1,1.1562754000042332,h,1,0.6667829000070924,0.09642020000319462,0.09824510000180453,0.20043530000839382,0.19915020000189543,0.7494908000080613
RSVPLG03,cs,20251023-125836,1.0.1,20251020-085245,714,Introduction,Both,1,Automatic,main,11,20251023-130011,global,local,750,H,H,E,A,H-E.png,A-H.png,hH,hH,mask-3.png,mask-4.png,h,1,1.4411145000049146,s,0,1.161199399997713,0.09768479999911506,0.09739999999874271,0.20087069999135565,0.19925289999810047,0.7510216999944532
RSVPLG03,cs,20251023-125836,1.0.1,20251020-085245,714,Introduction,Both,1,Automatic,main,12,20251023-130018,local,local,750,H,S,A,A,A-H.png,A-S.png,hH,sS,mask-2.png,mask-2.png,h,1,2.047835000004852,s,1,0.3645997999992687,0.09739389999595005,0.09889979999570642,0.1982614000007743,0.1991130999958841,0.7483289999945555
RSVPLG03,cs,20251023-125836,1.0.1,20251020-085245,714,Introduction,Both,1,Automatic,main,13,20251023-130025,local,global,750,S,S,A,A,A-S.png,S-A.png,sS,sS,mask-1.png,mask-3.png,s,1,0.7919408000016119,h,0,0.2848935999936657,0.09765630000038072,0.09753220000129659,0.19872509999549948,0.19792710000183433,0.7502263999922434
RSVPLG03,cs,20251023-125836,1.0.1,20251020-085245,714,Introduction,Both,1,Automatic,main,14,20251023-130030,global,local,750,H,H,A,E,H-A.png,E-H.png,hH,hH,mask-2.png,mask-1.png,h,1,0.9265109999978449,h,1,0.31961569999111816,0.09762010000122245,0.09736300000804476,0.19931389999692328,0.20003350000479259,0.7501945999974851
RSVPLG03,cs,20251023-125836,1.0.1,20251020-085245,714,Introduction,Both,1,Automatic,main,15,20251023-130036,local,local,750,H,S,E,E,E-H.png,E-S.png,hH,sS,mask-3.png,mask-4.png,h,1,1.8625552000012249,s,1,0.3388942000019597,0.09594370001286734,0.09758200000214856,0.20015680001233704,0.2006002999987686,0.7499660000030417
RSVPLG03,cs,20251023-125836,1.0.1,20251020-085245,714,Introduction,Both,1,Automatic,main,16,20251023-130042,local,local,750,H,S,A,E,A-H.png,E-S.png,hH,sS,mask-2.png,mask-3.png,h,1,1.3359781000035582,s,1,0.32145190000301227,0.0975478999898769,0.09760979999555275,0.20028229999297764,0.19942439999431372,0.7510782000026666
RSVPLG03,cs,20251023-130100,1.0.1,20251020-085245,714,Practice,Both,1,Automatic,main,1,20251023-130120,global,local,750,S,S,E,A,S-E.png,A-S.png,sS,sS,mask-3.png,mask-4.png,s,1,1.1983006000082241,h,0,0.38906639999186154,0.0410390000033658,0.04857020000054035,0.09417920000851154,0.0998466000019107,0.7422531000047456
RSVPLG03,cs,20251023-130100,1.0.1,20251020-085245,714,Practice,Both,1,Automatic,main,2,20251023-130125,local,local,300,S,H,E,E,E-S.png,E-H.png,sS,hH,mask-3.png,mask-4.png,s,1,1.397205599991139,h,1,0.3578692000010051,0.04852240000036545,0.04752829999779351,0.10158590000355616,0.09854629999608733,0.3009046000079252
RSVPLG03,cs,20251023-130100,1.0.1,20251020-085245,714,Practice,Both,1,Automatic,main,3,20251023-130131,local,local,300,H,S,E,A,E-H.png,A-S.png,hH,sS,mask-3.png,mask-2.png,h,1,1.2700972000020556,s,1,0.2524740000080783,0.04754299999331124,0.047527499991701916,0.09857410000404343,0.10054159999708645,0.2982075000036275
RSVPLG03,cs,20251023-130100,1.0.1,20251020-085245,714,Practice,Both,1,Automatic,main,4,20251023-130136,global,global,750,S,H,E,E,S-E.png,H-E.png,sS,hH,mask-4.png,mask-3.png,h,0,1.1362022000103025,s,0,0.17205130000365898,0.046721799997612834,0.04572210001060739,0.09991549998812843,0.09799829999974463,0.7491594999883091
RSVPLG03,cs,20251023-130100,1.0.1,20251020-085245,714,Practice,Both,1,Automatic,main,5,20251023-130142,local,global,300,S,H,A,A,A-S.png,H-A.png,sS,hH,mask-3.png,mask-1.png,s,1,1.2576170999964233,h,1,0.6525843999988865,0.046459300006972626,0.04789349999919068,0.1003947999997763,0.09989569999743253,0.29992450001009274
RSVPLG03,cs,20251023-130100,1.0.1,20251020-085245,714,Practice,Both,1,Automatic,main,6,20251023-130147,local,local,750,S,S,A,E,A-S.png,E-S.png,sS,sS,mask-2.png,mask-4.png,s,1,0.8275333999918075,h,0,0.6525860999972792,0.047516300008283,0.045612600006279536,0.09937760001048446,0.0996817999985069,0.7500806000025477
RSVPLG03,cs,20251023-130100,1.0.1,20251020-085245,714,Practice,Both,1,Automatic,main,7,20251023-130153,local,global,750,H,S,A,E,A-H.png,S-E.png,hH,sS,mask-2.png,mask-1.png,h,1,1.78449809999438,s,1,0.29752570000709966,0.04694450000533834,0.04772640000737738,0.10034580000501592,0.09993900000699796,0.749835599999642
RSVPLG03,cs,20251023-130100,1.0.1,20251020-085245,714,Practice,Both,1,Automatic,main,8,20251023-130159,local,global,750,S,S,A,A,A-S.png,S-A.png,sS,sS,mask-1.png,mask-4.png,s,1,1.0896093999908771,h,0,0.3932403000071645,0.04776349999883678,0.048637200001394376,0.09994379999989178,0.09982850000960752,0.7489405999949668
RSVPLG03,cs,20251023-130100,1.0.1,20251020-085245,714,Practice,Both,1,Automatic,main,9,20251023-130205,global,global,750,H,S,A,A,H-A.png,S-A.png,hH,sS,mask-2.png,mask-1.png,h,1,0.7690350000048056,h,0,1.4168774999998277,0.04751609999220818,0.04762299999129027,0.098534099990502,0.09962130000349134,0.7480068000004394
RSVPLG03,cs,20251023-130100,1.0.1,20251020-085245,714,Practice,Both,1,Automatic,main,10,20251023-130211,local,local,750,H,S,A,E,A-H.png,E-S.png,hH,sS,mask-4.png,mask-3.png,h,1,2.2555518000008306,s,1,0.14198770000075456,0.04852989999926649,0.04653900000266731,0.10154800000600517,0.09956200000306126,0.7505269999965094
RSVPLG03,cs,20251023-130100,1.0.1,20251020-085245,714,Practice,Both,1,Automatic,main,11,20251023-130218,global,local,750,S,H,E,E,S-E.png,E-H.png,sS,hH,mask-1.png,mask-4.png,h,0,2.1612238999950932,s,0,0.31623160000890493,0.04759529999864753,0.047539499995764345,0.09864880000532139,0.09957739998935722,0.7480154000077164
RSVPLG03,cs,20251023-130100,1.0.1,20251020-085245,714,Practice,Both,1,Automatic,main,12,20251023-130224,global,local,300,H,S,A,E,H-A.png,E-S.png,hH,sS,mask-2.png,mask-2.png,h,1,0.9786826000054134,s,1,0.757576500007417,0.04798540000047069,0.047703899996122345,0.10127130000910256,0.09954189999552909,0.29994120000628754
RSVPLG03,cs,20251023-130100,1.0.1,20251020-085245,714,Practice,Both,1,Automatic,main,13,20251023-130230,local,global,300,S,S,A,E,A-S.png,S-E.png,sS,sS,mask-2.png,mask-2.png,s,1,0.9165164000005461,h,0,1.2420134999993024,0.047710700004245155,0.04773320000094827,0.09892930000205524,0.09940999999525957,0.29856170000857674
RSVPLG03,cs,20251023-130100,1.0.1,20251020-085245,714,Practice,Both,1,Automatic,main,14,20251023-130236,global,local,300,S,H,A,A,S-A.png,A-H.png,sS,hH,mask-3.png,mask-4.png,h,0,1.60664280000492,s,0,0.24445280000509229,0.04776480000873562,0.04754200000024866,0.09872039999754634,0.10163309999916237,0.29847890000382904
RSVPLG03,cs,20251023-130100,1.0.1,20251020-085245,714,Practice,Both,1,Automatic,main,15,20251023-130241,global,global,300,S,H,A,A,S-A.png,H-A.png,sS,hH,mask-4.png,mask-4.png,s,1,2.651741800000309,h,1,0.7755287000036333,0.04763420000381302,0.04760649999661837,0.10085909999907017,0.0997054999897955,0.3011436000087997
RSVPLG03,cs,20251023-130100,1.0.1,20251020-085245,714,Practice,Both,1,Automatic,main,16,20251023-130248,global,global,300,S,S,A,E,S-A.png,S-E.png,sS,sS,mask-4.png,mask-2.png,s,1,1.0869447000004584,h,0,1.0156463000021176,0.04873330000555143,0.046563800002331845,0.09983600000850856,0.09980280000308994,0.30080500000622123
RSVPLG03,cs,20251023-130312,1.0.1,20251020-085245,714,Practice,Both,1,Automatic,main,1,20251023-130334,global,local,300,S,S,E,E,S-E.png,E-S.png,sS,sS,mask-4.png,mask-3.png,s,1,1.5154440000042086,h,0,0.806699299995671,0.041013699999894015,0.04767379999975674,0.09394600000814535,0.10074730000633281,0.29433800000697374
RSVPLG03,cs,20251023-130312,1.0.1,20251020-085245,714,Practice,Both,1,Automatic,main,2,20251023-130340,local,global,750,S,S,E,E,E-S.png,S-E.png,sS,sS,mask-4.png,mask-1.png,s,1,1.4234628999984125,h,0,0.4703949999966426,0.04866280000715051,0.04939879999437835,0.10074380000878591,0.1002306000009412,0.7505896000075154
RSVPLG03,cs,20251023-130312,1.0.1,20251020-085245,714,Practice,Both,1,Automatic,main,3,20251023-130347,local,local,300,H,S,A,A,A-H.png,A-S.png,hH,sS,mask-3.png,mask-2.png,h,1,1.0351709999958985,s,1,0.8681935000058729,0.04756339998857584,0.047533800010569394,0.09960960000171326,0.10074610001174733,0.299516399987624
RSVPLG03,cs,20251023-130312,1.0.1,20251020-085245,714,Practice,Both,1,Automatic,main,4,20251023-130352,global,local,300,H,H,E,E,H-E.png,E-H.png,hH,hH,mask-3.png,mask-2.png,h,1,0.7754667999979574,h,1,0.42641960000037216,0.04855729998962488,0.048576600005617365,0.10056449999683537,0.10061160000623204,0.30080339999403805
RSVPLG03,cs,20251023-130312,1.0.1,20251020-085245,714,Practice,Both,1,Automatic,main,5,20251023-130357,local,local,750,H,S,A,E,A-H.png,E-S.png,hH,sS,mask-2.png,mask-2.png,h,1,2.0435713000042597,s,1,0.33244810000178404,0.04744110000319779,0.04733009998744819,0.10135080000327434,0.10033599998860154,0.751684100003331
RSVPLG03,cs,20251023-130312,1.0.1,20251020-085245,714,Practice,Both,1,Automatic,main,6,20251023-130404,global,global,750,S,H,A,E,S-A.png,H-E.png,sS,hH,mask-3.png,mask-3.png,h,0,0.9736291999870446,s,0,0.9815317000029609,0.0456244999950286,0.04850040000746958,0.09881559999485034,0.10053680000419263,0.7499804999970365
RSVPLG03,cs,20251023-130312,1.0.1,20251020-085245,714,Practice,Both,1,Automatic,main,7,20251023-130410,local,global,300,S,H,E,E,E-S.png,H-E.png,sS,hH,mask-4.png,mask-4.png,s,1,1.0905606000014814,h,1,0.7329316999966977,0.047519400002784096,0.04849839999224059,0.0985149000043748,0.10056039999471977,0.2997670000040671
RSVPLG03,cs,20251023-130312,1.0.1,20251020-085245,714,Practice,Both,1,Automatic,main,8,20251023-130415,global,global,750,H,H,E,A,H-E.png,H-A.png,hH,hH,mask-4.png,mask-4.png,h,1,0.9230326999968383,h,1,1.524026999992202,0.04859489999944344,0.04933270000037737,0.10160869998799171,0.10229299998900387,0.7511502999986988
RSVPLG03,cs,20251023-130312,1.0.1,20251020-085245,714,Practice,Both,1,Automatic,main,9,20251023-130422,local,local,750,H,S,A,A,A-H.png,A-S.png,hH,sS,mask-2.png,mask-3.png,h,1,1.3785576000082074,s,1,0.16804709999996703,0.04881559999193996,0.047892999995383434,0.10071980000066105,0.1005693000042811,0.7515744999982417
RSVPLG03,cs,20251023-130312,1.0.1,20251020-085245,714,Practice,Both,1,Automatic,main,10,20251023-130428,local,global,750,S,S,A,A,A-S.png,S-A.png,sS,sS,mask-2.png,mask-2.png,s,1,0.8812827999936417,h,0,0.26282329999958165,0.04760359998908825,0.04856929999368731,0.09996179999143351,0.10163170000305399,0.7507353999972111
RSVPLG03,cs,20251023-130312,1.0.1,20251020-085245,714,Practice,Both,1,Automatic,main,11,20251023-130433,global,global,300,S,H,A,A,S-A.png,H-A.png,sS,hH,mask-2.png,mask-3.png,s,1,1.0054544000013266,h,1,0.922794400001294,0.04767980000178795,0.046697199999471195,0.09990539999853354,0.09895500000857282,0.30149379999784287
RSVPLG03,cs,20251023-130312,1.0.1,20251020-085245,714,Practice,Both,1,Automatic,main,12,20251023-130439,local,global,300,H,H,A,A,A-H.png,H-A.png,hH,hH,mask-2.png,mask-3.png,h,1,1.4545130999904359,s,0,1.161545599999954,0.04659750001155771,0.04849110000941437,0.1006857000029413,0.10048120000283234,0.2999458999984199
RSVPLG03,cs,20251023-130312,1.0.1,20251020-085245,714,Practice,Both,1,Automatic,main,13,20251023-130445,global,local,750,H,S,E,E,H-E.png,E-S.png,hH,sS,mask-3.png,mask-4.png,h,1,0.6824586000002455,s,1,0.2966578000050504,0.048466399995959364,0.04753039999923203,0.0994421999930637,0.10060840001096949,0.7502397999924142
RSVPLG03,cs,20251023-130312,1.0.1,20251020-085245,714,Practice,Both,1,Automatic,main,14,20251023-130450,local,local,300,H,S,E,A,E-H.png,A-S.png,hH,sS,mask-4.png,mask-1.png,h,1,0.8385874000086915,h,0,1.669839399997727,0.047502300003543496,0.04646870000578929,0.09953330000280403,0.09943370000110008,0.300795899995137
RSVPLG03,cs,20251023-130312,1.0.1,20251020-085245,714,Practice,Both,1,Automatic,main,15,20251023-130457,global,local,750,S,H,A,A,S-A.png,A-H.png,sS,hH,mask-1.png,mask-3.png,s,1,1.8368783999903826,h,1,0.2589505000069039,0.04853739999816753,0.04711030000180472,0.09954940000898205,0.1001162999891676,0.751732600008836
RSVPLG03,cs,20251023-130312,1.0.1,20251020-085245,714,Practice,Both,1,Automatic,main,16,20251023-130503,global,global,300,S,H,A,E,S-A.png,H-E.png,sS,hH,mask-2.png,mask-2.png,s,1,1.2251355000043986,h,1,0.2363795000128448,0.04751669999677688,0.04750289999356028,0.0995511999935843,0.10049989999970421,0.2998525000002701
RSVPLG03,cs,20251023-130530,1.0.1,20251020-085245,714,Practice,Both,1,Automatic,main,1,20251023-130548,local,local,300,S,S,E,A,E-S.png,A-S.png,sS,sS,mask-1.png,mask-2.png,s,1,1.2122513000067556,h,0,0.4890612000017427,0.04010670000570826,0.04742419999092817,0.09308789999340661,0.0995005000004312,0.2945899000042118
RSVPLG03,cs,20251023-130530,1.0.1,20251020-085245,714,Practice,Both,1,Automatic,main,2,20251023-130554,global,local,750,S,S,A,A,S-A.png,A-S.png,sS,sS,mask-3.png,mask-1.png,s,1,0.9154393000062555,s,1,0.34651149999990594,0.046732900009374134,0.0477004999993369,0.09887670000898652,0.09980670000368264,0.7515219000051729
RSVPLG03,cs,20251023-130530,1.0.1,20251020-085245,714,Practice,Both,1,Automatic,main,3,20251023-130559,global,local,750,S,S,E,A,S-E.png,A-S.png,sS,sS,mask-3.png,mask-2.png,s,1,0.904578700006823,s,1,0.4650328000134323,0.04790419999335427,0.04756930000439752,0.10015499999281019,0.10122430000046734,0.7500926999928197
RSVPLG03,cs,20251023-130530,1.0.1,20251020-085245,714,Practice,Both,1,Automatic,main,4,20251023-130605,global,local,300,S,H,E,A,S-E.png,A-H.png,sS,hH,mask-1.png,mask-1.png,s,1,0.829910700005712,h,1,0.15102330000081565,0.04770220001228154,0.04672299999219831,0.0998911000060616,0.09892409999156371,0.30053820001194254
RSVPLG03,cs,20251023-130530,1.0.1,20251020-085245,714,Practice,Both,1,Automatic,main,5,20251023-130609,global,global,750,S,S,A,A,S-A.png,S-A.png,sS,sS,mask-2.png,mask-4.png,s,1,1.2593825000076322,h,0,0.35695529999793507,0.04768740000145044,0.04872880000039004,0.0997812999994494,0.10125310000148602,0.750176300003659
RSVPLG03,cs,20251023-130530,1.0.1,20251020-085245,714,Practice,Both,1,Automatic,main,6,20251023-130615,local,global,750,S,S,E,A,E-S.png,S-A.png,sS,sS,mask-4.png,mask-3.png,s,1,0.8311150999943493,s,1,0.23713660000066739,0.04700050000974443,0.04841540000052191,0.1000075000047218,0.0994522999972105,0.7503538000019034
RSVPLG03,cs,20251023-130530,1.0.1,20251020-085245,714,Practice,Both,1,Automatic,main,7,20251023-130621,global,global,300,H,S,E,E,H-E.png,S-E.png,hH,sS,mask-4.png,mask-2.png,h,1,1.2425724000058835,s,1,0.4280659999931231,0.04860229999758303,0.04680270000244491,0.10164619999704883,0.09987160000309814,0.3010206000035396
RSVPLG03,cs,20251023-130530,1.0.1,20251020-085245,714,Practice,Both,1,Automatic,main,8,20251023-130626,local,global,750,H,H,A,E,A-H.png,H-E.png,hH,hH,mask-1.png,mask-4.png,h,1,1.130352699998184,s,0,0.6614222999924095,0.0468918999977177,0.046721799997612834,0.10020179999992251,0.09992389999388251,0.7506584000075236
RSVPLG03,cs,20251023-130530,1.0.1,20251020-085245,714,Practice,Both,1,Automatic,main,9,20251023-130632,global,global,300,S,S,E,A,S-E.png,S-A.png,sS,sS,mask-1.png,mask-4.png,s,1,1.6766120999964187,h,0,0.5762627000076463,0.04787239999859594,0.0468414000060875,0.10006949999660719,0.09969830000773072,0.30054159999417607
RSVPLG03,cs,20251023-130530,1.0.1,20251020-085245,714,Practice,Both,1,Automatic,main,10,20251023-130638,local,global,300,H,S,A,E,A-H.png,S-E.png,hH,sS,mask-4.png,mask-4.png,h,1,0.9182447000057437,h,0,1.4684800000104588,0.047669300009147264,0.047681700001703575,0.09920720000809524,0.09935080001014285,0.2999920000002021
RSVPLG03,cs,20251023-130530,1.0.1,20251020-085245,714,Practice,Both,1,Automatic,main,11,20251023-130644,local,local,750,H,S,A,E,A-H.png,E-S.png,hH,sS,mask-4.png,mask-1.png,h,1,1.3023562000016682,s,1,0.13640010000381153,0.04657099999894854,0.04668889999447856,0.09963779999816325,0.09885739999299403,0.7516032999992603
RSVPLG03,cs,20251023-130530,1.0.1,20251020-085245,714,Practice,Both,1,Automatic,main,12,20251023-130650,local,local,750,S,S,A,A,A-S.png,A-S.png,sS,sS,mask-3.png,mask-4.png,s,1,0.8849138999939896,h,0,0.2637237000017194,0.047488199998042546,0.047513499986962415,0.10037020000163466,0.09854329998779576,0.752206400007708
RSVPLG03,cs,20251023-130530,1.0.1,20251020-085245,714,Practice,Both,1,Automatic,main,13,20251023-130655,local,local,300,H,H,E,E,E-H.png,E-H.png,hH,hH,mask-2.png,mask-2.png,h,1,2.635504399993806,s,0,0.31686370000534225,0.04751990000659134,0.047527100003208034,0.09953500000119675,0.09956119999696966,0.2999084000039147
RSVPLG03,cs,20251023-130530,1.0.1,20251020-085245,714,Practice,Both,1,Automatic,main,14,20251023-130702,global,local,300,H,S,A,E,H-A.png,E-S.png,hH,sS,mask-3.png,mask-1.png,h,1,0.9768000000040047,s,1,0.3906044000032125,0.04753730000811629,0.047519300002022646,0.09955480000644457,0.09953540000424255,0.29984770000737626
RSVPLG03,cs,20251023-130530,1.0.1,20251020-085245,714,Practice,Both,1,Automatic,main,15,20251023-130707,local,global,300,H,S,A,E,A-H.png,S-E.png,hH,sS,mask-4.png,mask-2.png,h,1,0.9848879999917699,s,1,0.24825720000080764,0.047521600004984066,0.047690800012787804,0.09851999999955297,0.09988770000927616,0.30024409999896307
RSVPLG03,cs,20251023-130530,1.0.1,20251020-085245,714,Practice,Both,1,Automatic,main,16,20251023-130712,global,global,750,S,H,E,A,S-E.png,H-A.png,sS,hH,mask-3.png,mask-4.png,h,0,1.83253890000924,h,1,3.6107764999906067,0.04676830000244081,0.047787600007723086,0.09897500000079162,0.10168639999756124,0.7496159000002081
RSVPLG03,cs,20251023-131023,1.0.1,20251020-085245,714,Experiment,Both,1,Automatic,warmup,1,20251023-131058,global,global,300,H,S,A,E,H-A.png,S-E.png,hH,sS,mask-4.png,mask-3.png,h,1,0.9630083000083687,s,1,0.7322720000083791,0.04072930000256747,0.0468603999906918,0.09277580000343733,0.10018399999535177,0.2930956000054721
RSVPLG03,cs,20251023-131023,1.0.1,20251020-085245,714,Experiment,Both,1,Automatic,warmup,2,20251023-131104,local,global,300,S,S,E,A,E-S.png,S-A.png,sS,sS,mask-4.png,mask-1.png,s,1,1.0194858000031672,h,0,0.19467420000000857,0.04770660000212956,0.04779039999993984,0.10090649999619927,0.10066899999219459,0.29940089999581687
RSVPLG03,cs,20251023-131023,1.0.1,20251020-085245,714,Experiment,Both,1,Automatic,warmup,3,20251023-131109,local,local,750,H,H,A,E,A-H.png,E-H.png,hH,hH,mask-3.png,mask-2.png,h,1,0.9005446999944979,h,1,0.25227389999781735,0.047677199996542186,0.04768859999603592,0.10078589999466203,0.10178480000467971,0.7499868000013521
RSVPLG03,cs,20251023-131023,1.0.1,20251020-085245,714,Experiment,Both,1,Automatic,warmup,4,20251023-131114,local,global,750,S,H,E,E,E-S.png,H-E.png,sS,hH,mask-4.png,mask-4.png,s,1,0.8977687000005972,h,1,0.15448860000469722,0.043128699995577335,0.048881800001254305,0.09615359999588691,0.10107350000180304,0.7454442999878665
RSVPLG03,cs,20251023-131023,1.0.1,20251020-085245,714,Experiment,Both,1,Automatic,warmup,5,20251023-131119,global,local,750,S,H,E,A,S-E.png,A-H.png,sS,hH,mask-3.png,mask-2.png,s,1,0.9885018999921158,h,1,0.06847729999572039,0.04789479999453761,0.04574519999732729,0.10014359999331646,0.0989432000060333,0.7509283999970648
RSVPLG03,cs,20251023-131023,1.0.1,20251020-085245,714,Experiment,Both,1,Automatic,main,6,20251023-131125,local,global,300,S,S,A,E,A-S.png,S-E.png,sS,sS,mask-1.png,mask-2.png,s,1,0.8824279999971623,h,0,0.4256795000110287,0.04768990000593476,0.04866000000038184,0.09999650000827387,0.09990210000250954,0.3006700000114506
RSVPLG03,cs,20251023-131023,1.0.1,20251020-085245,714,Experiment,Both,1,Automatic,main,7,20251023-131130,local,global,750,S,H,E,E,E-S.png,H-E.png,sS,hH,mask-2.png,mask-2.png,s,1,0.8575259000062943,h,1,0.5287940999987768,0.04670320000150241,0.04766430000017863,0.09978079999564216,0.09989490000589285,0.7492388999962714
RSVPLG03,cs,20251023-131023,1.0.1,20251020-085245,714,Experiment,Both,1,Automatic,main,8,20251023-131135,local,local,750,H,S,E,E,E-H.png,E-S.png,hH,sS,mask-4.png,mask-1.png,h,1,1.711628599994583,s,1,0.33212160000402946,0.04651600000215694,0.047536400001263246,0.09934610000345856,0.09958320000441745,0.7501688000047579
RSVPLG03,cs,20251023-131023,1.0.1,20251020-085245,714,Experiment,Both,1,Automatic,main,9,20251023-131141,global,global,750,S,S,E,A,S-E.png,S-A.png,sS,sS,mask-4.png,mask-4.png,s,1,2.694284199998947,h,0,0.15838799999619368,0.04657489999954123,0.046967600006610155,0.09965309999824967,0.10078239999711514,0.7496571999945445
RSVPLG03,cs,20251023-131023,1.0.1,20251020-085245,714,Experiment,Both,1,Automatic,main,10,20251023-131148,global,local,300,H,H,A,E,H-A.png,E-H.png,hH,hH,mask-3.png,mask-4.png,h,1,0.996098699994036,s,0,0.5722440000099596,0.048698099999455735,0.04753979999804869,0.10071340001013596,0.09961069999553729,0.3004065000131959
RSVPLG03,cs,20251023-131023,1.0.1,20251020-085245,714,Experiment,Both,1,Automatic,main,11,20251023-131154,global,local,750,H,H,E,A,H-E.png,A-H.png,hH,hH,mask-4.png,mask-2.png,h,1,0.7707777000032365,h,1,0.49109320000570733,0.047533500008285046,0.04553160000068601,0.0985149000043748,0.09955050000280607,0.750342900006217
RSVPLG03,cs,20251023-131023,1.0.1,20251020-085245,714,Experiment,Both,1,Automatic,main,12,20251023-131159,local,global,750,H,S,A,E,A-H.png,S-E.png,hH,sS,mask-3.png,mask-4.png,h,1,2.0069462999963434,h,0,0.2777722000028007,0.04566119999799412,0.0484118999884231,0.09829719999106601,0.10146489999897312,0.7486927999998443
RSVPLG03,cs,20251023-131023,1.0.1,20251020-085245,714,Experiment,Both,1,Automatic,main,13,20251023-131206,global,local,300,S,S,E,E,S-E.png,E-S.png,sS,sS,mask-3.png,mask-4.png,s,1,1.3144365000043763,h,0,0.50985230000515,0.04822219999914523,0.048272899992298335,0.10019710000779014,0.1019391000008909,0.29925950001052115
RSVPLG03,cs,20251023-131023,1.0.1,20251020-085245,714,Experiment,Both,1,Automatic,main,14,20251023-131211,local,global,750,H,S,A,A,A-H.png,S-A.png,hH,sS,mask-1.png,mask-2.png,h,1,0.9799301000020932,h,0,0.3309082999912789,0.047625999999581836,0.048569999999017455,0.10111499999766238,0.10020999998960178,0.7493951000069501
RSVPLG03,cs,20251023-131023,1.0.1,20251020-085245,714,Experiment,Both,1,Automatic,main,15,20251023-131217,local,global,300,H,H,A,E,A-H.png,H-E.png,hH,hH,mask-2.png,mask-2.png,h,1,0.7923339999979362,s,0,0.1886132999934489,0.0473887999978615,0.04749009999795817,0.10031320000416599,0.10048879998794291,0.30034400000295136
RSVPLG03,cs,20251023-131023,1.0.1,20251020-085245,714,Experiment,Both,1,Automatic,main,16,20251023-131221,global,global,750,S,S,E,E,S-E.png,S-E.png,sS,sS,mask-3.png,mask-3.png,s,1,0.9976740999991307,s,1,0.3303309999901103,0.04850579999038018,0.04611680000380147,0.09953009999298956,0.09878840000601485,0.750434799992945
RSVPLG03,cs,20251023-131023,1.0.1,20251020-085245,714,Experiment,Both,1,Automatic,main,17,20251023-131227,local,local,750,S,S,E,A,E-S.png,A-S.png,sS,sS,mask-3.png,mask-4.png,s,1,1.0284123000019463,h,0,0.23682269999699201,0.04852039999968838,0.046515800000634044,0.10158190000220202,0.0989143999904627,0.7515467000048375
RSVPLG03,cs,20251023-131023,1.0.1,20251020-085245,714,Experiment,Both,1,Automatic,main,18,20251023-131232,local,global,300,H,H,E,E,E-H.png,H-E.png,hH,hH,mask-1.png,mask-1.png,h,1,1.1142614999989746,s,0,0.20970179999130778,0.048519599993596785,0.04766080000263173,0.1005280999961542,0.09980179999547545,0.3005228999973042
RSVPLG03,cs,20251023-131023,1.0.1,20251020-085245,714,Experiment,Both,1,Automatic,main,19,20251023-131237,local,local,750,S,H,E,A,E-S.png,A-H.png,sS,hH,mask-1.png,mask-4.png,s,1,0.7481881999992765,h,1,0.34070479999354575,0.04736209999828134,0.04770510000525974,0.10016459999314975,0.09987740000360645,0.7506855999963591
RSVPLG03,cs,20251023-131023,1.0.1,20251020-085245,714,Experiment,Both,1,Automatic,main,20,20251023-131242,local,global,300,H,S,A,A,A-H.png,S-A.png,hH,sS,mask-1.png,mask-2.png,h,1,1.1870277999987593,s,1,0.4983723000041209,0.0471527000045171,0.04721020000579301,0.09938519999559503,0.10038210000493564,0.29983839999476913
RSVPLG03,cs,20251023-131023,1.0.1,20251020-085245,714,Experiment,Both,1,Automatic,main,21,20251023-131248,global,global,750,H,S,A,A,H-A.png,S-A.png,hH,sS,mask-1.png,mask-3.png,h,1,0.6775172000052407,h,0,0.37758699999540113,0.046705099986866117,0.04677139999694191,0.09936179999203887,0.10002909999457188,0.749965399998473
RSVPLG03,cs,20251023-131023,1.0.1,20251020-085245,714,Experiment,Both,1,Automatic,main,22,20251023-131253,local,global,750,S,S,A,A,A-S.png,S-A.png,sS,sS,mask-1.png,mask-4.png,s,1,1.2343561000016052,h,0,0.38635239998984616,0.047674500005086884,0.046537100002751686,0.09989189999760129,0.10047299999860115,0.7503608999977587
RSVPLG03,cs,20251023-131023,1.0.1,20251020-085245,714,Experiment,Both,1,Automatic,main,23,20251023-131259,local,global,300,H,H,E,E,E-H.png,H-E.png,hH,hH,mask-1.png,mask-4.png,h,1,1.8574660000012955,s,0,0.2770130999997491,0.04739540000446141,0.046505200007231906,0.09843139999429695,0.09951050000381656,0.2996800999972038
RSVPLG03,cs,20251023-131023,1.0.1,20251020-085245,714,Experiment,Both,1,Automatic,main,24,20251023-131305,global,local,750,S,H,A,A,S-A.png,A-H.png,sS,hH,mask-3.png,mask-4.png,s,1,1.4083108999911929,h,1,0.297706899989862,0.04745109999203123,0.04749729999457486,0.10058199999912176,0.10050629999022931,0.7506283999973675
RSVPLG03,cs,20251023-131023,1.0.1,20251020-085245,714,Experiment,Both,1,Automatic,main,25,20251023-131311,global,global,750,S,H,E,E,S-E.png,H-E.png,sS,hH,mask-3.png,mask-3.png,s,1,0.8195236000028672,h,1,0.16680649999761954,0.048527099992497824,0.0475218999927165,0.10053699999116361,0.10157329999492504,0.7504924999957439
RSVPLG03,cs,20251023-131023,1.0.1,20251020-085245,714,Experiment,Both,1,Automatic,main,26,20251023-131359,global,global,300,H,H,A,A,H-A.png,H-A.png,hH,hH,mask-3.png,mask-2.png,h,1,0.7773166999977548,s,0,0.34470640000654384,0.047533800010569394,0.049136699992232025,0.09857360000023618,0.10018459999992047,0.29841110001143534
RSVPLG03,cs,20251023-131023,1.0.1,20251020-085245,714,Experiment,Both,1,Automatic,main,27,20251023-131404,local,global,750,H,H,E,A,E-H.png,H-A.png,hH,hH,mask-3.png,mask-3.png,h,1,0.7717271000001347,h,1,0.2781969000061508,0.04752540000481531,0.04751790000591427,0.09950430000026245,0.09952970000449568,0.7501716999977361
RSVPLG03,cs,20251023-131023,1.0.1,20251020-085245,714,Experiment,Both,1,Automatic,main,28,20251023-131409,global,local,750,S,S,A,A,S-A.png,A-S.png,sS,sS,mask-2.png,mask-2.png,s,1,0.7531557000038447,s,1,0.39022699999623,0.04671989999769721,0.04874019999988377,0.09993039999972098,0.10100870000314899,0.7486549999885028
RSVPLG03,cs,20251023-131023,1.0.1,20251020-085245,714,Experiment,Both,1,Automatic,main,29,20251023-131414,local,global,750,S,S,A,E,A-S.png,S-E.png,sS,sS,mask-2.png,mask-3.png,s,1,0.7500753000058467,s,1,0.20880969999416266,0.047118000002228655,0.04571099999884609,0.10085889999754727,0.09860959999787156,0.7515232000005199
RSVPLG03,cs,20251023-131023,1.0.1,20251020-085245,714,Experiment,Both,1,Automatic,main,30,20251023-131420,global,global,300,S,H,E,E,S-E.png,H-E.png,sS,hH,mask-1.png,mask-3.png,s,1,1.2152433000010205,h,1,0.08434929999930318,0.046094300007098354,0.04763410000305157,0.10024189999967348,0.09980159999395255,0.29966020000574645
RSVPLG03,cs,20251023-131023,1.0.1,20251020-085245,714,Experiment,Both,1,Automatic,main,31,20251023-131425,global,local,750,H,H,A,E,H-A.png,E-H.png,hH,hH,mask-1.png,mask-1.png,h,1,0.6054019000002882,h,1,0.17639019999478478,0.04745070000353735,0.04707559999951627,0.10031510000408161,0.10016630000609439,0.7499219000019366
RSVPLG03,cs,20251023-131023,1.0.1,20251020-085245,714,Experiment,Both,1,Automatic,main,32,20251023-131430,local,global,300,S,S,E,A,E-S.png,S-A.png,sS,sS,mask-1.png,mask-3.png,s,1,0.7382264000043506,s,1,0.08660019999661017,0.0476834000000963,0.04592200000479352,0.09962459999951534,0.10072869999567047,0.30011450000165496
RSVPLG03,cs,20251023-131023,1.0.1,20251020-085245,714,Experiment,Both,1,Automatic,main,33,20251023-131434,global,local,300,H,S,E,E,H-E.png,E-S.png,hH,sS,mask-3.png,mask-4.png,h,1,1.535513599999831,s,1,0.048806899998453446,0.04750679999415297,0.047567600006004795,0.09952469999552704,0.10058830000343733,0.3000437000009697
RSVPLG03,cs,20251023-131023,1.0.1,20251020-085245,714,Experiment,Both,1,Automatic,main,34,20251023-131439,global,local,300,S,S,A,A,S-A.png,A-S.png,sS,sS,mask-3.png,mask-3.png,s,1,1.2044842000032077,s,1,0.11964869999792427,0.04776570000103675,0.04707159999816213,0.09998300000734162,0.10000799999397714,0.2995095000078436
RSVPLG03,cs,20251023-131023,1.0.1,20251020-085245,714,Experiment,Both,1,Automatic,main,35,20251023-131445,local,global,750,S,H,E,E,E-S.png,H-E.png,sS,hH,mask-3.png,mask-4.png,s,1,1.1921861000009812,h,1,0.10830849999911152,0.04660830000648275,0.0475670000014361,0.09863439999753609,0.0985759000031976,0.7503295999922557
RSVPLG03,cs,20251023-131023,1.0.1,20251020-085245,714,Experiment,Both,1,Automatic,main,36,20251023-131450,local,local,300,S,S,A,E,A-S.png,E-S.png,sS,sS,mask-4.png,mask-1.png,s,1,1.068829600000754,h,0,0.055375500000081956,0.04655829998955596,0.04754070000490174,0.09905579999031033,0.10073240000929218,0.2986642999894684
RSVPLG03,cs,20251023-131023,1.0.1,20251020-085245,714,Experiment,Both,1,Automatic,main,37,20251023-131455,global,local,750,S,S,A,E,S-A.png,E-S.png,sS,sS,mask-2.png,mask-3.png,s,1,0.5842948000063188,s,1,0.1027611000026809,0.04768889999832027,0.046854300002451055,0.09989739999582525,0.10004810000828002,0.7504480999923544
RSVPLG03,cs,20251023-131023,1.0.1,20251020-085245,714,Experiment,Both,1,Automatic,main,38,20251023-131500,global,local,300,S,H,A,E,S-A.png,E-H.png,sS,hH,mask-3.png,mask-2.png,s,1,0.931712300007348,h,1,0.3424816000042483,0.04868269999860786,0.04769809999561403,0.09988520000479184,0.09987279999768361,0.30142820000764914
RSVPLG03,cs,20251023-131023,1.0.1,20251020-085245,714,Experiment,Both,1,Automatic,main,39,20251023-131505,local,local,300,S,H,A,E,A-S.png,E-H.png,sS,hH,mask-4.png,mask-4.png,s,1,1.3597272000042722,h,1,0.1718440999975428,0.04759429999103304,0.047505499998806044,0.1007679000031203,0.09959410000010394,0.3002196000015829
RSVPLG03,cs,20251023-131023,1.0.1,20251020-085245,714,Experiment,Both,1,Automatic,main,40,20251023-131510,local,local,750,H,H,E,A,E-H.png,A-H.png,hH,hH,mask-3.png,mask-1.png,h,1,0.752144700003555,h,1,0.2143703000037931,0.04770949999510776,0.04775100000551902,0.1007944999873871,0.10083419999864418,0.7503121999907307
RSVPLG03,cs,20251023-131023,1.0.1,20251020-085245,714,Experiment,Both,1,Automatic,main,41,20251023-131515,local,local,300,H,S,E,E,E-H.png,E-S.png,hH,sS,mask-3.png,mask-1.png,h,1,0.8753475999983493,s,1,0.2137053000042215,0.046464800005196594,0.047515199999907054,0.09932690000277944,0.10054529999615625,0.29945420000876766
RSVPLG03,cs,20251023-131023,1.0.1,20251020-085245,714,Experiment,Both,1,Automatic,main,42,20251023-131520,global,local,750,S,S,A,A,S-A.png,A-S.png,sS,sS,mask-2.png,mask-2.png,s,1,0.7922842999978457,h,0,0.22537819998979103,0.047768200005521066,0.04769789999409113,0.09823139999934938,0.09989379999751691,0.7501224000006914
RSVPLG03,cs,20251023-131023,1.0.1,20251020-085245,714,Experiment,Both,1,Automatic,main,43,20251023-131525,global,local,750,S,S,E,E,S-E.png,E-S.png,sS,sS,mask-3.png,mask-4.png,s,1,0.6977926999970805,s,1,0.3139599999994971,0.04731110000284389,0.046757000003708526,0.09939540000050329,0.1008393999945838,0.7494513999990886
RSVPLG03,cs,20251023-131023,1.0.1,20251020-085245,714,Experiment,Both,1,Automatic,main,44,20251023-131530,local,local,300,H,S,E,A,E-H.png,A-S.png,hH,sS,mask-1.png,mask-1.png,h,1,0.5751579999923706,s,1,0.13226720000966452,0.04769069999747444,0.04771480000636075,0.09990970000217203,0.09894359999452718,0.3005674000014551
RSVPLG03,cs,20251023-131023,1.0.1,20251020-085245,714,Experiment,Both,1,Automatic,main,45,20251023-131535,local,local,300,H,S,E,E,E-H.png,E-S.png,hH,sS,mask-3.png,mask-3.png,h,1,0.9083507999894209,s,1,0.22900289999961387,0.04668850000598468,0.047684699995443225,0.0981000000028871,0.09982109999691602,0.2997172000032151
RSVPLG03,cs,20251023-131023,1.0.1,20251020-085245,714,Experiment,Both,1,Automatic,main,46,20251023-131540,local,global,750,S,H,A,E,A-S.png,H-E.png,sS,hH,mask-2.png,mask-2.png,h,0,1.054469100010465,s,0,0.26517869999224786,0.047497799998382106,0.04678710000007413,0.09939920000033453,0.09967799999867566,0.7500623999949312
RSVPLG03,cs,20251023-131023,1.0.1,20251020-085245,714,Experiment,Both,1,Automatic,main,47,20251023-131545,global,local,300,H,S,E,A,H-E.png,A-S.png,hH,sS,mask-2.png,mask-4.png,h,1,0.8258446000108961,s,1,0.24995499999204185,0.047669999999925494,0.047566299996105954,0.0998942000005627,0.09903539999504574,0.29950569999346044
RSVPLG03,cs,20251023-131023,1.0.1,20251020-085245,714,Experiment,Both,1,Automatic,main,48,20251023-131550,local,local,300,H,H,E,A,E-H.png,A-H.png,hH,hH,mask-4.png,mask-4.png,h,1,0.6881324999994831,s,0,0.2234333000087645,0.047715599997900426,0.048804100006236695,0.099915200000396,0.10110220000206027,0.2987678999925265
RSVPLG03,cs,20251023-131023,1.0.1,20251020-085245,714,Experiment,Both,1,Automatic,main,49,20251023-131554,global,global,300,H,S,E,E,H-E.png,S-E.png,hH,sS,mask-2.png,mask-2.png,h,1,0.6544690000009723,h,0,0.8560831000067992,0.04674570000497624,0.04739359999075532,0.09899890000815503,0.09951349999755621,0.30086250000749715
RSVPLG03,cs,20251023-131023,1.0.1,20251020-085245,714,Experiment,Both,1,Automatic,main,50,20251023-131600,local,local,300,S,S,A,A,A-S.png,A-S.png,sS,sS,mask-4.png,mask-4.png,h,0,1.978935699997237,s,1,0.14708859998791013,0.04678710000007413,0.04849580000154674,0.0998045999876922,0.10150280001107603,0.299919899989618
RSVPLG03,cs,20251023-131023,1.0.1,20251020-085245,714,Experiment,Both,1,Automatic,main,51,20251023-131727,global,local,300,H,S,A,E,H-A.png,E-S.png,hH,sS,mask-3.png,mask-2.png,h,1,0.7801741000002949,s,1,0.09177559999807272,0.04750899999635294,0.04744090000167489,0.10049559999606572,0.10048350000579376,0.2997373999969568
RSVPLG03,cs,20251023-131023,1.0.1,20251020-085245,714,Experiment,Both,1,Automatic,main,52,20251023-131731,global,global,750,H,H,A,E,H-A.png,H-E.png,hH,hH,mask-4.png,mask-4.png,h,1,0.9597781999909785,s,0,0.33166340000752825,0.048523899997235276,0.04732890000741463,0.10068379998847377,0.10035480000078678,0.7505776999896625
RSVPLG03,cs,20251023-131023,1.0.1,20251020-085245,714,Experiment,Both,1,Automatic,main,53,20251023-131737,global,local,750,S,H,A,E,S-A.png,E-H.png,sS,hH,mask-3.png,mask-4.png,s,1,0.6211908999976004,h,1,0.3139379999920493,0.04738499999803025,0.04768659999535885,0.09958939999341965,0.1007889000029536,0.7496944000013173
RSVPLG03,cs,20251023-131023,1.0.1,20251020-085245,714,Experiment,Both,1,Automatic,main,54,20251023-131742,local,local,300,S,S,E,A,E-S.png,A-S.png,sS,sS,mask-2.png,mask-3.png,s,1,0.7376681000023382,h,0,0.1850618000025861,0.04665860001114197,0.047723399999085814,0.10001150000607595,0.09992169999168254,0.29958620000979863
RSVPLG03,cs,20251023-131023,1.0.1,20251020-085245,714,Experiment,Both,1,Automatic,main,55,20251023-131747,global,local,300,H,S,A,E,H-A.png,E-S.png,hH,sS,mask-3.png,mask-3.png,h,1,1.197758900001645,s,1,0.20324679999612272,0.046717800010810606,0.048287099998560734,0.09989320000750013,0.10134119998838287,0.2986479000101099
RSVPLG03,cs,20251023-131023,1.0.1,20251020-085245,714,Experiment,Both,1,Automatic,main,56,20251023-131752,global,global,300,H,S,A,E,H-A.png,S-E.png,hH,sS,mask-1.png,mask-1.png,h,1,1.0704397000081372,s,1,0.7108342999999877,0.04752150000422262,0.04609309999796096,0.10005850000015926,0.09965309999824967,0.3004877000057604
RSVPLG03,cs,20251023-131023,1.0.1,20251020-085245,714,Experiment,Both,1,Automatic,main,57,20251023-131757,global,global,300,H,S,A,A,H-A.png,S-A.png,hH,sS,mask-1.png,mask-3.png,h,1,0.6572325000015553,s,1,0.13745230001222808,0.04773649999697227,0.047744800001964904,0.10096579999662936,0.10093960000085644,0.29965919999813195
RSVPLG03,cs,20251023-131023,1.0.1,20251020-085245,714,Experiment,Both,1,Automatic,main,58,20251023-131802,local,local,300,H,H,E,E,E-H.png,E-H.png,hH,hH,mask-4.png,mask-1.png,h,1,0.6907637999975123,s,0,0.11371589999180287,0.048609299992676824,0.047495599996182136,0.10079539999424014,0.10041649999038782,0.3009801000007428
RSVPLG03,cs,20251023-131023,1.0.1,20251020-085245,714,Experiment,Both,1,Automatic,main,59,20251023-131806,global,local,750,S,S,E,A,S-E.png,A-S.png,sS,sS,mask-3.png,mask-4.png,s,1,0.68245009999373,s,1,0.3145278000010876,0.04756160000397358,0.04739269999845419,0.10056820001045708,0.10028790000069421,0.7496142000018153
RSVPLG03,cs,20251023-131023,1.0.1,20251020-085245,714,Experiment,Both,1,Automatic,main,60,20251023-131811,global,local,750,H,S,E,A,H-E.png,A-S.png,hH,sS,mask-1.png,mask-3.png,h,1,0.6840014000044903,s,1,0.16985639999620616,0.04751800000667572,0.04748989999643527,0.09955650000483729,0.10090649999619927,0.7500102000049083
RSVPLG03,cs,20251023-131023,1.0.1,20251020-085245,714,Experiment,Both,1,Automatic,main,61,20251023-131816,global,global,750,S,H,A,E,S-A.png,H-E.png,sS,hH,mask-2.png,mask-1.png,s,1,1.0817187000066042,s,0,0.16024659998947755,0.04668369999853894,0.04660600000352133,0.1006028999981936,0.09961059999477584,0.7501555999915581
RSVPLG03,cs,20251023-131023,1.0.1,20251020-085245,714,Experiment,Both,1,Automatic,main,62,20251023-131822,local,global,750,S,S,A,A,A-S.png,S-A.png,sS,sS,mask-1.png,mask-2.png,s,1,0.9362218000023859,h,0,0.21190799999749288,0.04848420000053011,0.04805169999599457,0.10140149999642745,0.09895220000180416,0.7508895000064513
RSVPLG03,cs,20251023-131023,1.0.1,20251020-085245,714,Experiment,Both,1,Automatic,main,63,20251023-131827,local,local,750,H,H,E,A,E-H.png,A-H.png,hH,hH,mask-4.png,mask-4.png,s,0,0.6830159999954049,h,1,0.7595527000084985,0.04879469999286812,0.047686300007626414,0.10009459999855608,0.09977220000291709,0.7512451999937184
RSVPLG03,cs,20251023-131023,1.0.1,20251020-085245,714,Experiment,Both,1,Automatic,main,64,20251023-131833,global,local,300,H,H,A,A,H-A.png,A-H.png,hH,hH,mask-3.png,mask-1.png,h,1,0.6866181999939727,h,1,0.2624035999906482,0.047554399992804974,0.047712900006445125,0.09973529999842867,0.10005130000354256,0.29856879998988006
RSVPLG03,cs,20251023-131023,1.0.1,20251020-085245,714,Experiment,Both,1,Automatic,main,65,20251023-131837,local,global,750,H,H,A,E,A-H.png,H-E.png,hH,hH,mask-2.png,mask-3.png,h,1,0.9100132000021404,h,1,0.11396189998777118,0.04855150000366848,0.047411099993041717,0.10167840000940487,0.10028400000010151,0.7511491000041133
RSVPLG03,cs,20251023-131023,1.0.1,20251020-085245,714,Experiment,Both,1,Automatic,main,66,20251023-131843,global,local,750,S,H,E,A,S-E.png,A-H.png,sS,hH,mask-2.png,mask-3.png,s,1,2.324461500000325,h,1,0.20228779999888502,0.04753359999449458,0.04756360000465065,0.1005443999893032,0.10058030000072904,0.7503308999876026
RSVPLG03,cs,20251023-131023,1.0.1,20251020-085245,714,Experiment,Both,1,Automatic,main,67,20251023-131849,local,global,750,S,H,E,E,E-S.png,H-E.png,sS,hH,mask-3.png,mask-2.png,s,1,1.542328900002758,h,1,0.1082526000100188,0.047532600001432,0.04751849999593105,0.09958449999976438,0.10056529998837505,0.7492109000013443
RSVPLG03,cs,20251023-131023,1.0.1,20251020-085245,714,Experiment,Both,1,Automatic,main,68,20251023-131855,local,global,300,H,S,E,A,E-H.png,S-A.png,hH,sS,mask-4.png,mask-4.png,h,1,0.9395421000081114,s,1,0.10817279999901075,0.04751849999593105,0.046997199999168515,0.10153010000067297,0.10005189999355935,0.29982420000305865
RSVPLG03,cs,20251023-131023,1.0.1,20251020-085245,714,Experiment,Both,1,Automatic,main,69,20251023-131900,local,local,750,H,S,A,E,A-H.png,E-S.png,hH,sS,mask-3.png,mask-3.png,h,1,2.2684823000017786,s,1,0.5332308999932138,0.04771030000119936,0.04749319999245927,0.10067590000107884,0.09936639999796171,0.7511677000002237
RSVPLG03,cs,20251023-131023,1.0.1,20251020-085245,714,Experiment,Both,1,Automatic,main,70,20251023-131907,global,global,300,S,S,A,A,S-A.png,S-A.png,sS,sS,mask-1.png,mask-1.png,s,1,0.9242878999939421,h,0,0.15043409999634605,0.045759399989037775,0.04757700000482146,0.09987579999142326,0.09854839999752585,0.30005449999589473
RSVPLG03,cs,20251023-131023,1.0.1,20251020-085245,714,Experiment,Both,1,Automatic,main,71,20251023-131912,local,global,300,H,H,E,E,E-H.png,H-E.png,hH,hH,mask-3.png,mask-3.png,h,1,0.9961246000020765,h,1,0.37242220000189263,0.04614130000118166,0.04853250000451226,0.09813880000729114,0.1015594000054989,0.2984428000054322
RSVPLG03,cs,20251023-131023,1.0.1,20251020-085245,714,Experiment,Both,1,Automatic,main,72,20251023-131917,local,local,750,H,H,A,E,A-H.png,E-H.png,hH,hH,mask-4.png,mask-3.png,h,1,1.598741499998141,s,0,0.9578100999933667,0.047607699991203845,0.04867540000122972,0.09966249999706633,0.10079320000659209,0.7491697999939788
RSVPLG03,cs,20251023-131023,1.0.1,20251020-085245,714,Experiment,Both,1,Automatic,main,73,20251023-131924,global,global,300,S,S,E,A,S-E.png,S-A.png,sS,sS,mask-4.png,mask-1.png,s,1,1.0610008999938145,h,0,0.5216369999980088,0.04773669999849517,0.04750369999965187,0.10110139999596868,0.1004454999929294,0.29977640000288375
RSVPLG03,cs,20251023-131023,1.0.1,20251020-085245,714,Experiment,Both,1,Automatic,main,74,20251023-131929,local,local,300,H,H,E,E,E-H.png,E-H.png,hH,hH,mask-4.png,mask-3.png,h,1,1.0320875000033993,h,1,0.133590199999162,0.045702999996137805,0.046680699990247376,0.09910940000554547,0.09996310000133235,0.2998550000047544
RSVPLG03,cs,20251023-131023,1.0.1,20251020-085245,714,Experiment,Both,1,Automatic,main,75,20251023-131934,global,global,750,H,H,A,E,H-A.png,H-E.png,hH,hH,mask-4.png,mask-1.png,h,1,1.153515799989691,h,1,0.29989029999705963,0.047558000005665235,0.04760990000795573,0.0995725999964634,0.09963690000586212,0.7499802999955136
RSVPLG03,cs,20251023-131023,1.0.1,20251020-085245,714,Experiment,Both,1,Automatic,main,76,20251023-132046,global,global,300,S,H,A,E,S-A.png,H-E.png,sS,hH,mask-1.png,mask-1.png,h,0,0.7541215999954147,h,1,0.3952232000010554,0.04752949999237899,0.04752089999965392,0.09857180000108201,0.10039859999960754,0.29989549999299925
RSVPLG03,cs,20251023-131023,1.0.1,20251020-085245,714,Experiment,Both,1,Automatic,main,77,20251023-132051,global,global,300,S,S,E,A,S-E.png,S-A.png,sS,sS,mask-1.png,mask-1.png,s,1,1.4825802000123076,h,0,0.17123710000305437,0.04844480000610929,0.047899600001983345,0.09960110000974964,0.09999050000624266,0.30031720000260975
RSVPLG03,cs,20251023-131023,1.0.1,20251020-085245,714,Experiment,Both,1,Automatic,main,78,20251023-132056,global,global,300,S,S,A,E,S-A.png,S-E.png,sS,sS,mask-4.png,mask-2.png,s,1,0.8957216999988304,h,0,0.568995099994936,0.04808950000733603,0.04710720000730362,0.10027549999358598,0.09829789999639615,0.3000890999974217
RSVPLG03,cs,20251023-131023,1.0.1,20251020-085245,714,Experiment,Both,1,Automatic,main,79,20251023-132101,local,local,750,S,S,E,E,E-S.png,E-S.png,sS,sS,mask-4.png,mask-1.png,h,0,0.654708699992625,s,1,0.18866569999954663,0.04744020001089666,0.047875999996904284,0.10051230000681244,0.09991430000809487,0.75027570000384
RSVPLG03,cs,20251023-131023,1.0.1,20251020-085245,714,Experiment,Both,1,Automatic,main,80,20251023-132106,global,local,300,H,S,E,E,H-E.png,E-S.png,hH,sS,mask-4.png,mask-4.png,h,1,0.7547825999936322,h,0,0.1961237999930745,0.04768309999781195,0.04758830000355374,0.10052049999649171,0.0997062999958871,0.29988789999333676
RSVPLG03,cs,20251023-131023,1.0.1,20251020-085245,714,Experiment,Both,1,Automatic,main,81,20251023-132111,local,local,750,H,H,E,E,E-H.png,E-H.png,hH,hH,mask-1.png,mask-4.png,h,1,0.7699538000015309,h,1,0.20009859999117907,0.04767690000880975,0.04657170000427868,0.0997304000047734,0.0996317000099225,0.7503171999996994
RSVPLG03,cs,20251023-131023,1.0.1,20251020-085245,714,Experiment,Both,1,Automatic,main,82,20251023-132116,global,global,750,H,S,A,E,H-A.png,S-E.png,hH,sS,mask-3.png,mask-2.png,h,1,1.05450149999524,s,1,0.5232370999874547,0.04752159999043215,0.047633700000005774,0.09954039999865927,0.10064430000784341,0.7495248999912292
RSVPLG03,cs,20251023-131023,1.0.1,20251020-085245,714,Experiment,Both,1,Automatic,main,83,20251023-132122,local,local,750,S,S,A,A,A-S.png,A-S.png,sS,sS,mask-3.png,mask-4.png,s,1,0.45926660000986885,h,0,0.20236280000244733,0.048494899994693696,0.04749170001014136,0.10055069999361876,0.10050020000198856,0.7506407999899238
RSVPLG03,cs,20251023-131023,1.0.1,20251020-085245,714,Experiment,Both,1,Automatic,main,84,20251023-132127,global,local,300,S,S,E,A,S-E.png,A-S.png,sS,sS,mask-2.png,mask-4.png,s,1,1.9272519999940414,h,0,0.17559290000644978,0.0464981999975862,0.0475187999982154,0.09950559999560937,0.10053360000893008,0.29939259999082424
RSVPLG03,cs,20251023-131023,1.0.1,20251020-085245,714,Experiment,Both,1,Automatic,main,85,20251023-132133,global,global,300,H,H,A,A,H-A.png,H-A.png,hH,hH,mask-4.png,mask-1.png,h,1,0.780105600002571,h,1,0.40629579999949783,0.046522300006472506,0.04748940000717994,0.09854629999608733,0.10049799999978859,0.29880109999794513
RSVPLG03,cs,20251023-131023,1.0.1,20251020-085245,714,Experiment,Both,1,Automatic,main,86,20251023-132138,global,local,300,S,S,E,E,S-E.png,E-S.png,sS,sS,mask-3.png,mask-1.png,s,1,1.4527911999903154,h,0,0.29404609999619424,0.04575820000900421,0.0469747000024654,0.09896940000180621,0.09948099999746773,0.299752000006265
RSVPLG03,cs,20251023-131023,1.0.1,20251020-085245,714,Experiment,Both,1,Automatic,main,87,20251023-132143,global,global,750,S,H,E,A,S-E.png,H-A.png,sS,hH,mask-2.png,mask-2.png,h,0,0.6539849999971921,h,1,0.5346002000005683,0.048475899995537475,0.047732899998663925,0.10000079999736045,0.10094679999747314,0.7507016000017757
RSVPLG03,cs,20251023-131023,1.0.1,20251020-085245,714,Experiment,Both,1,Automatic,main,88,20251023-132149,global,local,300,H,S,A,E,H-A.png,E-S.png,hH,sS,mask-2.png,mask-3.png,h,1,0.8582623999973293,h,0,0.24688970000715926,0.04754040000261739,0.04755230000591837,0.09955270000500605,0.09956770000280812,0.2998082999984035
RSVPLG03,cs,20251023-131023,1.0.1,20251020-085245,714,Experiment,Both,1,Automatic,main,89,20251023-132153,local,global,300,S,H,A,E,A-S.png,H-E.png,sS,hH,mask-4.png,mask-2.png,s,1,0.9259237999940524,h,1,0.7903691000101389,0.047620800003642216,0.04687559999001678,0.10046699999656994,0.0989629999967292,0.29977540000982117
RSVPLG03,cs,20251023-131023,1.0.1,20251020-085245,714,Experiment,Both,1,Automatic,main,90,20251023-132159,global,global,300,H,S,A,E,H-A.png,S-E.png,hH,sS,mask-4.png,mask-4.png,h,1,0.6887505000049714,h,0,0.9009379000053741,0.04861230000096839,0.04758600000059232,0.1005324000143446,0.09888949999003671,0.3008136000134982
RSVPLG03,cs,20251023-131023,1.0.1,20251020-085245,714,Experiment,Both,1,Automatic,main,91,20251023-132204,global,global,750,S,H,A,E,S-A.png,H-E.png,sS,hH,mask-3.png,mask-2.png,s,1,2.046713699994143,h,1,0.16706009999325033,0.04753559999517165,0.047542399988742545,0.09955949999857694,0.09958009999536444,0.7500613000011072
RSVPLG03,cs,20251023-131023,1.0.1,20251020-085245,714,Experiment,Both,1,Automatic,main,92,20251023-132211,global,local,750,H,H,A,E,H-A.png,E-H.png,hH,hH,mask-2.png,mask-2.png,h,1,0.7424068999971496,h,1,0.4705071000062162,0.04879850000725128,0.04771460000483785,0.10185910000291187,0.0998669999971753,0.7515425000019604
RSVPLG03,cs,20251023-131023,1.0.1,20251020-085245,714,Experiment,Both,1,Automatic,main,93,20251023-132216,global,global,750,S,S,A,E,S-A.png,S-E.png,sS,sS,mask-4.png,mask-2.png,s,1,0.6971235000091838,h,0,0.4472250999970129,0.046868200006429106,0.04789400000299793,0.10002310000709258,0.10025000000314321,0.74930540000787
RSVPLG03,cs,20251023-131023,1.0.1,20251020-085245,714,Experiment,Both,1,Automatic,main,94,20251023-132221,local,local,750,S,H,A,E,A-S.png,E-H.png,sS,hH,mask-1.png,mask-4.png,h,0,0.6015522999950917,h,1,0.585540600004606,0.04774780001025647,0.046663899993291125,0.09986330001265742,0.09998210000048857,0.7510619000095176
RSVPLG03,cs,20251023-131023,1.0.1,20251020-085245,714,Experiment,Both,1,Automatic,main,95,20251023-132227,local,global,300,H,H,A,E,A-H.png,H-E.png,hH,hH,mask-4.png,mask-1.png,h,1,1.055439399991883,h,1,0.45506079999904614,0.04879129999608267,0.045588100008899346,0.09961960000509862,0.0996142000076361,0.30155449999438133
RSVPLG03,cs,20251023-131023,1.0.1,20251020-085245,714,Experiment,Both,1,Automatic,main,96,20251023-132232,local,local,300,H,H,A,E,A-H.png,E-H.png,hH,hH,mask-3.png,mask-2.png,h,1,0.7599679999984801,h,1,0.2998720999894431,0.04749519999313634,0.04750380000041332,0.0995031999918865,0.1005958999885479,0.29976840000017546
RSVPLG03,cs,20251023-131023,1.0.1,20251020-085245,714,Experiment,Both,1,Automatic,main,97,20251023-132237,local,global,300,H,S,A,A,A-H.png,S-A.png,hH,sS,mask-1.png,mask-1.png,h,1,0.729825600006734,s,1,0.13222800000221469,0.04750469999271445,0.04753049999999348,0.10059159999946132,0.09866939998755697,0.30184620000363793
RSVPLG03,cs,20251023-131023,1.0.1,20251020-085245,714,Experiment,Both,1,Automatic,main,98,20251023-132241,local,local,750,S,S,E,A,E-S.png,A-S.png,sS,sS,mask-3.png,mask-3.png,s,1,1.3870659999956843,h,0,0.5563025000010384,0.04752730000473093,0.04761049999797251,0.1005730000033509,0.1006554000050528,0.749956600004225
RSVPLG03,cs,20251023-131023,1.0.1,20251020-085245,714,Experiment,Both,1,Automatic,main,99,20251023-132248,local,global,300,S,S,E,A,E-S.png,S-A.png,sS,sS,mask-2.png,mask-4.png,s,1,1.2433008999942103,h,0,0.3165343999862671,0.047654900001361966,0.047519600004306994,0.1001920999988215,0.09994510000979062,0.3001339999900665
RSVPLG03,cs,20251023-131023,1.0.1,20251020-085245,714,Experiment,Both,1,Automatic,main,100,20251023-132253,local,global,750,S,S,E,A,E-S.png,S-A.png,sS,sS,mask-2.png,mask-2.png,s,1,0.9624907999968855,h,0,0.27741080000123475,0.0476146000000881,0.046689599999808706,0.09914720000233501,0.09877810000034515,0.7516240999975707
RSVPLG03,cs,20251023-131023,1.0.1,20251020-085245,714,Experiment,Both,1,Automatic,main,101,20251023-132450,global,global,750,H,S,E,E,H-E.png,S-E.png,hH,sS,mask-3.png,mask-3.png,h,1,0.8920844000094803,s,1,0.8224143999977969,0.04770890000509098,0.047701200004667044,0.09886530000949278,0.09980650000215974,0.7499182000028668
RSVPLG03,cs,20251023-131023,1.0.1,20251020-085245,714,Experiment,Both,1,Automatic,main,102,20251023-132456,global,global,300,H,H,E,A,H-E.png,H-A.png,hH,hH,mask-2.png,mask-4.png,h,1,0.7790702999918722,h,1,0.6837326000095345,0.04754690000845585,0.04729889999725856,0.10072230000514537,0.10024869999324437,0.29966820000845473
RSVPLG03,cs,20251023-131023,1.0.1,20251020-085245,714,Experiment,Both,1,Automatic,main,103,20251023-132502,global,local,750,H,H,A,A,H-A.png,A-H.png,hH,hH,mask-1.png,mask-4.png,h,1,0.6665120999969076,h,1,0.36203129999921657,0.0474162000027718,0.04872589999285992,0.09951420000288635,0.10094720000051893,0.7484776000055717
RSVPLG03,cs,20251023-131023,1.0.1,20251020-085245,714,Experiment,Both,1,Automatic,main,104,20251023-132507,local,local,300,H,S,A,A,A-H.png,A-S.png,hH,sS,mask-3.png,mask-2.png,h,1,1.3744395000103395,s,1,0.46075610000116285,0.04879489999439102,0.047740199996042065,0.10119349999877159,0.09995329999946989,0.3008259999915026
RSVPLG03,cs,20251023-131023,1.0.1,20251020-085245,714,Experiment,Both,1,Automatic,main,105,20251023-132513,global,global,300,H,H,A,A,H-A.png,H-A.png,hH,hH,mask-2.png,mask-1.png,h,1,0.5588742999971146,h,1,0.7028012000082526,0.04753029999847058,0.04860690000350587,0.10053049999987707,0.10058389999903738,0.29905539999890607
RSVPLG03,cs,20251023-131023,1.0.1,20251020-085245,714,Experiment,Both,1,Automatic,main,106,20251023-132518,local,local,750,H,S,E,A,E-H.png,A-S.png,hH,sS,mask-3.png,mask-1.png,h,1,1.2429548999934923,s,1,0.21596790000330657,0.047510499993222766,0.04734889999963343,0.09941939999407623,0.10023450000153389,0.7496253999997862
RSVPLG03,cs,20251023-131023,1.0.1,20251020-085245,714,Experiment,Both,1,Automatic,main,107,20251023-132523,global,global,300,H,H,E,E,H-E.png,H-E.png,hH,hH,mask-2.png,mask-2.png,h,1,0.8128937000001315,h,1,0.45137990001239814,0.047713399995700456,0.047597400000086054,0.09981379999953788,0.10182470000290778,0.298326599993743
RSVPLG03,cs,20251023-131023,1.0.1,20251020-085245,714,Experiment,Both,1,Automatic,main,108,20251023-132529,local,global,300,S,H,E,A,E-S.png,H-A.png,sS,hH,mask-1.png,mask-1.png,s,1,1.485905300010927,h,1,0.5085505000024568,0.048519399992073886,0.04852129999198951,0.09954299998935312,0.09954529999231454,0.2998842999950284
RSVPLG03,cs,20251023-131023,1.0.1,20251020-085245,714,Experiment,Both,1,Automatic,main,109,20251023-132534,local,local,750,H,S,A,E,A-H.png,E-S.png,hH,sS,mask-4.png,mask-1.png,h,1,1.0466469999955734,s,1,0.502835099992808,0.04856090000248514,0.0475781000131974,0.10065389999363106,0.09964590000163298,0.7509371999913128
RSVPLG03,cs,20251023-131023,1.0.1,20251020-085245,714,Experiment,Both,1,Automatic,main,110,20251023-132540,local,local,750,S,H,A,E,A-S.png,E-H.png,sS,hH,mask-4.png,mask-2.png,s,1,1.118113300006371,h,1,0.4422688000049675,0.04851770000823308,0.04747830000997055,0.09957360000407789,0.09848850000707898,0.7511621000012383
RSVPLG03,cs,20251023-131023,1.0.1,20251020-085245,714,Experiment,Both,1,Automatic,main,111,20251023-132546,global,local,750,H,H,E,E,H-E.png,E-H.png,hH,hH,mask-4.png,mask-2.png,h,1,0.9257799000042723,h,1,0.4415738999960013,0.048717600002419204,0.04718280000088271,0.10071690000768285,0.09820149998995475,0.7511119000118924
RSVPLG03,cs,20251023-131023,1.0.1,20251020-085245,714,Experiment,Both,1,Automatic,main,112,20251023-132552,local,global,300,S,S,E,E,E-S.png,S-E.png,sS,sS,mask-2.png,mask-4.png,s,1,1.1343378000019584,h,0,0.5882645999954548,0.04753690000507049,0.04653719998896122,0.10061340000538621,0.09857360000023618,0.300955900005647
RSVPLG03,cs,20251023-131023,1.0.1,20251020-085245,714,Experiment,Both,1,Automatic,main,113,20251023-132557,local,local,300,H,S,A,E,A-H.png,E-S.png,hH,sS,mask-1.png,mask-1.png,h,1,1.3362828000099398,h,0,0.491086300011375,0.048707800000556745,0.04757860000245273,0.10001320000446867,0.09972590001416393,0.30167689999507274
RSVPLG03,cs,20251023-131023,1.0.1,20251020-085245,714,Experiment,Both,1,Automatic,main,114,20251023-132603,global,local,300,S,S,A,E,S-A.png,E-S.png,sS,sS,mask-3.png,mask-2.png,s,1,1.1024795999983326,h,0,0.27564770000753924,0.04771929999697022,0.047648599997046404,0.09985919999598991,0.10094989999197423,0.2995855000044685
RSVPLG03,cs,20251023-131023,1.0.1,20251020-085245,714,Experiment,Both,1,Automatic,main,115,20251023-132608,global,global,750,H,H,A,E,H-A.png,H-E.png,hH,hH,mask-2.png,mask-2.png,h,1,0.8838649000099394,h,1,0.634983399999328,0.047826900001382455,0.04759380000177771,0.10027809999883175,0.09882389999984298,0.7510471999994479
RSVPLG03,cs,20251023-131023,1.0.1,20251020-085245,714,Experiment,Both,1,Automatic,main,116,20251023-132614,local,global,750,H,H,A,E,A-H.png,H-E.png,hH,hH,mask-3.png,mask-3.png,h,1,0.7880403000017395,h,1,0.44225759999244474,0.0475153000006685,0.04587079999328125,0.09953380000661127,0.09917509999650065,0.7508581000001868
RSVPLG03,cs,20251023-131023,1.0.1,20251020-085245,714,Experiment,Both,1,Automatic,main,117,20251023-132619,global,global,750,H,S,E,E,H-E.png,S-E.png,hH,sS,mask-4.png,mask-1.png,h,1,0.9898730999993859,s,1,0.39396580000175163,0.04656859999522567,0.047601100013707764,0.09968559999833815,0.09969870001077652,0.7497043999901507
RSVPLG03,cs,20251023-131023,1.0.1,20251020-085245,714,Experiment,Both,1,Automatic,main,118,20251023-132625,local,global,750,S,H,E,E,E-S.png,H-E.png,sS,hH,mask-4.png,mask-3.png,s,1,1.7554571999935433,h,1,0.4119049000000814,0.04697989999840502,0.04569310000806581,0.1001789000001736,0.09988960000919178,0.7520035999914398
RSVPLG03,cs,20251023-131023,1.0.1,20251020-085245,714,Experiment,Both,1,Automatic,main,119,20251023-132631,global,local,300,S,S,A,E,S-A.png,E-S.png,sS,sS,mask-3.png,mask-1.png,s,1,1.135764399994514,h,0,0.5047604999999749,0.04771509999409318,0.04668159999710042,0.09998460000497289,0.09895699999469798,0.3005020999989938
RSVPLG03,cs,20251023-131023,1.0.1,20251020-085245,714,Experiment,Both,1,Automatic,main,120,20251023-132636,local,local,300,H,S,A,E,A-H.png,E-S.png,hH,sS,mask-4.png,mask-3.png,h,1,1.4508620999986306,s,1,0.3415353000018513,0.048748300003353506,0.04773620000923984,0.10086449999653269,0.10070350000751205,0.300526599996374
RSVPLG03,cs,20251023-131023,1.0.1,20251020-085245,714,Experiment,Both,1,Automatic,main,121,20251023-132642,local,global,750,H,S,A,A,A-H.png,S-A.png,hH,sS,mask-3.png,mask-2.png,h,1,0.7633706000051461,h,0,0.3679275000031339,0.04775250000238884,0.0477206999930786,0.09999099999549799,0.10029569998732768,0.7500392000074498
RSVPLG03,cs,20251023-131023,1.0.1,20251020-085245,714,Experiment,Both,1,Automatic,main,122,20251023-132647,global,global,750,H,H,A,A,H-A.png,H-A.png,hH,hH,mask-4.png,mask-4.png,h,1,0.7413394000031985,h,1,0.3796662999957334,0.04747689999931026,0.047588299989001825,0.0994044999970356,0.09870479999517556,0.749706700007664
RSVPLG03,cs,20251023-131023,1.0.1,20251020-085245,714,Experiment,Both,1,Automatic,main,123,20251023-132653,global,local,750,S,H,E,A,S-E.png,A-H.png,sS,hH,mask-1.png,mask-4.png,s,1,0.938778399999137,h,1,0.6227399000053992,0.04751419999229256,0.04861470000469126,0.09954769999603741,0.10163689999899361,0.7482509999972535
RSVPLG03,cs,20251023-131023,1.0.1,20251020-085245,714,Experiment,Both,1,Automatic,main,124,20251023-132658,local,global,300,S,H,E,A,E-S.png,H-A.png,sS,hH,mask-2.png,mask-4.png,h,0,3.1396409000008134,s,0,0.34757559999707155,0.047556599995004945,0.048543500000960194,0.10056880000047386,0.10059719999844674,0.2998783000075491
RSVPLG03,cs,20251023-131023,1.0.1,20251020-085245,714,Experiment,Both,1,Automatic,main,125,20251023-132706,local,local,300,H,S,E,A,E-H.png,A-S.png,hH,sS,mask-1.png,mask-3.png,h,1,0.8591548999975203,h,0,0.4236858999938704,0.048589899990474805,0.046566599994548596,0.1016615999978967,0.09965979999105912,0.30197539999790024
RSVPLG03,cs,20251023-132906,1.0.1,20251020-085245,714,Experiment,Both,1,Automatic,warmup,1,20251023-132939,global,global,300,H,H,A,A,H-A.png,H-A.png,hH,hH,mask-1.png,mask-4.png,h,1,1.006154399990919,h,1,0.4444689000083599,0.04003230000671465,0.04755160000058822,0.09304930000507738,0.09955250000348315,0.2931998999993084
RSVPLG03,cs,20251023-132906,1.0.1,20251020-085245,714,Experiment,Both,1,Automatic,warmup,2,20251023-132944,local,global,300,S,S,A,A,A-S.png,S-A.png,sS,sS,mask-4.png,mask-4.png,s,1,1.1639183000079356,h,0,0.29556999998749234,0.04700570000568405,0.047708600002806634,0.10002929999609478,0.09931220000726171,0.3007521999970777
RSVPLG03,cs,20251023-132906,1.0.1,20251020-085245,714,Experiment,Both,1,Automatic,warmup,3,20251023-132949,global,local,300,H,S,A,A,H-A.png,A-S.png,hH,sS,mask-3.png,mask-1.png,h,1,0.9748722999938764,s,1,0.49652810000407044,0.04651599998760503,0.04851269999926444,0.0995215000002645,0.10051879999809898,0.2988842999911867
RSVPLG03,cs,20251023-132906,1.0.1,20251020-085245,714,Experiment,Both,1,Automatic,warmup,4,20251023-132955,local,local,300,H,H,A,A,A-H.png,A-H.png,hH,hH,mask-2.png,mask-2.png,h,1,0.9432116999960272,h,1,0.3804987999901641,0.047346299994387664,0.04752439999720082,0.10035130000323988,0.09947649999230634,0.2994496000028448
RSVPLG03,cs,20251023-132906,1.0.1,20251020-085245,714,Experiment,Both,1,Automatic,warmup,5,20251023-133000,global,local,750,S,H,E,E,S-E.png,E-H.png,sS,hH,mask-3.png,mask-4.png,s,1,1.2433278000098653,h,1,0.5876446000038413,0.04772170000069309,0.04757610001252033,0.10008160000143107,0.10075170001073275,0.7491589999990538
RSVPLG03,cs,20251023-132906,1.0.1,20251020-085245,714,Experiment,Both,1,Automatic,main,6,20251023-133006,local,local,750,S,S,A,E,A-S.png,E-S.png,sS,sS,mask-4.png,mask-1.png,h,0,1.5525584999995772,s,1,0.5496857999969507,0.047682599994004704,0.04675230001157615,0.09921499999472871,0.0990493000135757,0.750295299993013
RSVPLG03,cs,20251023-132906,1.0.1,20251020-085245,714,Experiment,Both,1,Automatic,main,7,20251023-133012,local,global,750,S,H,E,A,E-S.png,H-A.png,sS,hH,mask-2.png,mask-2.png,s,1,0.8714244000002509,h,1,0.3050913000042783,0.04748930000641849,0.047507499999483116,0.09938790000160225,0.09937779999745544,0.7502017000078922
RSVPLG03,cs,20251023-132906,1.0.1,20251020-085245,714,Experiment,Both,1,Automatic,main,8,20251023-133018,global,local,750,S,H,E,A,S-E.png,A-H.png,sS,hH,mask-1.png,mask-1.png,h,0,0.5748307000030763,h,1,0.5051391000015428,0.04754520001006313,0.048408499991637655,0.10056279999844264,0.09941589999652933,0.7503217000048608
RSVPLG03,cs,20251023-132906,1.0.1,20251020-085245,714,Experiment,Both,1,Automatic,main,9,20251023-133023,global,local,300,H,S,A,A,H-A.png,A-S.png,hH,sS,mask-3.png,mask-4.png,h,1,0.7973928999999771,s,1,0.6039292999921599,0.04752750000625383,0.047528300012345426,0.09954049999942072,0.09959160001017153,0.29979039999307133
RSVPLG03,cs,20251023-132906,1.0.1,20251020-085245,714,Experiment,Both,1,Automatic,main,10,20251023-133028,global,global,300,H,H,E,E,H-E.png,H-E.png,hH,hH,mask-1.png,mask-3.png,h,1,0.7683383000112372,h,1,1.1708868999994593,0.04698620000272058,0.04740089998813346,0.09958690000348724,0.10127769999962766,0.2994597000069916
RSVPLG03,cs,20251023-132906,1.0.1,20251020-085245,714,Experiment,Both,1,Automatic,main,11,20251023-133034,local,local,750,S,S,E,E,E-S.png,E-S.png,sS,sS,mask-4.png,mask-2.png,s,1,2.0838997999962885,s,1,0.8549492000020109,0.047504500005743466,0.047503299996606074,0.09951549999823328,0.09851209999760613,0.7496401999960653
RSVPLG03,cs,20251023-132906,1.0.1,20251020-085245,714,Experiment,Both,1,Automatic,main,12,20251023-133041,local,global,300,H,S,E,A,E-H.png,S-A.png,hH,sS,mask-3.png,mask-4.png,h,1,1.1204773999925237,h,0,0.8035738000035053,0.049415299989050254,0.047479399989242665,0.10060900000098627,0.09953249999671243,0.30046589999983553
RSVPLG03,cs,20251023-132906,1.0.1,20251020-085245,714,Experiment,Both,1,Automatic,main,13,20251023-133047,global,local,300,S,S,E,A,S-E.png,A-S.png,sS,sS,mask-4.png,mask-4.png,h,0,0.9877903000015067,s,1,0.9019878999970388,0.046481500001391396,0.04667300000437535,0.09958500000357162,0.09907190001104027,0.3002113999973517
RSVPLG03,cs,20251023-132906,1.0.1,20251020-085245,714,Experiment,Both,1,Automatic,main,14,20251023-133052,local,global,300,H,H,A,E,A-H.png,H-E.png,hH,hH,mask-2.png,mask-2.png,h,1,0.9474370999960229,h,1,0.31057960000180174,0.04692339999019168,0.0471049000043422,0.09993839998787735,0.10012909999932162,0.2997041999915382
RSVPLG03,cs,20251023-132906,1.0.1,20251020-085245,714,Experiment,Both,1,Automatic,main,15,20251023-133057,local,local,300,H,H,E,E,E-H.png,E-H.png,hH,hH,mask-3.png,mask-3.png,h,1,1.3751993000041693,h,1,0.7324575999955414,0.048499800002900884,0.048507100000279024,0.10048090000054799,0.10039999999571592,0.2996144000062486
RSVPLG03,cs,20251023-132906,1.0.1,20251020-085245,714,Experiment,Both,1,Automatic,main,16,20251023-133103,global,local,300,S,H,E,E,S-E.png,E-H.png,sS,hH,mask-1.png,mask-4.png,h,0,0.9195173000043724,h,1,0.4550457000004826,0.04752880000160076,0.047427500001504086,0.09843939999700524,0.10125909998896532,0.2985513000021456
RSVPLG03,cs,20251023-132906,1.0.1,20251020-085245,714,Experiment,Both,1,Automatic,main,17,20251023-133108,global,local,750,S,S,A,E,S-A.png,E-S.png,sS,sS,mask-2.png,mask-3.png,h,0,1.0186666999943554,s,1,0.7714071000082185,0.04849919999833219,0.04768089999561198,0.10099399999307934,0.10078579999390058,0.7505966000026092
RSVPLG03,cs,20251023-132906,1.0.1,20251020-085245,714,Experiment,Both,1,Automatic,main,18,20251023-133114,global,global,750,S,S,A,A,S-A.png,S-A.png,sS,sS,mask-3.png,mask-1.png,s,1,3.322245400006068,h,0,0.23051229999691714,0.04669920000014827,0.04773849999764934,0.09893260001263116,0.09978029999183491,0.7489269000070635
RSVPLG03,cs,20251023-132906,1.0.1,20251020-085245,714,Experiment,Both,1,Automatic,main,19,20251023-133122,global,local,750,H,H,A,E,H-A.png,E-H.png,hH,hH,mask-4.png,mask-2.png,h,1,1.1123382999940077,h,1,0.6307186000049114,0.046996600009151734,0.04771310000796802,0.10000760000548325,0.10089670000888873,0.748918400000548
RSVPLG03,cs,20251023-132906,1.0.1,20251020-085245,714,Experiment,Both,1,Automatic,main,20,20251023-133128,global,local,300,H,S,A,A,H-A.png,A-S.png,hH,sS,mask-2.png,mask-2.png,h,1,0.8546236999973189,s,1,0.18440560001181439,0.04702490000636317,0.0484510000096634,0.09823420000611804,0.10012030000507366,0.2988377000001492
RSVPLG03,cs,20251023-132906,1.0.1,20251020-085245,714,Experiment,Both,1,Automatic,main,21,20251023-133133,global,global,750,S,S,A,E,S-A.png,S-E.png,sS,sS,mask-4.png,mask-4.png,s,1,0.7443288999929791,s,1,0.29739759999210946,0.04657650001172442,0.047512899996945634,0.09994580000056885,0.09951210000144783,0.749672100006137
RSVPLG03,cs,20251023-132906,1.0.1,20251020-085245,714,Experiment,Both,1,Automatic,main,22,20251023-133138,local,local,300,S,H,E,E,E-S.png,E-H.png,sS,hH,mask-3.png,mask-4.png,s,1,0.9641565999918384,h,1,0.4759074000030523,0.04755809999187477,0.0475869999936549,0.10061629999836441,0.1005795999953989,0.3000006999936886
RSVPLG03,cs,20251023-132906,1.0.1,20251020-085245,714,Experiment,Both,1,Automatic,main,23,20251023-133143,global,local,300,H,S,A,E,H-A.png,E-S.png,hH,sS,mask-4.png,mask-4.png,h,1,0.9002725000027567,s,1,0.3569978000014089,0.04593829999794252,0.047563000000081956,0.10010119999060407,0.10063860000809655,0.29943509999429807
RSVPLG03,cs,20251023-132906,1.0.1,20251020-085245,714,Experiment,Both,1,Automatic,main,24,20251023-133148,local,global,750,H,S,A,A,A-H.png,S-A.png,hH,sS,mask-4.png,mask-2.png,h,1,1.268339799993555,s,1,0.41044250001141336,0.04766660000314005,0.047537199992802925,0.10183699999470264,0.10141969998949207,0.7498249000054784
RSVPLG03,cs,20251023-132906,1.0.1,20251020-085245,714,Experiment,Both,1,Automatic,main,25,20251023-133154,local,global,750,H,H,A,A,A-H.png,H-A.png,hH,hH,mask-4.png,mask-4.png,h,1,0.910706199996639,h,1,0.7649451000033878,0.047670399988419376,0.04667470000276808,0.10007669999322388,0.09879750000254717,0.7510404999920866
RSVPLG03,cs,20251023-132906,1.0.1,20251020-085245,714,Experiment,Both,1,Automatic,main,26,20251023-133259,local,global,300,S,S,A,E,A-S.png,S-E.png,sS,sS,mask-3.png,mask-2.png,s,1,1.4417591999954311,h,0,0.5100951000058558,0.04769170000508893,0.045707500001299195,0.10010419999889564,0.09991159998753574,0.3000524000090081
RSVPLG03,cs,20251023-132906,1.0.1,20251020-085245,714,Experiment,Both,1,Automatic,main,27,20251023-133305,local,local,300,S,S,E,A,E-S.png,A-S.png,sS,sS,mask-3.png,mask-2.png,s,1,1.922466899995925,s,1,0.1994055999966804,0.047677399998065084,0.047722500006784685,0.09988720000546891,0.09990990000369493,0.3004092000046512
RSVPLG03,cs,20251023-132906,1.0.1,20251020-085245,714,Experiment,Both,1,Automatic,main,28,20251023-133311,local,local,300,S,S,E,A,E-S.png,A-S.png,sS,sS,mask-3.png,mask-2.png,s,1,1.8366982000006828,s,1,0.3323651999962749,0.048352099998737685,0.047522599998046644,0.09937239999999292,0.09856410000065807,0.30063179999706335
RSVPLG03,cs,20251023-132906,1.0.1,20251020-085245,714,Experiment,Both,1,Automatic,main,29,20251023-133317,global,local,300,H,S,A,E,H-A.png,E-S.png,hH,sS,mask-3.png,mask-4.png,h,1,0.8901256999961333,s,1,0.30962249998992775,0.047553700002026744,0.04758379999839235,0.10155479999957606,0.09876290000102017,0.3015594000025885
RSVPLG03,cs,20251023-132906,1.0.1,20251020-085245,714,Experiment,Both,1,Automatic,main,30,20251023-133322,global,global,300,H,S,E,A,H-E.png,S-A.png,hH,sS,mask-4.png,mask-3.png,h,1,1.2163427999912528,h,0,0.7640111000073375,0.04861689999233931,0.047517799990600906,0.09974819999479223,0.09954680000373628,0.30146760000206996
RSVPLG03,cs,20251023-132906,1.0.1,20251020-085245,714,Experiment,Both,1,Automatic,main,31,20251023-133327,global,local,750,S,S,A,E,S-A.png,E-S.png,sS,sS,mask-1.png,mask-3.png,s,1,2.5589569000003394,s,1,0.5481242000096245,0.04669529999955557,0.04581310000503436,0.09988870000233874,0.10001760000886861,0.750147200000356
RSVPLG03,cs,20251023-132906,1.0.1,20251020-085245,714,Experiment,Both,1,Automatic,main,32,20251023-133335,global,global,300,S,S,A,E,S-A.png,S-E.png,sS,sS,mask-1.png,mask-1.png,s,1,2.432532300008461,h,0,0.4545924999983981,0.0478822000004584,0.04760580000584014,0.09998600000108127,0.10063200000149664,0.29928380000637844
RSVPLG03,cs,20251023-132906,1.0.1,20251020-085245,714,Experiment,Both,1,Automatic,main,33,20251023-133341,local,local,300,H,S,E,A,E-H.png,A-S.png,hH,sS,mask-2.png,mask-4.png,h,1,0.9266987000009976,h,0,0.29606280000007246,0.04752939999161754,0.04750640000565909,0.0994722999894293,0.09961600000679027,0.29981099998985883
RSVPLG03,cs,20251023-132906,1.0.1,20251020-085245,714,Experiment,Both,1,Automatic,main,34,20251023-133346,global,local,750,S,H,A,A,S-A.png,A-H.png,sS,hH,mask-2.png,mask-2.png,h,0,1.5004764000041177,s,0,0.40587800000503194,0.048732099996414036,0.04569369999808259,0.10011040000244975,0.09985949999827426,0.7514650000084657
RSVPLG03,cs,20251023-132906,1.0.1,20251020-085245,714,Experiment,Both,1,Automatic,main,35,20251023-133352,local,global,300,H,S,A,E,A-H.png,S-E.png,hH,sS,mask-3.png,mask-4.png,h,1,1.5441113999986555,s,1,0.4475927000021329,0.04849520001152996,0.049547999995411374,0.10051940000266768,0.10047099999792408,0.2990375000081258
RSVPLG03,cs,20251023-132906,1.0.1,20251020-085245,714,Experiment,Both,1,Automatic,main,36,20251023-133358,local,local,750,S,H,E,A,E-S.png,A-H.png,sS,hH,mask-2.png,mask-4.png,s,1,2.8753700999950524,h,1,0.17895549999957439,0.04659509999328293,0.045699600013904274,0.10082749999128282,0.09989450000284705,0.7507339999865508
RSVPLG03,cs,20251023-132906,1.0.1,20251020-085245,714,Experiment,Both,1,Automatic,main,37,20251023-133406,global,global,750,H,H,A,E,H-A.png,H-E.png,hH,hH,mask-2.png,mask-1.png,h,1,1.7854870000010123,h,1,0.32792840000183787,0.04752210000879131,0.04726959999243263,0.09956430000602268,0.0982742999913171,0.7497793000075035
RSVPLG03,cs,20251023-132906,1.0.1,20251020-085245,714,Experiment,Both,1,Automatic,main,38,20251023-133412,local,local,750,S,H,E,E,E-S.png,E-H.png,sS,hH,mask-2.png,mask-4.png,s,1,1.7937689000100363,h,1,0.18141859999741428,0.047534400000586174,0.047512100005405955,0.10068099999625701,0.09955840000475291,0.7491691999894101
RSVPLG03,cs,20251023-132906,1.0.1,20251020-085245,714,Experiment,Both,1,Automatic,main,39,20251023-133418,local,global,300,H,H,A,A,A-H.png,H-A.png,hH,hH,mask-1.png,mask-3.png,h,1,1.3450649000005797,s,0,0.5322279999963939,0.04695010000432376,0.046675499994307756,0.10132810000504833,0.09886869999172632,0.30091340000217315
RSVPLG03,cs,20251023-132906,1.0.1,20251020-085245,714,Experiment,Both,1,Automatic,main,40,20251023-133424,local,global,300,S,S,E,A,E-S.png,S-A.png,sS,sS,mask-1.png,mask-2.png,s,1,1.4468477999907918,h,0,0.20265639999706764,0.045707299999776296,0.04881059999752324,0.0999007999926107,0.10106050000467803,0.29822509999212343
RSVPLG03,cs,20251023-132906,1.0.1,20251020-085245,714,Experiment,Both,1,Automatic,main,41,20251023-133429,local,global,750,S,H,E,A,E-S.png,H-A.png,sS,hH,mask-2.png,mask-1.png,s,1,1.2456156999978703,h,1,0.3578306999988854,0.04679519998899195,0.04657239999505691,0.09888879999925848,0.10059560000081547,0.7499098999978742
RSVPLG03,cs,20251023-132906,1.0.1,20251020-085245,714,Experiment,Both,1,Automatic,main,42,20251023-133435,local,local,300,S,H,A,E,A-S.png,E-H.png,sS,hH,mask-2.png,mask-4.png,s,1,1.4030547999864211,h,1,0.3743761999940034,0.04767879999417346,0.04867780000495259,0.10195850000309292,0.09974819999479223,0.30053269999916665
RSVPLG03,cs,20251023-132906,1.0.1,20251020-085245,714,Experiment,Both,1,Automatic,main,43,20251023-133441,global,local,300,H,H,A,A,H-A.png,A-H.png,hH,hH,mask-3.png,mask-2.png,h,1,0.7204896000039298,h,1,0.560459100001026,0.045559899997897446,0.046600200003013015,0.09854920000361744,0.09956709999823943,0.29982980000204407
RSVPLG03,cs,20251023-132906,1.0.1,20251020-085245,714,Experiment,Both,1,Automatic,main,44,20251023-133446,local,global,750,S,S,A,E,A-S.png,S-E.png,sS,sS,mask-3.png,mask-3.png,s,1,0.9853963999921689,h,0,0.298215299990261,0.047011400005430914,0.047395600005984306,0.10024910001084208,0.09943940000084694,0.7498947999993106
RSVPLG03,cs,20251023-132906,1.0.1,20251020-085245,714,Experiment,Both,1,Automatic,main,45,20251023-133451,global,local,300,H,S,A,A,H-A.png,A-S.png,hH,sS,mask-1.png,mask-4.png,h,1,0.844971099999384,h,0,1.5639055999927223,0.04583909999928437,0.04637430000002496,0.09981970000080764,0.10037270000611898,0.29894039999635424
RSVPLG03,cs,20251023-132906,1.0.1,20251020-085245,714,Experiment,Both,1,Automatic,main,46,20251023-133457,global,global,750,S,H,E,A,S-E.png,H-A.png,sS,hH,mask-1.png,mask-4.png,s,1,1.128967199998442,h,1,0.40967259999888483,0.04653449999750592,0.047475900006247684,0.09854649999761023,0.09917320001113694,0.7493134999967879
RSVPLG03,cs,20251023-132906,1.0.1,20251020-085245,714,Experiment,Both,1,Automatic,main,47,20251023-133503,global,global,750,S,S,E,E,S-E.png,S-E.png,sS,sS,mask-3.png,mask-3.png,s,1,0.7766723999957321,s,1,0.7081839999882504,0.04769930000475142,0.047691200001281686,0.10180980000586715,0.09994480000750627,0.7499008000013418
RSVPLG03,cs,20251023-132906,1.0.1,20251020-085245,714,Experiment,Both,1,Automatic,main,48,20251023-133509,local,global,750,H,S,E,E,E-H.png,S-E.png,hH,sS,mask-4.png,mask-4.png,h,1,0.8006074000004446,s,1,0.39647980000881944,0.04851399999461137,0.0480602000025101,0.0997062999958871,0.09930800000438467,0.7497031999955652
RSVPLG03,cs,20251023-132906,1.0.1,20251020-085245,714,Experiment,Both,1,Automatic,main,49,20251023-133514,global,global,300,H,H,A,A,H-A.png,H-A.png,hH,hH,mask-4.png,mask-4.png,h,1,1.0553566000016872,h,1,0.36355929999263026,0.047521700005745515,0.04570259999309201,0.09853550000116229,0.09978889999911189,0.29984970000805333
RSVPLG03,cs,20251023-132906,1.0.1,20251020-085245,714,Experiment,Both,1,Automatic,main,50,20251023-133519,local,global,750,S,H,A,E,A-S.png,H-E.png,sS,hH,mask-2.png,mask-2.png,s,1,0.898451600005501,h,1,0.2125261000037426,0.04879479999362957,0.048536000002059154,0.10077029999229126,0.10051570000359789,0.7500785999873187
RSVPLG03,cs,20251023-132906,1.0.1,20251020-085245,714,Experiment,Both,1,Automatic,main,51,20251023-133659,global,global,300,S,S,A,E,S-A.png,S-E.png,sS,sS,mask-3.png,mask-2.png,s,1,1.0447884000022896,h,0,0.5398376000084681,0.04767159999755677,0.04847360000712797,0.09987879999971483,0.10068970000429545,0.29916429999866523
RSVPLG03,cs,20251023-132906,1.0.1,20251020-085245,714,Experiment,Both,1,Automatic,main,52,20251023-133705,global,global,750,H,S,A,E,H-A.png,S-E.png,hH,sS,mask-3.png,mask-1.png,h,1,0.8955587000091327,s,1,0.4079094000044279,0.04853440000442788,0.04603139999380801,0.10073849999753293,0.09874719999788795,0.7508445999992546
RSVPLG03,cs,20251023-132906,1.0.1,20251020-085245,714,Experiment,Both,1,Automatic,main,53,20251023-133710,global,global,750,S,S,A,A,S-A.png,S-A.png,sS,sS,mask-1.png,mask-1.png,s,1,0.8063869999896269,s,1,0.7309130999929039,0.04771400000026915,0.045525400011683814,0.09874660000787117,0.09804799999983516,0.7502043999993475
RSVPLG03,cs,20251023-132906,1.0.1,20251020-085245,714,Experiment,Both,1,Automatic,main,54,20251023-133716,local,global,750,H,S,E,A,E-H.png,S-A.png,hH,sS,mask-1.png,mask-3.png,h,1,0.9461255999922287,s,1,0.44202640000730753,0.04770099998859223,0.04885330000251997,0.10073299999930896,0.10112980000849348,0.7496066999883624
RSVPLG03,cs,20251023-132906,1.0.1,20251020-085245,714,Experiment,Both,1,Automatic,main,55,20251023-133722,global,local,300,S,H,A,A,S-A.png,A-H.png,sS,hH,mask-4.png,mask-3.png,s,1,0.9965669000084745,h,1,0.2818708999984665,0.04869779999717139,0.04765980000956915,0.10091009999450762,0.09969350000028498,0.3005434999940917
RSVPLG03,cs,20251023-132906,1.0.1,20251020-085245,714,Experiment,Both,1,Automatic,main,56,20251023-133727,global,global,750,H,H,A,A,H-A.png,H-A.png,hH,hH,mask-2.png,mask-1.png,h,1,0.9242816000041785,h,1,0.6150519999937387,0.04785799999081064,0.047674200002802536,0.10005300000193529,0.1006098999932874,0.748348499997519
RSVPLG03,cs,20251023-132906,1.0.1,20251020-085245,714,Experiment,Both,1,Automatic,main,57,20251023-133733,local,global,300,H,H,E,E,E-H.png,H-E.png,hH,hH,mask-1.png,mask-4.png,h,1,1.1395129000011366,h,1,0.517509399986011,0.04604780000227038,0.046695099998032674,0.1003950000012992,0.09999200000311248,0.30021940000006
RSVPLG03,cs,20251023-132906,1.0.1,20251020-085245,714,Experiment,Both,1,Automatic,main,58,20251023-133738,global,local,750,S,H,E,A,S-E.png,A-H.png,sS,hH,mask-2.png,mask-2.png,s,1,0.7472100000013597,h,1,0.6784455000015441,0.046979999999166466,0.048686699999962,0.09823730000061914,0.10087850000127219,0.748641400001361
RSVPLG03,cs,20251023-132906,1.0.1,20251020-085245,714,Experiment,Both,1,Automatic,main,59,20251023-133744,local,local,300,S,H,A,A,A-S.png,A-H.png,sS,hH,mask-2.png,mask-3.png,s,1,0.9012096999940695,h,1,0.4341585999936797,0.04749700000684243,0.04851989999588113,0.10148169999592938,0.09967440000036731,0.30038770000101067
RSVPLG03,cs,20251023-132906,1.0.1,20251020-085245,714,Experiment,Both,1,Automatic,main,60,20251023-133749,local,global,300,S,S,A,E,A-S.png,S-E.png,sS,sS,mask-2.png,mask-3.png,s,1,0.751951199999894,h,0,0.31573370000114664,0.04869549999420997,0.047686799996881746,0.1001605999917956,0.10178470000391826,0.29979989999264944
RSVPLG03,cs,20251023-132906,1.0.1,20251020-085245,714,Experiment,Both,1,Automatic,main,61,20251023-133754,global,global,300,H,S,A,A,H-A.png,S-A.png,hH,sS,mask-2.png,mask-3.png,h,1,0.7372971000004327,s,1,0.7921692000090843,0.04769860001397319,0.04570410000451375,0.09850350000488106,0.09989589999895543,0.3001379000052111
RSVPLG03,cs,20251023-132906,1.0.1,20251020-085245,714,Experiment,Both,1,Automatic,main,62,20251023-133759,local,global,300,H,H,E,A,E-H.png,H-A.png,hH,hH,mask-4.png,mask-3.png,h,1,0.7306079999980284,h,1,0.38955440001154784,0.04721480001171585,0.04632940000738017,0.09762050000426825,0.10024680000788067,0.29953760000353213
RSVPLG03,cs,20251023-132906,1.0.1,20251020-085245,714,Experiment,Both,1,Automatic,main,63,20251023-133804,local,local,750,H,S,A,A,A-H.png,A-S.png,hH,sS,mask-3.png,mask-3.png,h,1,4.30456000000413,s,1,0.2821384999988368,0.04753349999373313,0.045380800002021715,0.10016889999678824,0.09928760000912007,0.7500546999945072
RSVPLG03,cs,20251023-132906,1.0.1,20251020-085245,714,Experiment,Both,1,Automatic,main,64,20251023-133813,local,global,300,H,H,A,A,A-H.png,H-A.png,hH,hH,mask-3.png,mask-2.png,h,1,0.7831450999947265,h,1,0.47442189999856055,0.04751759998907801,0.04654719999234658,0.10052189999260008,0.09855559999414254,0.3018374999955995
RSVPLG03,cs,20251023-132906,1.0.1,20251020-085245,714,Experiment,Both,1,Automatic,main,65,20251023-133818,local,global,750,H,H,E,E,E-H.png,H-E.png,hH,hH,mask-2.png,mask-2.png,h,1,1.331122099989443,h,1,0.32804580000811256,0.047057400006451644,0.04569620000256691,0.09828380000544712,0.09989349999523256,0.7498720000003232
RSVPLG03,cs,20251023-132906,1.0.1,20251020-085245,714,Experiment,Both,1,Automatic,main,66,20251023-133824,local,local,750,S,H,A,A,A-S.png,A-H.png,sS,hH,mask-2.png,mask-2.png,s,1,3.7249426000053063,h,1,0.30148629999894183,0.04699030000483617,0.047697299989522435,0.100013699993724,0.09992319998855237,0.7497233000030974
RSVPLG03,cs,20251023-132906,1.0.1,20251020-085245,714,Experiment,Both,1,Automatic,main,67,20251023-133832,global,global,300,S,H,A,A,S-A.png,H-A.png,sS,hH,mask-4.png,mask-2.png,s,1,1.8121537000115495,h,1,0.1799929999979213,0.04750999998941552,0.04750929999863729,0.10052409999480005,0.101518199997372,0.2987649999995483
RSVPLG03,cs,20251023-132906,1.0.1,20251020-085245,714,Experiment,Both,1,Automatic,main,68,20251023-133838,global,global,300,H,S,A,E,H-A.png,S-E.png,hH,sS,mask-1.png,mask-4.png,h,1,1.8738581999932649,s,1,0.3924142000032589,0.047604599996702746,0.04752790000929963,0.09964889999537263,0.10162790000322275,0.2981118999887258
RSVPLG03,cs,20251023-132906,1.0.1,20251020-085245,714,Experiment,Both,1,Automatic,main,69,20251023-133844,local,local,300,H,S,E,A,E-H.png,A-S.png,hH,sS,mask-4.png,mask-2.png,h,1,0.8452704000083031,h,0,0.23814270000730176,0.047459499997785315,0.04835649998858571,0.10054670000681654,0.09890149999409914,0.3008435000083409
RSVPLG03,cs,20251023-132906,1.0.1,20251020-085245,714,Experiment,Both,1,Automatic,main,70,20251023-133849,global,local,300,S,H,A,E,S-A.png,E-H.png,sS,hH,mask-3.png,mask-4.png,s,1,2.0233533999999054,h,1,0.2402150999987498,0.046925899994676,0.047133000000030734,0.10113479998835828,0.10131460000411607,0.299828899995191
RSVPLG03,cs,20251023-132906,1.0.1,20251020-085245,714,Experiment,Both,1,Automatic,main,71,20251023-133855,local,local,750,S,H,A,A,A-S.png,A-H.png,sS,hH,mask-4.png,mask-4.png,s,1,1.7171285999938846,h,1,0.5545113999978639,0.04713140000239946,0.04770910000661388,0.09919100000115577,0.0998706999962451,0.7495656999963103
RSVPLG03,cs,20251023-132906,1.0.1,20251020-085245,714,Experiment,Both,1,Automatic,main,72,20251023-133901,local,global,300,H,H,A,A,A-H.png,H-A.png,hH,hH,mask-4.png,mask-4.png,h,1,1.073439200001303,h,1,0.2580787000042619,0.04786869999952614,0.04728210000030231,0.09921270000631921,0.10027960001025349,0.29948200000217184
RSVPLG03,cs,20251023-132906,1.0.1,20251020-085245,714,Experiment,Both,1,Automatic,main,73,20251023-133906,local,local,300,S,S,E,E,E-S.png,E-S.png,sS,sS,mask-3.png,mask-2.png,s,1,1.0336839000083273,h,0,0.3129130000015721,0.0474848000012571,0.0473574999923585,0.0992580000020098,0.0990270999900531,0.3003682000125991
RSVPLG03,cs,20251023-132906,1.0.1,20251020-085245,714,Experiment,Both,1,Automatic,main,74,20251023-133911,global,local,750,H,H,A,E,H-A.png,E-H.png,hH,hH,mask-4.png,mask-4.png,h,1,0.7546967000089353,h,1,0.29453169999760576,0.047688999999081716,0.04673770000226796,0.09995459999481682,0.09916040000098292,0.750781900002039
RSVPLG03,cs,20251023-132906,1.0.1,20251020-085245,714,Experiment,Both,1,Automatic,main,75,20251023-133917,global,local,750,H,S,A,E,H-A.png,E-S.png,hH,sS,mask-1.png,mask-4.png,h,1,0.9062113000109093,s,1,0.08913619999657385,0.046717199991689995,0.04768460000923369,0.09891919999790844,0.0998612000112189,0.748815699989791
RSVPLG03,cs,20251023-132906,1.0.1,20251020-085245,714,Experiment,Both,1,Automatic,main,76,20251023-134150,global,global,300,S,S,E,A,S-E.png,S-A.png,sS,sS,mask-2.png,mask-2.png,s,1,1.014581299998099,h,0,0.3649040000018431,0.04752790000929963,0.0475323999999091,0.10059080000792164,0.09954799999832176,0.3008572000107961
RSVPLG03,cs,20251023-132906,1.0.1,20251020-085245,714,Experiment,Both,1,Automatic,main,77,20251023-134155,local,global,750,S,H,E,A,E-S.png,H-A.png,sS,hH,mask-4.png,mask-1.png,s,1,0.8541750000003958,h,1,0.30899999999383,0.04756479999923613,0.04760879999957979,0.10154830000828952,0.09926950000226498,0.7504864000075031
RSVPLG03,cs,20251023-132906,1.0.1,20251020-085245,714,Experiment,Both,1,Automatic,main,78,20251023-134200,global,global,300,S,S,A,A,S-A.png,S-A.png,sS,sS,mask-1.png,mask-4.png,s,1,0.9519409999920754,h,0,0.42583469999954104,0.04851550000603311,0.04750800000329036,0.09953419999510515,0.09852220000175294,0.3008627999952296
RSVPLG03,cs,20251023-132906,1.0.1,20251020-085245,714,Experiment,Both,1,Automatic,main,79,20251023-134206,global,global,300,S,H,E,E,S-E.png,H-E.png,sS,hH,mask-3.png,mask-4.png,s,1,1.5566207999945618,h,1,0.548512599998503,0.04729389998828992,0.04903310000372585,0.10036169999511912,0.10038299999723677,0.2991193999914685
RSVPLG03,cs,20251023-132906,1.0.1,20251020-085245,714,Experiment,Both,1,Automatic,main,80,20251023-134211,local,global,750,H,H,E,E,E-H.png,H-E.png,hH,hH,mask-1.png,mask-4.png,h,1,0.9604054000083124,h,1,0.37748880000435747,0.04658580000977963,0.04786880000028759,0.10081299999728799,0.09983110000030138,0.7488818999991054
RSVPLG03,cs,20251023-132906,1.0.1,20251020-085245,714,Experiment,Both,1,Automatic,main,81,20251023-134217,local,global,300,H,S,E,E,E-H.png,S-E.png,hH,sS,mask-4.png,mask-4.png,h,1,1.0384400999901118,s,1,0.38143370000761934,0.04554039999493398,0.04750889999559149,0.09966179999173619,0.09854019999329466,0.29940190000343136
RSVPLG03,cs,20251023-132906,1.0.1,20251020-085245,714,Experiment,Both,1,Automatic,main,82,20251023-134222,global,local,300,H,S,A,E,H-A.png,E-S.png,hH,sS,mask-4.png,mask-2.png,h,1,0.8627142000041204,s,1,0.8223679999937303,0.04642479999165516,0.047175600004266016,0.10045489999174606,0.09901350000291131,0.30010249999759253
RSVPLG03,cs,20251023-132906,1.0.1,20251020-085245,714,Experiment,Both,1,Automatic,main,83,20251023-134228,local,local,750,H,S,A,A,A-H.png,A-S.png,hH,sS,mask-1.png,mask-3.png,h,1,2.2963373999955365,h,0,0.7465051999897696,0.04753369999525603,0.0475360999989789,0.09939750000194181,0.10156199999619275,0.748175300002913
RSVPLG03,cs,20251023-132906,1.0.1,20251020-085245,714,Experiment,Both,1,Automatic,main,84,20251023-134235,local,local,750,H,H,A,E,A-H.png,E-H.png,hH,hH,mask-2.png,mask-1.png,h,1,0.7471627999912016,h,1,0.5992892999929609,0.047558100006426685,0.04568719999224413,0.10009390000777785,0.09972909999487456,0.7503988000098616
RSVPLG03,cs,20251023-132906,1.0.1,20251020-085245,714,Experiment,Both,1,Automatic,main,85,20251023-134241,local,global,300,S,S,A,A,A-S.png,S-A.png,sS,sS,mask-1.png,mask-3.png,s,1,1.0782811000099173,h,0,0.2682327999937115,0.04770579999603797,0.047737300003063865,0.10055750000174157,0.10078960000828374,0.30026709999947343
RSVPLG03,cs,20251023-132906,1.0.1,20251020-085245,714,Experiment,Both,1,Automatic,main,86,20251023-134246,global,local,300,H,H,E,E,H-E.png,E-H.png,hH,hH,mask-3.png,mask-4.png,h,1,1.020146399998339,h,1,0.596840099999099,0.04757540000719018,0.04739179999160115,0.10065290000056848,0.10043700000096578,0.2999934000108624
RSVPLG03,cs,20251023-132906,1.0.1,20251020-085245,714,Experiment,Both,1,Automatic,main,87,20251023-134251,global,global,300,H,H,E,A,H-E.png,H-A.png,hH,hH,mask-3.png,mask-4.png,h,1,0.9834013000072446,h,1,0.8921513999957824,0.047013600007630885,0.04706389999773819,0.10025210000458173,0.09946230000059586,0.3001461000094423
RSVPLG03,cs,20251023-132906,1.0.1,20251020-085245,714,Experiment,Both,1,Automatic,main,88,20251023-134257,local,local,300,S,S,A,A,A-S.png,A-S.png,sS,sS,mask-2.png,mask-3.png,s,1,1.202487900009146,h,0,0.29097219998948276,0.04751639999449253,0.045513999997638166,0.09899089999089483,0.09925749999820255,0.3004088000016054
RSVPLG03,cs,20251023-132906,1.0.1,20251020-085245,714,Experiment,Both,1,Automatic,main,89,20251023-134302,global,local,750,S,S,E,A,S-E.png,A-S.png,sS,sS,mask-2.png,mask-2.png,s,1,2.1643330000079004,h,0,0.31153289999929257,0.045702100003836676,0.04770579999603797,0.09887990000424907,0.09922390000429004,0.7484470000053989
RSVPLG03,cs,20251023-132906,1.0.1,20251020-085245,714,Experiment,Both,1,Automatic,main,90,20251023-134309,global,local,300,H,H,A,A,H-A.png,A-H.png,hH,hH,mask-2.png,mask-3.png,h,1,0.7452335999987554,h,1,0.22960299999976996,0.0488887999963481,0.048794600006658584,0.10032060000230558,0.09982960000343155,0.3001483999978518
RSVPLG03,cs,20251023-132906,1.0.1,20251020-085245,714,Experiment,Both,1,Automatic,main,91,20251023-134313,local,local,750,S,S,E,E,E-S.png,E-S.png,sS,sS,mask-1.png,mask-2.png,s,1,0.8674064999941038,s,1,0.2429785999993328,0.04776859999401495,0.046624499998870306,0.10043339998810552,0.09977050000452437,0.7505766999965999
