exp,exp_initials,runtime,ver,modtime,sub,blocktype,targets,cuetype,mode,trialtype,trial,trialtime,t1_level,t2_level,t2_lag,t1,t2,distractor1,distractor2,stimfile1,stimfile2,t1_corr,t2_corr,maskfile1,maskfile2,t1_resp,t1_acc,t1_rt,t2_resp,t2_acc,t2_rt,t1_dur,t2_dur,t1mask_soa,t2mask_soa,t1t2_soa
RSVPLG03,si,20260326-161413,1.0.2,20260219-152011,816,Introduction,T1,1,Automatic,main,1,20260326-161439,local,global,750,S,H,A,A,A-S.png,H-A.png,sS,hH,mask-1.png,mask-2.png,s,1,2.495158200035803,none,-5,0,0.0980860999552533,0.09922249999362975,0.19727499992586672,0.19772220007143915,0.7473809999646619
RSVPLG03,si,20260326-161413,1.0.2,20260219-152011,816,Introduction,T1,1,Automatic,main,2,20260326-161445,global,global,750,S,H,A,E,S-A.png,H-E.png,sS,hH,mask-4.png,mask-3.png,s,1,2.9019509999779984,none,-5,0,0.09944509994238615,0.10093019995838404,0.20022309990599751,0.2004094000440091,0.746430299943313
RSVPLG03,si,20260326-161413,1.0.2,20260219-152011,816,Introduction,T1,1,Automatic,main,3,20260326-161452,global,local,750,H,H,E,E,H-E.png,E-H.png,hH,hH,mask-4.png,mask-4.png,h,1,0.6855414999881759,none,-5,0,0.09928470000158995,0.09872529993299395,0.19819690007716417,0.1993642000015825,0.7481448000762612
RSVPLG03,si,20260326-161413,1.0.2,20260219-152011,816,Introduction,T1,1,Automatic,main,4,20260326-161457,local,global,750,S,H,A,A,A-S.png,H-A.png,sS,hH,mask-4.png,mask-1.png,s,1,0.3332145999884233,none,-5,0,0.09809949994087219,0.09963820001576096,0.19872989994473755,0.19868219993077219,0.7471517999656498
RSVPLG03,si,20260326-161413,1.0.2,20260219-152011,816,Introduction,T1,1,Automatic,main,5,20260326-161501,global,local,750,S,S,E,E,S-E.png,E-S.png,sS,sS,mask-3.png,mask-3.png,s,1,0.3112294999882579,none,-5,0,0.10090379999019206,0.09991049999371171,0.20092640002258122,0.1999368000542745,0.7480272999964654
RSVPLG03,si,20260326-161413,1.0.2,20260219-152011,816,Introduction,T1,1,Automatic,main,6,20260326-161506,global,global,750,H,S,E,E,H-E.png,S-E.png,hH,sS,mask-3.png,mask-4.png,h,1,0.16685360006522387,none,-5,0,0.1004578999709338,0.1000088999280706,0.19957939989399165,0.2001406999770552,0.7486062999814749
RSVPLG03,si,20260326-161413,1.0.2,20260219-152011,816,Introduction,T1,1,Automatic,main,7,20260326-161510,local,local,750,S,S,A,E,A-S.png,E-S.png,sS,sS,mask-1.png,mask-4.png,s,1,0.10391689999960363,none,-5,0,0.0978888999670744,0.10160189995076507,0.19796369993127882,0.20116629998665303,0.746204899973236
RSVPLG03,si,20260326-161413,1.0.2,20260219-152011,816,Introduction,T1,1,Automatic,main,8,20260326-161514,local,local,750,S,H,E,E,E-S.png,E-H.png,sS,hH,mask-4.png,mask-3.png,s,1,2.053315500030294,none,-5,0,0.09878690005280077,0.10040060000028461,0.19884920003823936,0.19888959999661893,0.7477889000438154
RSVPLG03,si,20260326-161413,1.0.2,20260219-152011,816,Introduction,T1,1,Automatic,main,9,20260326-161520,global,local,750,H,H,E,E,H-E.png,E-H.png,hH,hH,mask-4.png,mask-1.png,h,1,0.49446469999384135,none,-5,0,0.09886429994367063,0.09927529993001372,0.19864790001884103,0.19921230000909418,0.748242300003767
RSVPLG03,si,20260326-161413,1.0.2,20260219-152011,816,Introduction,T1,1,Automatic,main,10,20260326-161525,local,local,750,S,S,E,E,E-S.png,E-S.png,sS,sS,mask-4.png,mask-2.png,s,1,0.26157440000679344,none,-5,0,0.1000649998895824,0.09982789994683117,0.20020879991352558,0.19980379997286946,0.7485396999400109
RSVPLG03,si,20260326-161413,1.0.2,20260219-152011,816,Introduction,T1,1,Automatic,main,11,20260326-161529,global,global,750,S,S,E,E,S-E.png,S-E.png,sS,sS,mask-1.png,mask-1.png,none,-6,0,none,-5,0,0.0999159999191761,0.09955949999857694,0.2000569999217987,0.19958959997165948,0.747969500022009
RSVPLG03,si,20260326-161542,1.0.2,20260219-152011,816,Practice,T1,1,Automatic,main,1,20260326-161602,global,global,300,S,H,E,E,S-E.png,H-E.png,sS,hH,mask-4.png,mask-3.png,s,1,0.3987930999137461,none,-5,0,0.048462399980053306,0.04917679994832724,0.09881170000880957,0.09957640001084656,0.2997009999817237
RSVPLG03,si,20260326-161542,1.0.2,20260219-152011,816,Practice,T1,1,Automatic,main,2,20260326-161606,local,global,750,S,S,A,A,A-S.png,S-A.png,sS,sS,mask-2.png,mask-1.png,s,1,0.4228929999517277,none,-5,0,0.05071520002093166,0.04958920006174594,0.10102689999621361,0.09962940006516874,0.7523470999440178
RSVPLG03,si,20260326-161542,1.0.2,20260219-152011,816,Practice,T1,1,Automatic,main,3,20260326-161610,global,local,750,H,H,A,A,H-A.png,A-H.png,hH,hH,mask-1.png,mask-1.png,h,1,0.15630839997902513,none,-5,0,0.05107059993315488,0.05052439996507019,0.0998429999453947,0.10071319993585348,0.7520648000063375
RSVPLG03,si,20260326-161542,1.0.2,20260219-152011,816,Practice,T1,1,Automatic,main,4,20260326-161614,local,local,300,S,S,A,E,A-S.png,E-S.png,sS,sS,mask-1.png,mask-4.png,s,1,0.383058900013566,none,-5,0,0.051077699987217784,0.050098399980925024,0.1001350999576971,0.10020210000220686,0.3014007000019774
RSVPLG03,si,20260326-161542,1.0.2,20260219-152011,816,Practice,T1,1,Automatic,main,5,20260326-161618,global,global,300,H,S,A,A,H-A.png,S-A.png,hH,sS,mask-1.png,mask-3.png,h,1,0.26916840008925647,none,-5,0,0.04972160002216697,0.05172910005785525,0.09954240010119975,0.10082870000042021,0.3002254000166431
RSVPLG03,si,20260326-161542,1.0.2,20260219-152011,816,Practice,T1,1,Automatic,main,6,20260326-161622,global,global,750,H,S,A,A,H-A.png,S-A.png,hH,sS,mask-3.png,mask-1.png,h,1,0.41588880005292594,none,-5,0,0.04871480003930628,0.04949689994100481,0.09962200000882149,0.1015358999138698,0.7507761000888422
RSVPLG03,si,20260326-161542,1.0.2,20260219-152011,816,Practice,T1,1,Automatic,main,7,20260326-161627,global,local,300,H,H,E,A,H-E.png,A-H.png,hH,hH,mask-4.png,mask-1.png,h,1,0.4375095000723377,none,-5,0,0.05059890006668866,0.049843400018289685,0.10186789999715984,0.09968590002972633,0.3020303000230342
RSVPLG03,si,20260326-161542,1.0.2,20260219-152011,816,Practice,T1,1,Automatic,main,8,20260326-161631,local,local,750,S,H,A,E,A-S.png,E-H.png,sS,hH,mask-1.png,mask-1.png,s,1,0.3473659000592306,none,-5,0,0.04944830003660172,0.049104100093245506,0.09935809997841716,0.09891860000789165,0.7525666999863461
RSVPLG03,si,20260326-161542,1.0.2,20260219-152011,816,Practice,T1,1,Automatic,main,9,20260326-161635,local,global,300,S,H,E,E,E-S.png,H-E.png,sS,hH,mask-1.png,mask-1.png,s,1,0.4121828000061214,none,-5,0,0.04964910005219281,0.04972860007546842,0.09959750005509704,0.09931950003374368,0.30147910001687706
RSVPLG03,si,20260326-161542,1.0.2,20260219-152011,816,Practice,T1,1,Automatic,main,10,20260326-161639,local,local,750,H,S,E,A,E-H.png,A-S.png,hH,sS,mask-2.png,mask-4.png,h,1,0.17363480001222342,none,-5,0,0.05067699996288866,0.04975090001244098,0.1005390000063926,0.10011310002300888,0.7524189999094233
RSVPLG03,si,20260326-161542,1.0.2,20260219-152011,816,Practice,T1,1,Automatic,main,11,20260326-161643,local,global,750,H,S,A,E,A-H.png,S-E.png,hH,sS,mask-3.png,mask-2.png,h,1,0.26135020004585385,none,-5,0,0.04938100010622293,0.04973710002377629,0.09910049999598414,0.10127340001054108,0.750734300003387
RSVPLG03,si,20260326-161542,1.0.2,20260219-152011,816,Practice,T1,1,Automatic,main,12,20260326-161647,global,local,750,S,H,A,A,S-A.png,A-H.png,sS,hH,mask-1.png,mask-3.png,s,1,0.1686500000068918,none,-5,0,0.050421399995684624,0.050741099985316396,0.10044750000815839,0.10150209988933057,0.7511901000980288
RSVPLG03,si,20260326-161542,1.0.2,20260219-152011,816,Practice,T1,1,Automatic,main,13,20260326-161651,local,local,300,H,H,A,E,A-H.png,E-H.png,hH,hH,mask-1.png,mask-3.png,h,1,0.34529399999883026,none,-5,0,0.04903860006015748,0.05154949997086078,0.09910460002720356,0.10057260002940893,0.29946620005648583
RSVPLG03,si,20260326-161542,1.0.2,20260219-152011,816,Practice,T1,1,Automatic,main,14,20260326-161655,global,global,750,H,S,A,A,H-A.png,S-A.png,hH,sS,mask-2.png,mask-3.png,h,1,0.051024500047788024,none,-5,0,0.04923960007727146,0.04855239996686578,0.09953020000830293,0.09931580000557005,0.7524680000497028
RSVPLG03,si,20260326-161542,1.0.2,20260219-152011,816,Practice,T1,1,Automatic,main,15,20260326-161659,local,global,300,H,S,E,A,E-H.png,S-A.png,hH,sS,mask-1.png,mask-1.png,h,1,0.27731020003557205,none,-5,0,0.049717499990947545,0.051042099948972464,0.09958340006414801,0.10202120000030845,0.29970710002817214
RSVPLG03,si,20260326-161542,1.0.2,20260219-152011,816,Practice,T1,1,Automatic,main,16,20260326-161703,global,local,300,S,S,E,E,S-E.png,E-S.png,sS,sS,mask-3.png,mask-3.png,s,1,0.18845790007617325,none,-5,0,0.04946070001460612,0.051453599939122796,0.10001099994406104,0.10066159989219159,0.3007445000112057
RSVPLG03,si,20260326-161804,1.0.2,20260219-152011,816,Introduction,Both,1,Automatic,main,1,20260326-161825,global,local,750,S,H,E,A,S-E.png,A-H.png,sS,hH,mask-4.png,mask-2.png,s,1,0.8183631000574678,h,1,2.226656800019555,0.09627990005537868,0.10073170007672161,0.19576000003144145,0.20062680006958544,0.7450431999750435
RSVPLG03,si,20260326-161804,1.0.2,20260219-152011,816,Introduction,Both,1,Automatic,main,2,20260326-161832,global,local,750,S,S,A,E,S-A.png,E-S.png,sS,sS,mask-4.png,mask-1.png,s,1,1.2977822000393644,s,1,0.954149299999699,0.09971069998573512,0.10097040003165603,0.2008106999564916,0.2008560000685975,0.7492891999427229
RSVPLG03,si,20260326-161804,1.0.2,20260219-152011,816,Introduction,Both,1,Automatic,main,3,20260326-161838,global,global,750,H,S,E,A,H-E.png,S-A.png,hH,sS,mask-2.png,mask-2.png,h,1,0.45338879991322756,s,1,0.3460735999979079,0.09979330003261566,0.10019289993215352,0.19900590006727725,0.20067099994048476,0.7479911000700668
RSVPLG03,si,20260326-161804,1.0.2,20260219-152011,816,Introduction,Both,1,Automatic,main,4,20260326-161843,local,local,750,H,H,A,A,A-H.png,A-H.png,hH,hH,mask-1.png,mask-2.png,h,1,0.7772848999593407,h,1,0.4177391999401152,0.10034410003572702,0.09966900001745671,0.2000218000030145,0.200457000057213,0.7493541999720037
RSVPLG03,si,20260326-161804,1.0.2,20260219-152011,816,Introduction,Both,1,Automatic,main,5,20260326-161849,local,global,750,S,H,E,E,E-S.png,H-E.png,sS,hH,mask-2.png,mask-2.png,s,1,1.567432300071232,s,0,0.27356200001668185,0.10048479994293302,0.09963750001043081,0.20129889994859695,0.20101389999035746,0.7500597999896854
RSVPLG03,si,20260326-161804,1.0.2,20260219-152011,816,Introduction,Both,1,Automatic,main,6,20260326-161855,global,global,750,S,H,A,E,S-A.png,H-E.png,sS,hH,mask-1.png,mask-3.png,s,1,0.5190172999864444,h,1,0.20942790003027767,0.09966429998166859,0.10000590002164245,0.1992591000162065,0.19967160001397133,0.749299000017345
RSVPLG03,si,20260326-161804,1.0.2,20260219-152011,816,Introduction,Both,1,Automatic,main,7,20260326-161900,local,local,750,S,S,A,E,A-S.png,E-S.png,sS,sS,mask-1.png,mask-4.png,s,1,0.31996360002085567,s,1,0.26347650005482137,0.09960979991592467,0.10012179997283965,0.20077070000115782,0.19867269997484982,0.751030599931255
RSVPLG03,si,20260326-161804,1.0.2,20260219-152011,816,Introduction,Both,1,Automatic,main,8,20260326-161905,global,local,750,S,H,E,A,S-E.png,A-H.png,sS,hH,mask-4.png,mask-4.png,s,1,1.412096400046721,h,1,2.609565099934116,0.09862389997579157,0.09997159999329597,0.1990667999489233,0.19968429999426007,0.7501840000040829
RSVPLG03,si,20260326-161804,1.0.2,20260219-152011,816,Introduction,Both,1,Automatic,main,9,20260326-161913,local,local,750,H,H,E,A,E-H.png,A-H.png,hH,hH,mask-3.png,mask-2.png,s,0,1.5095838999841362,h,1,0.5450983999762684,0.10146910010371357,0.10002120002172887,0.20067100005690008,0.19884430000092834,0.7511417000787333
RSVPLG03,si,20260326-161804,1.0.2,20260219-152011,816,Introduction,Both,1,Automatic,main,10,20260326-161919,local,global,750,H,S,A,A,A-H.png,S-A.png,hH,sS,mask-1.png,mask-1.png,h,1,0.5597684999229386,s,1,0.393197700032033,0.09923639998305589,0.10095019999425858,0.19921350001823157,0.20028089999686927,0.7489774000132456
RSVPLG03,si,20260326-161804,1.0.2,20260219-152011,816,Introduction,Both,1,Automatic,main,11,20260326-161924,local,local,750,S,H,E,E,E-S.png,E-H.png,sS,hH,mask-2.png,mask-1.png,s,1,0.3710055999690667,h,1,0.2260400999803096,0.10008880007080734,0.09925209998618811,0.20097770006395876,0.20015659998171031,0.750497700064443
RSVPLG03,si,20260326-161804,1.0.2,20260219-152011,816,Introduction,Both,1,Automatic,main,12,20260326-161929,local,global,750,H,S,E,E,E-H.png,S-E.png,hH,sS,mask-4.png,mask-2.png,h,1,0.7003983999602497,s,1,0.6816754000028595,0.09962769993580878,0.10024920001160353,0.2004539999179542,0.2010337000247091,0.7498518999200314
RSVPLG03,si,20260326-161804,1.0.2,20260219-152011,816,Introduction,Both,1,Automatic,main,13,20260326-161935,global,global,750,H,H,E,E,H-E.png,H-E.png,hH,hH,mask-3.png,mask-1.png,h,1,0.34051619993988425,h,1,0.2644895000848919,0.10067999991588295,0.0979893000330776,0.19987289991695434,0.1978213000111282,0.7514509999891743
RSVPLG03,si,20260326-161804,1.0.2,20260219-152011,816,Introduction,Both,1,Automatic,main,14,20260326-161940,global,local,750,S,S,A,E,S-A.png,E-S.png,sS,sS,mask-1.png,mask-2.png,s,1,0.3822518999222666,s,1,0.24184280005283654,0.10045759996864945,0.09873570001218468,0.20041609997861087,0.19965580001007766,0.7506205999525264
RSVPLG03,si,20260326-161804,1.0.2,20260219-152011,816,Introduction,Both,1,Automatic,main,15,20260326-161945,global,global,750,H,H,A,E,H-A.png,H-E.png,hH,hH,mask-2.png,mask-3.png,h,1,0.6034304000204429,h,1,0.43467840005178005,0.09968850004952401,0.09974959993269295,0.19967490003909916,0.19969489995855838,0.7499475000659004
RSVPLG03,si,20260326-161804,1.0.2,20260219-152011,816,Introduction,Both,1,Automatic,main,16,20260326-161950,local,global,750,H,S,E,A,E-H.png,S-A.png,hH,sS,mask-4.png,mask-3.png,h,1,0.3644861000357196,s,1,0.20199109998065978,0.09997440001461655,0.10116259998176247,0.19917160004843026,0.20103769993875176,0.7488257000222802
RSVPLG03,si,20260326-162007,1.0.2,20260219-152011,816,Practice,Both,1,Automatic,main,1,20260326-162023,local,local,750,S,H,A,E,A-S.png,E-H.png,sS,hH,mask-3.png,mask-4.png,s,1,0.4637443999527022,h,1,0.15367139992304146,0.049695299938321114,0.05083530000410974,0.09810860001016408,0.10046069999225438,0.7492136999499053
RSVPLG03,si,20260326-162007,1.0.2,20260219-152011,816,Practice,Both,1,Automatic,main,2,20260326-162028,local,global,750,H,H,A,E,A-H.png,H-E.png,hH,hH,mask-3.png,mask-4.png,h,1,0.505418400047347,h,1,0.32017210009507835,0.05054200009908527,0.0508884999435395,0.10051870008464903,0.10031569993589073,0.7501787000801414
RSVPLG03,si,20260326-162007,1.0.2,20260219-152011,816,Practice,Both,1,Automatic,main,3,20260326-162033,global,global,750,S,H,A,A,S-A.png,H-A.png,sS,hH,mask-4.png,mask-3.png,s,1,0.4356424999423325,s,0,0.2397867999970913,0.05116889998316765,0.049672799999825656,0.09989289997611195,0.09970060002524406,0.7504945999244228
RSVPLG03,si,20260326-162007,1.0.2,20260219-152011,816,Practice,Both,1,Automatic,main,4,20260326-162037,local,local,300,H,S,A,A,A-H.png,A-S.png,hH,sS,mask-4.png,mask-3.png,s,0,0.6894404999911785,h,0,0.48231959994882345,0.04876359994523227,0.04984520003199577,0.09870780003257096,0.0998177999863401,0.30045340000651777
RSVPLG03,si,20260326-162007,1.0.2,20260219-152011,816,Practice,Both,1,Automatic,main,5,20260326-162042,global,global,300,S,H,A,E,S-A.png,H-E.png,sS,hH,mask-1.png,mask-4.png,s,1,0.8350449999561533,h,1,1.5301057000178844,0.05002159997820854,0.049834599951282144,0.09953830006998032,0.09990929998457432,0.30033910006750375
RSVPLG03,si,20260326-162007,1.0.2,20260219-152011,816,Practice,Both,1,Automatic,main,6,20260326-162048,local,local,750,S,H,E,E,E-S.png,E-H.png,sS,hH,mask-4.png,mask-1.png,s,1,0.46735239995177835,h,1,0.16114860004745424,0.050509999971836805,0.04958190000616014,0.09911939990706742,0.09854030003771186,0.7502509999321774
RSVPLG03,si,20260326-162007,1.0.2,20260219-152011,816,Practice,Both,1,Automatic,main,7,20260326-162053,local,global,300,H,S,E,E,E-H.png,S-E.png,hH,sS,mask-1.png,mask-3.png,h,1,0.7641657999483868,s,1,0.1442294999724254,0.049402000033296645,0.05064849997870624,0.10038630000781268,0.10045129992067814,0.29885010002180934
RSVPLG03,si,20260326-162007,1.0.2,20260219-152011,816,Practice,Both,1,Automatic,main,8,20260326-162057,global,local,300,H,S,A,A,H-A.png,A-S.png,hH,sS,mask-3.png,mask-3.png,s,0,2.1735968999564648,s,1,1.1137009999947622,0.04996670002583414,0.048943999921903014,0.09958320006262511,0.09906859998591244,0.30186410003807396
RSVPLG03,si,20260326-162007,1.0.2,20260219-152011,816,Practice,Both,1,Automatic,main,9,20260326-162104,global,local,750,S,H,A,E,S-A.png,E-H.png,sS,hH,mask-2.png,mask-1.png,s,1,0.41037699999287724,h,1,0.08176720002666116,0.04917829995974898,0.05063670000527054,0.10008030000608414,0.10092330002225935,0.7496284999651834
RSVPLG03,si,20260326-162007,1.0.2,20260219-152011,816,Practice,Both,1,Automatic,main,10,20260326-162109,local,global,300,H,H,E,A,E-H.png,H-A.png,hH,hH,mask-1.png,mask-2.png,h,1,0.5234993000049144,s,0,0.08988159999717027,0.04874150000978261,0.049416900030337274,0.09834929998032749,0.09997099998872727,0.30028590001165867
RSVPLG03,si,20260326-162007,1.0.2,20260219-152011,816,Practice,Both,1,Automatic,main,11,20260326-162113,global,local,750,H,H,A,E,H-A.png,E-H.png,hH,hH,mask-1.png,mask-1.png,s,0,0.7553105000406504,h,1,0.41761320002842695,0.048609200050123036,0.05026789999101311,0.10004960000514984,0.1003483000677079,0.749434299999848
RSVPLG03,si,20260326-162007,1.0.2,20260219-152011,816,Practice,Both,1,Automatic,main,12,20260326-162118,local,local,300,H,S,E,E,E-H.png,E-S.png,hH,sS,mask-4.png,mask-2.png,h,1,0.7043187000090256,s,1,0.16206969995982945,0.04992669995408505,0.04989929997827858,0.09985300002153963,0.10019000002648681,0.2999355000210926
RSVPLG03,si,20260326-162007,1.0.2,20260219-152011,816,Practice,Both,1,Automatic,main,13,20260326-162123,global,global,300,S,S,A,A,S-A.png,S-A.png,sS,sS,mask-1.png,mask-1.png,s,1,0.5237569999881089,s,1,0.24087530001997948,0.04889430000912398,0.04956119996495545,0.09915880009066314,0.10045470006298274,0.2996162000345066
RSVPLG03,si,20260326-162007,1.0.2,20260219-152011,816,Practice,Both,1,Automatic,main,14,20260326-162127,global,global,750,S,S,E,E,S-E.png,S-E.png,sS,sS,mask-4.png,mask-4.png,s,1,0.5341049999697134,s,1,0.17693690001033247,0.04879530007019639,0.05022929992992431,0.09895250003319234,0.10008709994144738,0.7503467000788078
RSVPLG03,si,20260326-162007,1.0.2,20260219-152011,816,Practice,Both,1,Automatic,main,15,20260326-162132,global,local,300,S,H,A,A,S-A.png,A-H.png,sS,hH,mask-2.png,mask-2.png,s,1,0.6080874999752268,h,1,0.1694603000069037,0.04878209996968508,0.05055169994011521,0.09931419999338686,0.09923880000133067,0.29995799995958805
RSVPLG03,si,20260326-162007,1.0.2,20260219-152011,816,Practice,Both,1,Automatic,main,16,20260326-162136,local,global,750,S,S,E,A,E-S.png,S-A.png,sS,sS,mask-2.png,mask-1.png,s,1,0.4900313999969512,s,1,0.85014739993494,0.05093799997121096,0.04938479990232736,0.10028559993952513,0.10139139997772872,0.7503529000096023
RSVPLG03,si,20260326-162256,1.0.2,20260219-152011,816,Experiment,Both,1,Automatic,warmup,1,20260326-162319,local,global,300,H,H,A,E,A-H.png,H-E.png,hH,hH,mask-3.png,mask-2.png,h,1,0.8051096999552101,s,0,0.07353419996798038,0.048795699956826866,0.04931100003886968,0.1006353999255225,0.10129410005174577,0.29971609998028725
RSVPLG03,si,20260326-162256,1.0.2,20260219-152011,816,Experiment,Both,1,Automatic,warmup,2,20260326-162323,global,global,300,S,S,A,A,S-A.png,S-A.png,sS,sS,mask-3.png,mask-1.png,s,1,0.6528001000406221,s,1,0.14528679999057204,0.04995969997253269,0.04960290004964918,0.10037760005798191,0.10147970006801188,0.29907740000635386
RSVPLG03,si,20260326-162256,1.0.2,20260219-152011,816,Experiment,Both,1,Automatic,warmup,3,20260326-162328,local,local,300,S,S,E,E,E-S.png,E-S.png,sS,sS,mask-4.png,mask-4.png,s,1,0.30208039993885905,s,1,0.19134450005367398,0.05037259997334331,0.04867639997974038,0.09916710003744811,0.1004534000530839,0.300881200004369
RSVPLG03,si,20260326-162256,1.0.2,20260219-152011,816,Experiment,Both,1,Automatic,warmup,4,20260326-162332,global,local,750,H,H,A,E,H-A.png,E-H.png,hH,hH,mask-2.png,mask-1.png,h,1,0.520418900065124,s,0,0.22490909998305142,0.04967259999830276,0.04839110001921654,0.10114269994664937,0.09951900003943592,0.752635799930431
RSVPLG03,si,20260326-162256,1.0.2,20260219-152011,816,Experiment,Both,1,Automatic,main,5,20260326-162337,local,local,750,S,S,A,E,A-S.png,E-S.png,sS,sS,mask-3.png,mask-2.png,s,1,0.5892307000467554,h,0,0.20213659992441535,0.0496541999746114,0.05047130002640188,0.09942280000541359,0.10028760007116944,0.7512033999664709
RSVPLG03,si,20260326-162256,1.0.2,20260219-152011,816,Experiment,Both,1,Automatic,main,6,20260326-162341,global,global,750,H,S,E,E,H-E.png,S-E.png,hH,sS,mask-1.png,mask-2.png,h,1,0.39452840003650635,s,1,0.192762800026685,0.050129600102081895,0.05116559995803982,0.09997860004659742,0.10123120003845543,0.7504341000458226
RSVPLG03,si,20260326-162256,1.0.2,20260219-152011,816,Experiment,Both,1,Automatic,main,7,20260326-162346,local,local,750,S,H,E,E,E-S.png,E-H.png,sS,hH,mask-2.png,mask-3.png,s,1,0.869549100054428,s,0,0.22500870004296303,0.049935199902392924,0.047795700025744736,0.10103739995975047,0.09749229997396469,0.7523923999397084
RSVPLG03,si,20260326-162256,1.0.2,20260219-152011,816,Experiment,Both,1,Automatic,main,8,20260326-162351,global,local,750,S,S,E,A,S-E.png,A-S.png,sS,sS,mask-1.png,mask-3.png,s,1,0.5456414999207482,h,0,0.1363932000240311,0.05006090004462749,0.04929270001593977,0.10194269998464733,0.09966240008361638,0.7515858999686316
RSVPLG03,si,20260326-162256,1.0.2,20260219-152011,816,Experiment,Both,1,Automatic,main,9,20260326-162356,local,global,300,H,S,A,E,A-H.png,S-E.png,hH,sS,mask-1.png,mask-3.png,h,1,0.3758621000451967,s,1,0.1371557000093162,0.04932430002372712,0.04985169996507466,0.09966860001441091,0.10023410001304,0.3000128000276163
RSVPLG03,si,20260326-162256,1.0.2,20260219-152011,816,Experiment,Both,1,Automatic,main,10,20260326-162400,global,local,300,H,S,E,A,H-E.png,A-S.png,hH,sS,mask-2.png,mask-1.png,h,1,0.46062919998075813,s,1,0.1696591000072658,0.05032969999592751,0.049804699956439435,0.09920529997907579,0.10162219998892397,0.2997054000152275
RSVPLG03,si,20260326-162256,1.0.2,20260219-152011,816,Experiment,Both,1,Automatic,main,11,20260326-162405,local,local,300,H,S,E,A,E-H.png,A-S.png,hH,sS,mask-1.png,mask-4.png,h,1,1.0571092999307439,s,1,0.13821410003583878,0.0509584000101313,0.04937749996315688,0.1001369000878185,0.09931149997282773,0.30070500005967915
RSVPLG03,si,20260326-162256,1.0.2,20260219-152011,816,Experiment,Both,1,Automatic,main,12,20260326-162409,local,global,750,H,H,A,E,A-H.png,H-E.png,hH,hH,mask-1.png,mask-3.png,h,1,0.48743640002794564,h,1,0.2015182999894023,0.04861019994132221,0.05064420006237924,0.09974239999428391,0.10169240005780011,0.7499923999421299
RSVPLG03,si,20260326-162256,1.0.2,20260219-152011,816,Experiment,Both,1,Automatic,main,13,20260326-162414,local,global,300,S,S,E,E,E-S.png,S-E.png,sS,sS,mask-2.png,mask-1.png,s,1,0.33039610006380826,s,1,0.17775589996017516,0.048410499934107065,0.04954439995344728,0.10039939999114722,0.09910549991764128,0.30026879999786615
RSVPLG03,si,20260326-162256,1.0.2,20260219-152011,816,Experiment,Both,1,Automatic,main,14,20260326-162418,global,global,750,H,S,A,A,H-A.png,S-A.png,hH,sS,mask-1.png,mask-4.png,h,1,0.21613700001034886,s,1,0.12026799994055182,0.04861689999233931,0.04934809997212142,0.09972769999876618,0.09867400000803173,0.7514322999631986
RSVPLG03,si,20260326-162256,1.0.2,20260219-152011,816,Experiment,Both,1,Automatic,main,15,20260326-162423,local,local,750,H,H,E,E,E-H.png,E-H.png,hH,hH,mask-1.png,mask-2.png,h,1,2.2008943000109866,h,1,0.12989580002613366,0.048483100021258,0.04875349998474121,0.09898669994436204,0.09907250001560897,0.7509881999576464
RSVPLG03,si,20260326-162256,1.0.2,20260219-152011,816,Experiment,Both,1,Automatic,main,16,20260326-162429,local,local,300,S,H,E,A,E-S.png,A-H.png,sS,hH,mask-2.png,mask-4.png,s,1,0.8615485000191256,s,0,0.19446810008957982,0.04977849998977035,0.04979179997462779,0.10066579992417246,0.10194620001129806,0.2997000999748707
RSVPLG03,si,20260326-162256,1.0.2,20260219-152011,816,Experiment,Both,1,Automatic,main,17,20260326-162434,global,local,750,S,H,E,A,S-E.png,A-H.png,sS,hH,mask-1.png,mask-3.png,s,1,0.26242369995452464,h,1,0.08332730003166944,0.04903100000228733,0.04967990005388856,0.10076160007156432,0.09978110005613416,0.75138989998959
RSVPLG03,si,20260326-162256,1.0.2,20260219-152011,816,Experiment,Both,1,Automatic,main,18,20260326-162438,local,local,750,S,H,A,A,A-S.png,A-H.png,sS,hH,mask-4.png,mask-3.png,s,1,0.37034200003836304,h,1,0.15317009994760156,0.04955169989261776,0.04891909996513277,0.09897159994579852,0.09943139995448291,0.7507429999532178
RSVPLG03,si,20260326-162256,1.0.2,20260219-152011,816,Experiment,Both,1,Automatic,main,19,20260326-162443,global,local,750,S,H,A,E,S-A.png,E-H.png,sS,hH,mask-4.png,mask-4.png,s,1,0.5856644000159577,s,0,0.16932280000764877,0.049612400005571544,0.04955039999913424,0.09903540008235723,0.10036080004647374,0.7505047000013292
RSVPLG03,si,20260326-162256,1.0.2,20260219-152011,816,Experiment,Both,1,Automatic,main,20,20260326-162448,global,global,300,S,H,E,E,S-E.png,H-E.png,sS,hH,mask-4.png,mask-4.png,s,1,0.5954888999694958,h,1,0.1694298000074923,0.049548599985428154,0.049461100017651916,0.09948269999586046,0.09936640004161745,0.3003877999726683
RSVPLG03,si,20260326-162256,1.0.2,20260219-152011,816,Experiment,Both,1,Automatic,main,21,20260326-162452,global,local,300,S,H,E,E,S-E.png,E-H.png,sS,hH,mask-3.png,mask-4.png,s,1,0.6764275999739766,h,1,0.10565340006724,0.050257000024430454,0.050855600042268634,0.10014909994788468,0.10004640009719878,0.3002928999485448
RSVPLG03,si,20260326-162256,1.0.2,20260219-152011,816,Experiment,Both,1,Automatic,main,22,20260326-162457,local,global,300,S,S,A,E,A-S.png,S-E.png,sS,sS,mask-3.png,mask-2.png,s,1,0.3953436000738293,h,0,0.122114900033921,0.05029340006876737,0.05042739992495626,0.09889270004350692,0.10078809992410243,0.29933150007855147
RSVPLG03,si,20260326-162256,1.0.2,20260219-152011,816,Experiment,Both,1,Automatic,main,23,20260326-162501,global,local,300,S,H,E,E,S-E.png,E-H.png,sS,hH,mask-4.png,mask-1.png,s,1,0.34364340000320226,s,0,0.11353900004178286,0.05069119995459914,0.049671599990688264,0.10191219998523593,0.1010648999363184,0.300041800015606
RSVPLG03,si,20260326-162256,1.0.2,20260219-152011,816,Experiment,Both,1,Automatic,main,24,20260326-162505,local,local,300,S,S,A,A,A-S.png,A-S.png,sS,sS,mask-2.png,mask-1.png,s,1,0.35273200005758554,s,1,0.1605826000450179,0.04984349990263581,0.050473400042392313,0.09874579997267574,0.10123630007728934,0.2993693999014795
RSVPLG03,si,20260326-162256,1.0.2,20260219-152011,816,Experiment,Both,1,Automatic,main,25,20260326-162509,global,global,750,H,S,A,E,H-A.png,S-E.png,hH,sS,mask-4.png,mask-1.png,h,1,0.13932479999493808,s,1,0.10520079999696463,0.04942179995123297,0.04982469999231398,0.10034769994672388,0.09979899995960295,0.7517093999776989
RSVPLG03,si,20260326-162256,1.0.2,20260219-152011,816,Experiment,Both,1,Automatic,main,26,20260326-162540,local,global,300,S,H,A,E,A-S.png,H-E.png,sS,hH,mask-2.png,mask-3.png,s,1,0.6497261000331491,h,1,0.10543210001196712,0.049668299965560436,0.049925200059078634,0.10034689994063228,0.09960429999046028,0.30008849990554154
RSVPLG03,si,20260326-162256,1.0.2,20260219-152011,816,Experiment,Both,1,Automatic,main,27,20260326-162544,local,local,300,H,S,A,E,A-H.png,E-S.png,hH,sS,mask-4.png,mask-4.png,h,1,0.38036309997551143,s,1,0.11448320001363754,0.04896230006124824,0.04963430005591363,0.10013510007411242,0.09915190003812313,0.3011063999729231
RSVPLG03,si,20260326-162256,1.0.2,20260219-152011,816,Experiment,Both,1,Automatic,main,28,20260326-162549,global,global,300,H,H,E,E,H-E.png,H-E.png,hH,hH,mask-2.png,mask-1.png,h,1,0.24767870001960546,h,1,0.1609580999938771,0.048809600062668324,0.049667300074361265,0.09872550005093217,0.09996240003965795,0.2997632999904454
RSVPLG03,si,20260326-162256,1.0.2,20260219-152011,816,Experiment,Both,1,Automatic,main,29,20260326-162553,local,local,750,H,S,A,E,A-H.png,E-S.png,hH,sS,mask-1.png,mask-2.png,h,1,0.22761900001205504,s,1,0.09747350006364286,0.04996920004487038,0.05124850000720471,0.09927170001901686,0.10098380001727492,0.75036760000512
RSVPLG03,si,20260326-162256,1.0.2,20260219-152011,816,Experiment,Both,1,Automatic,main,30,20260326-162557,local,global,300,S,S,E,A,E-S.png,S-A.png,sS,sS,mask-3.png,mask-2.png,s,1,0.4590687999734655,s,1,0.1216258000349626,0.051180999958887696,0.050133800017647445,0.10092659993097186,0.09993559995200485,0.30151549994479865
RSVPLG03,si,20260326-162256,1.0.2,20260219-152011,816,Experiment,Both,1,Automatic,main,31,20260326-162601,global,global,750,S,H,A,E,S-A.png,H-E.png,sS,hH,mask-3.png,mask-1.png,s,1,0.19882930000312626,h,1,0.09629339992534369,0.051149899954907596,0.05078199994750321,0.10124460002407432,0.09983389999251813,0.751421399996616
RSVPLG03,si,20260326-162256,1.0.2,20260219-152011,816,Experiment,Both,1,Automatic,main,32,20260326-162606,global,local,750,S,S,A,E,S-A.png,E-S.png,sS,sS,mask-1.png,mask-4.png,s,1,0.234703499940224,s,1,0.14651360001880676,0.049653499969281256,0.05167429998982698,0.10041429998818785,0.1015190000180155,0.7503184999804944
RSVPLG03,si,20260326-162256,1.0.2,20260219-152011,816,Experiment,Both,1,Automatic,main,33,20260326-162610,global,global,750,S,S,E,A,S-E.png,S-A.png,sS,sS,mask-4.png,mask-3.png,s,1,0.2045830999268219,s,1,0.10450360004324466,0.04991349996998906,0.04986830009147525,0.10080909996759146,0.09999540005810559,0.7525646999711171
RSVPLG03,si,20260326-162256,1.0.2,20260219-152011,816,Experiment,Both,1,Automatic,main,34,20260326-162614,global,local,750,H,H,A,A,H-A.png,A-H.png,hH,hH,mask-4.png,mask-4.png,h,1,0.2975816000252962,h,1,0.14639529993291944,0.050720199942588806,0.05168849998153746,0.10043610003776848,0.1014608999248594,0.7502016000216827
RSVPLG03,si,20260326-162256,1.0.2,20260219-152011,816,Experiment,Both,1,Automatic,main,35,20260326-162619,local,global,750,S,S,E,A,E-S.png,S-A.png,sS,sS,mask-1.png,mask-3.png,s,1,0.45009120006579906,h,0,0.08949059993028641,0.050341199967078865,0.04889480001293123,0.09937419998459518,0.09865249996073544,0.752597099984996
RSVPLG03,si,20260326-162256,1.0.2,20260219-152011,816,Experiment,Both,1,Automatic,main,36,20260326-162624,local,local,300,S,S,A,A,A-S.png,A-S.png,sS,sS,mask-2.png,mask-2.png,s,1,0.3145105999428779,s,1,0.13808479998260736,0.04926630004774779,0.04907519998960197,0.09986910002771765,0.09899740002583712,0.3008816000074148
RSVPLG03,si,20260326-162256,1.0.2,20260219-152011,816,Experiment,Both,1,Automatic,main,37,20260326-162628,global,local,750,S,S,E,E,S-E.png,E-S.png,sS,sS,mask-4.png,mask-1.png,s,1,0.20944979996420443,s,1,0.1294367000227794,0.04974799999035895,0.04906140000093728,0.10072680003941059,0.10016469995025545,0.7524508000351489
RSVPLG03,si,20260326-162256,1.0.2,20260219-152011,816,Experiment,Both,1,Automatic,main,38,20260326-162632,local,global,750,S,H,A,E,A-S.png,H-E.png,sS,hH,mask-1.png,mask-2.png,s,1,0.49266450002323836,s,0,0.21523890004027635,0.05213040008675307,0.05090609996113926,0.1018619000678882,0.10083959996700287,0.7507744000758976
RSVPLG03,si,20260326-162256,1.0.2,20260219-152011,816,Experiment,Both,1,Automatic,main,39,20260326-162637,local,local,300,H,H,A,E,A-H.png,E-H.png,hH,hH,mask-1.png,mask-3.png,h,1,0.31133410008624196,h,1,0.10521020006854087,0.049141300027258694,0.0496781999245286,0.10063630004879087,0.09947679995093495,0.3003847000654787
RSVPLG03,si,20260326-162256,1.0.2,20260219-152011,816,Experiment,Both,1,Automatic,main,40,20260326-162641,global,local,300,S,H,E,E,S-E.png,E-H.png,sS,hH,mask-1.png,mask-1.png,s,1,0.3569755000062287,h,1,0.09006680001039058,0.04966000001877546,0.050370599958114326,0.09844090009573847,0.09986630000639707,0.29950890003237873
RSVPLG03,si,20260326-162256,1.0.2,20260219-152011,816,Experiment,Both,1,Automatic,main,41,20260326-162645,global,global,300,H,S,A,A,H-A.png,S-A.png,hH,sS,mask-2.png,mask-2.png,h,1,0.26083610008936375,s,1,0.06649370002560318,0.04977170005440712,0.05003799998667091,0.10055360000114888,0.10024999990127981,0.30002400011289865
RSVPLG03,si,20260326-162256,1.0.2,20260219-152011,816,Experiment,Both,1,Automatic,main,42,20260326-162649,local,local,300,H,H,E,A,E-H.png,A-H.png,hH,hH,mask-2.png,mask-4.png,h,1,0.29363019997254014,h,1,0.11256429995410144,0.04841720010153949,0.04997299995739013,0.09844780003186315,0.10108729999046773,0.29957540007308125
RSVPLG03,si,20260326-162256,1.0.2,20260219-152011,816,Experiment,Both,1,Automatic,main,43,20260326-162653,local,global,300,H,S,A,A,A-H.png,S-A.png,hH,sS,mask-4.png,mask-3.png,h,1,0.5106361999642104,h,0,0.09677139995619655,0.04938009998295456,0.04971430008299649,0.10118009999860078,0.09952600009273738,0.3008528999052942
RSVPLG03,si,20260326-162256,1.0.2,20260219-152011,816,Experiment,Both,1,Automatic,main,44,20260326-162657,local,local,300,S,S,A,E,A-S.png,E-S.png,sS,sS,mask-4.png,mask-3.png,s,1,0.30789549998007715,s,1,0.13887890009209514,0.04941300000064075,0.050269900006242096,0.10005899996031076,0.09977640002034605,0.300223600002937
RSVPLG03,si,20260326-162256,1.0.2,20260219-152011,816,Experiment,Both,1,Automatic,main,45,20260326-162701,local,local,300,S,S,E,E,E-S.png,E-S.png,sS,sS,mask-4.png,mask-2.png,s,1,0.2878123000264168,s,1,0.12132439995184541,0.048736799973994493,0.05014649999793619,0.09860140003729612,0.09997110010590404,0.2994998999638483
RSVPLG03,si,20260326-162256,1.0.2,20260219-152011,816,Experiment,Both,1,Automatic,main,46,20260326-162705,local,local,750,S,H,E,A,E-S.png,A-H.png,sS,hH,mask-2.png,mask-2.png,s,1,0.389833000022918,h,1,0.06599910010118037,0.048480099998414516,0.05085280002094805,0.09993420005775988,0.09949670010246336,0.7500289999879897
RSVPLG03,si,20260326-162256,1.0.2,20260219-152011,816,Experiment,Both,1,Automatic,main,47,20260326-162710,local,local,750,H,S,A,A,A-H.png,A-S.png,hH,sS,mask-2.png,mask-3.png,h,1,0.12473439995665103,s,1,0.04969989997334778,0.0482883999357,0.05088699993211776,0.10006079997401685,0.1001420000102371,0.7496030000038445
RSVPLG03,si,20260326-162256,1.0.2,20260219-152011,816,Experiment,Both,1,Automatic,main,48,20260326-162714,global,local,300,S,H,A,E,S-A.png,E-H.png,sS,hH,mask-3.png,mask-2.png,s,1,0.4079213999211788,s,0,0.08986609999556094,0.05041440005879849,0.050210900022648275,0.10035180009435862,0.10042879998218268,0.30189700005576015
RSVPLG03,si,20260326-162256,1.0.2,20260219-152011,816,Experiment,Both,1,Automatic,main,49,20260326-162718,global,global,300,H,S,A,E,H-A.png,S-E.png,hH,sS,mask-2.png,mask-4.png,h,1,0.2968455000082031,s,1,0.08205810002982616,0.049111299915239215,0.04987650003749877,0.09873079997487366,0.09987469995394349,0.29957709996961057
RSVPLG03,si,20260326-162256,1.0.2,20260219-152011,816,Experiment,Both,1,Automatic,main,50,20260326-162722,global,local,300,S,H,E,E,S-E.png,E-H.png,sS,hH,mask-2.png,mask-3.png,s,1,0.45549779990687966,s,0,0.12181329994928092,0.04987029999028891,0.04865460004657507,0.10099639999680221,0.10037040000315756,0.3008082000305876
RSVPLG03,si,20260326-162256,1.0.2,20260219-152011,816,Experiment,Both,1,Automatic,main,51,20260326-162749,global,local,750,S,S,A,E,S-A.png,E-S.png,sS,sS,mask-1.png,mask-1.png,s,1,0.5843894000863656,s,1,0.09007609996479005,0.050029699923470616,0.050882000010460615,0.09991509991232306,0.10133790003601462,0.7505556999240071
RSVPLG03,si,20260326-162256,1.0.2,20260219-152011,816,Experiment,Both,1,Automatic,main,52,20260326-162753,local,global,300,S,H,E,E,E-S.png,H-E.png,sS,hH,mask-2.png,mask-4.png,s,1,0.5636681999312714,s,0,0.12934720003977418,0.04986100003588945,0.0501757999882102,0.09975509997457266,0.10001209995243698,0.30087430006824434
RSVPLG03,si,20260326-162256,1.0.2,20260219-152011,816,Experiment,Both,1,Automatic,main,53,20260326-162758,local,global,300,S,H,A,E,A-S.png,H-E.png,sS,hH,mask-2.png,mask-3.png,s,1,1.034533299971372,h,1,0.13871940004173666,0.04992529994342476,0.050701200030744076,0.10017039999365807,0.10104610002599657,0.30122619995381683
RSVPLG03,si,20260326-162256,1.0.2,20260219-152011,816,Experiment,Both,1,Automatic,main,54,20260326-162802,global,global,750,H,H,E,E,H-E.png,H-E.png,hH,hH,mask-2.png,mask-1.png,s,0,2.412174299941398,h,1,0.12926790001802146,0.05000080005265772,0.04818050004541874,0.09967240004334599,0.09847349999472499,0.7520388000411913
RSVPLG03,si,20260326-162256,1.0.2,20260219-152011,816,Experiment,Both,1,Automatic,main,55,20260326-162809,local,global,750,S,H,A,A,A-S.png,H-A.png,sS,hH,mask-2.png,mask-1.png,s,1,0.653168800054118,s,0,0.1775097999488935,0.05023639998398721,0.05065579991787672,0.10032640001736581,0.09960319998208433,0.7513714000815526
RSVPLG03,si,20260326-162256,1.0.2,20260219-152011,816,Experiment,Both,1,Automatic,main,56,20260326-162814,local,global,750,S,S,A,E,A-S.png,S-E.png,sS,sS,mask-1.png,mask-2.png,s,1,0.5076494999229908,s,1,0.16830739995930344,0.049652399960905313,0.05001699994318187,0.09842269995715469,0.10008899995591491,0.7512895000400022
RSVPLG03,si,20260326-162256,1.0.2,20260219-152011,816,Experiment,Both,1,Automatic,main,57,20260326-162818,global,global,300,H,H,E,A,H-E.png,H-A.png,hH,hH,mask-2.png,mask-3.png,h,1,0.3655215000035241,h,1,0.11393290001433343,0.05141160008497536,0.049947199993766844,0.10078930004965514,0.09981949999928474,0.3003664000425488
RSVPLG03,si,20260326-162256,1.0.2,20260219-152011,816,Experiment,Both,1,Automatic,main,58,20260326-162823,local,global,750,S,S,E,E,E-S.png,S-E.png,sS,sS,mask-2.png,mask-2.png,s,1,0.30978110001888126,s,1,0.34446380008012056,0.05089930002577603,0.04938480001874268,0.09952909999992698,0.10017660004086792,0.7504783000331372
RSVPLG03,si,20260326-162256,1.0.2,20260219-152011,816,Experiment,Both,1,Automatic,main,59,20260326-162827,global,global,300,H,S,E,A,H-E.png,S-A.png,hH,sS,mask-1.png,mask-4.png,h,1,0.23914580000564456,s,1,0.1062984000891447,0.05116999999154359,0.04924419999588281,0.1015497000189498,0.09907879994716495,0.3008864000439644
RSVPLG03,si,20260326-162256,1.0.2,20260219-152011,816,Experiment,Both,1,Automatic,main,60,20260326-162831,local,local,300,S,H,E,A,E-S.png,A-H.png,sS,hH,mask-4.png,mask-3.png,s,1,0.49316550011280924,h,1,0.09695779997855425,0.050105800037272274,0.04969929996877909,0.09978889999911189,0.10054769995622337,0.30054890003520995
RSVPLG03,si,20260326-162256,1.0.2,20260219-152011,816,Experiment,Both,1,Automatic,main,61,20260326-162835,global,global,300,H,H,A,A,H-A.png,H-A.png,hH,hH,mask-2.png,mask-2.png,h,1,0.19791679992340505,h,1,0.11552150000352412,0.05030949995853007,0.04962790000718087,0.10029179998673499,0.10007310006767511,0.3002007999457419
RSVPLG03,si,20260326-162256,1.0.2,20260219-152011,816,Experiment,Both,1,Automatic,main,62,20260326-162839,local,local,300,H,S,A,A,A-H.png,A-S.png,hH,sS,mask-1.png,mask-2.png,h,1,0.963666099938564,s,1,0.12105029996018857,0.04912670003250241,0.05088990007061511,0.0984912000130862,0.10021910001523793,0.2982727999333292
RSVPLG03,si,20260326-162256,1.0.2,20260219-152011,816,Experiment,Both,1,Automatic,main,63,20260326-162844,global,local,300,S,H,A,E,S-A.png,E-H.png,sS,hH,mask-1.png,mask-3.png,s,1,0.38859679992310703,s,0,0.10517230001278222,0.05078990000765771,0.04929470003116876,0.09936909994576126,0.09941509994678199,0.30109149997588247
RSVPLG03,si,20260326-162256,1.0.2,20260219-152011,816,Experiment,Both,1,Automatic,main,64,20260326-162848,global,local,300,S,H,A,A,S-A.png,A-H.png,sS,hH,mask-1.png,mask-2.png,s,1,0.35660509997978806,h,1,0.09813189995475113,0.04995969997253269,0.04963969998061657,0.10033030004706234,0.09978679998312145,0.30099430005066097
RSVPLG03,si,20260326-162256,1.0.2,20260219-152011,816,Experiment,Both,1,Automatic,main,65,20260326-162852,global,local,300,S,H,E,E,S-E.png,E-H.png,sS,hH,mask-1.png,mask-1.png,s,1,1.5353213000344113,s,0,0.10447689995635301,0.04869940003845841,0.05073940008878708,0.09901500004343688,0.10037360002752393,0.2983198999427259
RSVPLG03,si,20260326-162256,1.0.2,20260219-152011,816,Experiment,Both,1,Automatic,main,66,20260326-162857,global,global,750,H,S,E,A,H-E.png,S-A.png,hH,sS,mask-3.png,mask-4.png,h,1,0.25740480003878474,s,1,0.026347899925895035,0.051030299975536764,0.050490499939769506,0.10014619992580265,0.09950909996405244,0.7515444000018761
RSVPLG03,si,20260326-162256,1.0.2,20260219-152011,816,Experiment,Both,1,Automatic,main,67,20260326-162902,local,local,300,S,H,E,A,E-S.png,A-H.png,sS,hH,mask-2.png,mask-4.png,s,1,0.45205910003278404,h,1,0.07349350000731647,0.049889400019310415,0.04974279995076358,0.10075950005557388,0.10057839995715767,0.300138600054197
RSVPLG03,si,20260326-162256,1.0.2,20260219-152011,816,Experiment,Both,1,Automatic,main,68,20260326-162906,local,local,750,S,H,A,E,A-S.png,E-H.png,sS,hH,mask-2.png,mask-2.png,s,1,0.1618717999663204,h,1,0.06557320000138134,0.050424600020051,0.05012679996434599,0.10000249999575317,0.09995649999473244,0.750691800029017
RSVPLG03,si,20260326-162256,1.0.2,20260219-152011,816,Experiment,Both,1,Automatic,main,69,20260326-162910,global,local,300,S,S,A,E,S-A.png,E-S.png,sS,sS,mask-1.png,mask-2.png,s,1,0.5011012000031769,s,1,0.09825689997524023,0.04911230003926903,0.050101300003007054,0.09947839996311814,0.09994039998855442,0.2990330000175163
RSVPLG03,si,20260326-162256,1.0.2,20260219-152011,816,Experiment,Both,1,Automatic,main,70,20260326-162915,local,global,300,S,H,A,A,A-S.png,H-A.png,sS,hH,mask-4.png,mask-2.png,s,1,0.34263029997237027,h,1,0.07383430004119873,0.05034029996022582,0.04942169995047152,0.09986059996299446,0.09915359993465245,0.30126460001338273
RSVPLG03,si,20260326-162256,1.0.2,20260219-152011,816,Experiment,Both,1,Automatic,main,71,20260326-162919,global,global,300,S,S,A,E,S-A.png,S-E.png,sS,sS,mask-3.png,mask-3.png,s,1,0.23897139995824546,s,1,0.11380809999536723,0.05054359999485314,0.04903200000990182,0.10038709989748895,0.09899399999994785,0.30130709998775274
RSVPLG03,si,20260326-162256,1.0.2,20260219-152011,816,Experiment,Both,1,Automatic,main,72,20260326-162923,local,global,750,H,S,A,A,A-H.png,S-A.png,hH,sS,mask-4.png,mask-1.png,h,1,0.5004306000191718,h,0,0.10505919996649027,0.04979630000889301,0.050999400089494884,0.10014420002698898,0.09994179999921471,0.7508399999933317
RSVPLG03,si,20260326-162256,1.0.2,20260219-152011,816,Experiment,Both,1,Automatic,main,73,20260326-162927,local,local,750,H,S,A,E,A-H.png,E-S.png,hH,sS,mask-3.png,mask-2.png,h,1,0.20836130005773157,s,1,0.04182899999432266,0.050892199971713126,0.0492027000291273,0.1000365000218153,0.09914730000309646,0.7531101999338716
RSVPLG03,si,20260326-162256,1.0.2,20260219-152011,816,Experiment,Both,1,Automatic,main,74,20260326-162931,global,global,300,S,S,E,A,S-E.png,S-A.png,sS,sS,mask-4.png,mask-2.png,s,1,0.29637220001313835,s,1,0.1044547000201419,0.04912520002108067,0.048299400019459426,0.09853390010539442,0.09864480001851916,0.29994070006068796
RSVPLG03,si,20260326-162256,1.0.2,20260219-152011,816,Experiment,Both,1,Automatic,main,75,20260326-162935,global,local,750,H,S,E,E,H-E.png,E-S.png,hH,sS,mask-2.png,mask-1.png,h,1,0.1561576999956742,s,1,0.03801589994691312,0.048865800024941564,0.04970069997943938,0.0996889000525698,0.09927349991630763,0.7503628000849858
RSVPLG03,si,20260326-162256,1.0.2,20260219-152011,816,Experiment,Both,1,Automatic,main,76,20260326-163003,global,local,750,S,S,A,A,S-A.png,A-S.png,sS,sS,mask-2.png,mask-2.png,s,1,1.3119669000152498,h,0,0.05747450003400445,0.05107479996513575,0.04965890001039952,0.09989209997002035,0.09950040001422167,0.7515809000469744
RSVPLG03,si,20260326-162256,1.0.2,20260219-152011,816,Experiment,Both,1,Automatic,main,77,20260326-163008,local,local,750,H,H,A,E,A-H.png,E-H.png,hH,hH,mask-1.png,mask-2.png,h,1,0.23432529997080564,h,1,0.09749859990552068,0.05012719996739179,0.05001880007330328,0.10147879994474351,0.10016200004611164,0.7516571999294683
RSVPLG03,si,20260326-162256,1.0.2,20260219-152011,816,Experiment,Both,1,Automatic,main,78,20260326-163013,global,global,300,H,H,E,A,H-E.png,H-A.png,hH,hH,mask-1.png,mask-3.png,h,1,0.2621505999704823,h,1,0.1136059999698773,0.049202100024558604,0.04999369999859482,0.09845460008364171,0.09905900002922863,0.2997322999872267
RSVPLG03,si,20260326-162256,1.0.2,20260219-152011,816,Experiment,Both,1,Automatic,main,79,20260326-163017,global,local,750,H,S,E,A,H-E.png,A-S.png,hH,sS,mask-3.png,mask-2.png,h,1,0.5414998999331146,s,1,0.05707179999444634,0.05022360000293702,0.05094619991723448,0.1005770000629127,0.10013179993256927,0.751310900086537
RSVPLG03,si,20260326-162256,1.0.2,20260219-152011,816,Experiment,Both,1,Automatic,main,80,20260326-163021,global,global,300,S,H,A,A,S-A.png,H-A.png,sS,hH,mask-1.png,mask-3.png,s,1,0.3084767999825999,h,1,0.05004989996086806,0.05065989994909614,0.05164880002848804,0.10071839997544885,0.10113160009495914,0.30029159993864596
RSVPLG03,si,20260326-162256,1.0.2,20260219-152011,816,Experiment,Both,1,Automatic,main,81,20260326-163025,local,global,750,H,S,A,E,A-H.png,S-E.png,hH,sS,mask-3.png,mask-4.png,h,1,0.29006210004445165,s,1,0.4410189999034628,0.049673000001348555,0.048595599946565926,0.10020540002733469,0.0983903999440372,0.7525400000158697
RSVPLG03,si,20260326-162256,1.0.2,20260219-152011,816,Experiment,Both,1,Automatic,main,82,20260326-163030,global,local,750,H,S,A,E,H-A.png,E-S.png,hH,sS,mask-1.png,mask-1.png,h,1,0.6826821999857202,s,1,0.06591180001851171,0.0498676000861451,0.049459800007753074,0.10087040008511394,0.0999743000138551,0.751977700041607
RSVPLG03,si,20260326-162256,1.0.2,20260219-152011,816,Experiment,Both,1,Automatic,main,83,20260326-163035,global,global,750,S,H,E,E,S-E.png,H-E.png,sS,hH,mask-4.png,mask-3.png,s,1,0.2199292000150308,h,1,0.050074400031007826,0.04891730006784201,0.05045660003088415,0.09957720001693815,0.09933040000032634,0.7506887000054121
RSVPLG03,si,20260326-162256,1.0.2,20260219-152011,816,Experiment,Both,1,Automatic,main,84,20260326-163039,global,local,300,S,H,E,A,S-E.png,A-H.png,sS,hH,mask-4.png,mask-2.png,s,1,0.41923919995315373,h,1,0.048406400019302964,0.04983669996727258,0.04969410004559904,0.10060229990631342,0.09954049997031689,0.3005707999691367
RSVPLG03,si,20260326-162256,1.0.2,20260219-152011,816,Experiment,Both,1,Automatic,main,85,20260326-163043,global,local,300,H,H,E,E,H-E.png,E-H.png,hH,hH,mask-2.png,mask-2.png,h,1,0.4659620999591425,s,0,0.03391939995344728,0.050837600021623075,0.049591599963605404,0.10044760000891984,0.10058849991764873,0.30026230006478727
RSVPLG03,si,20260326-162256,1.0.2,20260219-152011,816,Experiment,Both,1,Automatic,main,86,20260326-163048,global,global,750,S,S,A,E,S-A.png,S-E.png,sS,sS,mask-2.png,mask-3.png,s,1,0.452556399977766,s,1,0.07349400001112372,0.05018020002171397,0.04973470000550151,0.10011680005118251,0.09908319998066872,0.7516220000106841
RSVPLG03,si,20260326-162256,1.0.2,20260219-152011,816,Experiment,Both,1,Automatic,main,87,20260326-163052,local,global,300,H,S,E,E,E-H.png,S-E.png,hH,sS,mask-4.png,mask-3.png,h,1,0.871758499997668,s,1,0.018384299939498305,0.049770499928854406,0.05086299998220056,0.10070790001191199,0.1012199999531731,0.3000278000254184
RSVPLG03,si,20260326-162256,1.0.2,20260219-152011,816,Experiment,Both,1,Automatic,main,88,20260326-163057,global,global,750,S,S,A,A,S-A.png,S-A.png,sS,sS,mask-1.png,mask-3.png,s,1,0.3082824000157416,s,1,0.11257640004623681,0.05128759995568544,0.05008379998616874,0.10021399997640401,0.10045009991154075,0.7518370000179857
RSVPLG03,si,20260326-162256,1.0.2,20260219-152011,816,Experiment,Both,1,Automatic,main,89,20260326-163101,local,global,750,H,H,A,E,A-H.png,H-E.png,hH,hH,mask-2.png,mask-1.png,h,1,0.6451802999945357,s,0,0.04223149991594255,0.049563199980184436,0.05053290002979338,0.099838100024499,0.10107790003530681,0.750871800002642
RSVPLG03,si,20260326-162256,1.0.2,20260219-152011,816,Experiment,Both,1,Automatic,main,90,20260326-163106,local,local,750,H,S,E,A,E-H.png,A-S.png,hH,sS,mask-4.png,mask-3.png,s,0,0.7064796999329701,s,1,0.10584089998155832,0.04992989997845143,0.049572400050237775,0.09991550003178418,0.09948600002098829,0.7511862999526784
RSVPLG03,si,20260326-162256,1.0.2,20260219-152011,816,Experiment,Both,1,Automatic,main,91,20260326-163111,global,global,300,H,H,E,E,H-E.png,H-E.png,hH,hH,mask-4.png,mask-2.png,h,1,0.2933321000309661,h,1,0.09747629996854812,0.05135980003979057,0.04952869995031506,0.0997334000421688,0.09880170004907995,0.3021077000303194
RSVPLG03,si,20260326-162256,1.0.2,20260219-152011,816,Experiment,Both,1,Automatic,main,92,20260326-163115,global,local,750,H,S,A,A,H-A.png,A-S.png,hH,sS,mask-3.png,mask-1.png,h,1,0.9639489999972284,s,1,0.04147549998015165,0.04781640006694943,0.0508882999420166,0.09932959999423474,0.10078520001843572,0.7492418000474572
RSVPLG03,si,20260326-162256,1.0.2,20260219-152011,816,Experiment,Both,1,Automatic,main,93,20260326-163120,local,local,750,H,H,A,A,A-H.png,A-H.png,hH,hH,mask-4.png,mask-1.png,h,1,0.3477133000269532,h,1,0.1297987001016736,0.05085590004455298,0.050221600104123354,0.10062240005936474,0.10005090001504868,0.7510402000043541
RSVPLG03,si,20260326-162256,1.0.2,20260219-152011,816,Experiment,Both,1,Automatic,main,94,20260326-163124,local,global,750,S,H,E,A,E-S.png,H-A.png,sS,hH,mask-4.png,mask-4.png,s,1,0.8339252999285236,s,0,0.09669390006456524,0.048758800025098026,0.04959680000320077,0.09993989998474717,0.09911229996941984,0.7508187999483198
RSVPLG03,si,20260326-162256,1.0.2,20260219-152011,816,Experiment,Both,1,Automatic,main,95,20260326-163129,local,global,750,H,H,E,A,E-H.png,H-A.png,hH,hH,mask-3.png,mask-3.png,s,0,1.5130334999412298,h,1,0.04910020006354898,0.049978299997746944,0.04868830007035285,0.10010190005414188,0.09986050007864833,0.752356700017117
RSVPLG03,si,20260326-162256,1.0.2,20260219-152011,816,Experiment,Both,1,Automatic,main,96,20260326-163135,local,global,300,S,H,A,A,A-S.png,H-A.png,sS,hH,mask-3.png,mask-4.png,s,1,0.49658300005830824,s,0,0.12152109993621707,0.050169500056654215,0.04897730005905032,0.10197499999776483,0.10077380004804581,0.30161369999404997
RSVPLG03,si,20260326-162256,1.0.2,20260219-152011,816,Experiment,Both,1,Automatic,main,97,20260326-163139,global,global,750,S,S,A,E,S-A.png,S-E.png,sS,sS,mask-2.png,mask-1.png,s,1,0.2852554999990389,s,1,0.15332390007097274,0.04971980000846088,0.050686200032942,0.10063959995750338,0.09954219998326153,0.7509617999894544
RSVPLG03,si,20260326-162256,1.0.2,20260219-152011,816,Experiment,Both,1,Automatic,main,98,20260326-163143,local,global,300,S,S,E,A,E-S.png,S-A.png,sS,sS,mask-4.png,mask-2.png,s,1,0.555987500003539,s,1,0.14514819998294115,0.05138800002168864,0.0498216999694705,0.1013336000032723,0.10024459997657686,0.3006525000091642
RSVPLG03,si,20260326-162256,1.0.2,20260219-152011,816,Experiment,Both,1,Automatic,main,99,20260326-163148,local,global,750,S,H,A,A,A-S.png,H-A.png,sS,hH,mask-3.png,mask-1.png,s,1,0.3381560000125319,h,1,0.08930550003424287,0.04970380000304431,0.05051940004341304,0.0994403000222519,0.10006460000295192,0.7508577000116929
RSVPLG03,si,20260326-162256,1.0.2,20260219-152011,816,Experiment,Both,1,Automatic,main,100,20260326-163152,global,global,750,H,H,E,A,H-E.png,H-A.png,hH,hH,mask-4.png,mask-4.png,h,1,0.776513799908571,h,1,0.09848820010665804,0.05003210005816072,0.0494126999983564,0.09983439999632537,0.10046389990020543,0.7512938000727445
RSVPLG03,si,20260326-163221,1.0.2,20260219-152011,816,Experiment,Both,1,Automatic,warmup,1,20260326-163242,global,local,300,H,S,E,E,H-E.png,E-S.png,hH,sS,mask-2.png,mask-2.png,h,1,0.2569088999880478,s,1,0.04174440004862845,0.04837060009595007,0.05151379993185401,0.09898750006686896,0.09946880000643432,0.2981704000849277
RSVPLG03,si,20260326-163221,1.0.2,20260219-152011,816,Experiment,Both,1,Automatic,warmup,2,20260326-163246,local,global,300,H,H,A,E,A-H.png,H-E.png,hH,hH,mask-1.png,mask-2.png,h,1,1.0712915000040084,s,0,0.04153380007483065,0.04991810000501573,0.05165490007493645,0.09988250001333654,0.0998496999964118,0.29858319996856153
RSVPLG03,si,20260326-163221,1.0.2,20260219-152011,816,Experiment,Both,1,Automatic,warmup,3,20260326-163250,local,global,750,S,S,E,A,E-S.png,S-A.png,sS,sS,mask-2.png,mask-2.png,s,1,1.007906699902378,h,0,0.14660039998125285,0.05068139999639243,0.04969839996192604,0.10000139998737723,0.09973869996611029,0.7472965000197291
RSVPLG03,si,20260326-163221,1.0.2,20260219-152011,816,Experiment,Both,1,Automatic,warmup,4,20260326-163256,local,local,750,H,S,A,E,A-H.png,E-S.png,hH,sS,mask-1.png,mask-1.png,h,1,0.2500329000176862,s,1,0.08201300003565848,0.04986959998495877,0.05077790003269911,0.09846449992619455,0.09968430001754314,0.7473482999484986
RSVPLG03,si,20260326-163221,1.0.2,20260219-152011,816,Experiment,Both,1,Automatic,main,5,20260326-163300,global,local,300,S,H,A,E,S-A.png,E-H.png,sS,hH,mask-1.png,mask-3.png,s,1,0.38436890009325,s,0,0.10605370008852333,0.049588900059461594,0.04833399993367493,0.09845960000529885,0.09927309991326183,0.29920810007024556
RSVPLG03,si,20260326-163221,1.0.2,20260219-152011,816,Experiment,Both,1,Automatic,main,6,20260326-163304,local,global,300,H,H,A,E,A-H.png,H-E.png,hH,hH,mask-3.png,mask-1.png,h,1,0.5698561000172049,s,0,0.042012999998405576,0.04974680009763688,0.049667099956423044,0.09926990000531077,0.09908650000579655,0.3000656000804156
RSVPLG03,si,20260326-163221,1.0.2,20260219-152011,816,Experiment,Both,1,Automatic,main,7,20260326-163308,local,local,750,S,H,E,E,E-S.png,E-H.png,sS,hH,mask-3.png,mask-2.png,s,1,0.3474918999709189,h,1,0.0737757000606507,0.049793099984526634,0.04964839993044734,0.09980749990791082,0.09947060002014041,0.7474567999597639
RSVPLG03,si,20260326-163221,1.0.2,20260219-152011,816,Experiment,Both,1,Automatic,main,8,20260326-163313,global,local,300,S,S,E,A,S-E.png,A-S.png,sS,sS,mask-2.png,mask-1.png,s,1,0.46053799998480827,h,0,0.05748650000896305,0.049957299954257905,0.050905700074508786,0.09966950002126396,0.10072029998991638,0.29852019995450974
RSVPLG03,si,20260326-163221,1.0.2,20260219-152011,816,Experiment,Both,1,Automatic,main,9,20260326-163317,global,local,750,H,H,E,A,H-E.png,A-H.png,hH,hH,mask-1.png,mask-1.png,h,1,0.3273210999323055,h,1,0.1141086999559775,0.048945499933324754,0.049785500043071806,0.09966039995197207,0.09871869999915361,0.7475894999224693
RSVPLG03,si,20260326-163221,1.0.2,20260219-152011,816,Experiment,Both,1,Automatic,main,10,20260326-163321,global,local,750,H,H,A,E,H-A.png,E-H.png,hH,hH,mask-4.png,mask-3.png,h,1,2.2400303001049906,h,1,0.12201309995725751,0.04921610001474619,0.0497247000457719,0.09904869995079935,0.09806560003198683,0.7478185999207199
RSVPLG03,si,20260326-163221,1.0.2,20260219-152011,816,Experiment,Both,1,Automatic,main,11,20260326-163328,local,global,750,S,S,E,E,E-S.png,S-E.png,sS,sS,mask-1.png,mask-3.png,s,1,0.4391156999627128,s,1,0.1459502000361681,0.050268699997104704,0.05030769994482398,0.09899129997938871,0.09963299997616559,0.7466065000044182
RSVPLG03,si,20260326-163221,1.0.2,20260219-152011,816,Experiment,Both,1,Automatic,main,12,20260326-163332,global,global,300,H,S,E,A,H-E.png,S-A.png,hH,sS,mask-3.png,mask-2.png,h,1,0.24667169991880655,s,1,0.02558869996573776,0.05066210008226335,0.049041699967347085,0.10029600001871586,0.09932929999195039,0.29992790007963777
RSVPLG03,si,20260326-163221,1.0.2,20260219-152011,816,Experiment,Both,1,Automatic,main,13,20260326-163336,local,local,750,S,H,A,E,A-S.png,E-H.png,sS,hH,mask-2.png,mask-4.png,s,1,0.30718160001561046,h,1,0.058518099947832525,0.05068879993632436,0.050532400025986135,0.10051859996747226,0.0988886000122875,0.7475787999574095
RSVPLG03,si,20260326-163221,1.0.2,20260219-152011,816,Experiment,Both,1,Automatic,main,14,20260326-163340,global,global,300,S,S,E,E,S-E.png,S-E.png,sS,sS,mask-1.png,mask-2.png,s,1,0.32002350001130253,s,1,0.10463160008657724,0.04901880002580583,0.050901299924589694,0.09895780007354915,0.09968169999774545,0.2991133000468835
RSVPLG03,si,20260326-163221,1.0.2,20260219-152011,816,Experiment,Both,1,Automatic,main,15,20260326-163344,local,local,750,S,H,A,A,A-S.png,A-H.png,sS,hH,mask-4.png,mask-4.png,s,1,0.2010828999336809,h,1,0.04124789999332279,0.04883390001486987,0.05065009999088943,0.0990008000517264,0.10048219992313534,0.746138000045903
RSVPLG03,si,20260326-163221,1.0.2,20260219-152011,816,Experiment,Both,1,Automatic,main,16,20260326-163349,global,global,300,H,S,A,E,H-A.png,S-E.png,hH,sS,mask-3.png,mask-3.png,h,1,0.2173608000157401,s,1,0.03851139999460429,0.04945549997501075,0.04822919995058328,0.09953540004789829,0.09786680003162473,0.3000888000242412
RSVPLG03,si,20260326-163221,1.0.2,20260219-152011,816,Experiment,Both,1,Automatic,main,17,20260326-163353,global,global,750,H,H,E,E,H-E.png,H-E.png,hH,hH,mask-4.png,mask-3.png,h,1,0.1877284999936819,h,1,0.09873470000457019,0.050634699990041554,0.05051700002513826,0.1000722999451682,0.10059040004853159,0.7490030999761075
RSVPLG03,si,20260326-163221,1.0.2,20260219-152011,816,Experiment,Both,1,Automatic,main,18,20260326-163357,local,global,750,S,S,A,E,A-S.png,S-E.png,sS,sS,mask-1.png,mask-2.png,s,1,0.5113437999971211,s,1,0.11445680004544556,0.04846730001736432,0.049006199929863214,0.09808389993850142,0.09907229989767075,0.7465482000261545
RSVPLG03,si,20260326-163221,1.0.2,20260219-152011,816,Experiment,Both,1,Automatic,main,19,20260326-163401,global,global,750,S,S,E,E,S-E.png,S-E.png,sS,sS,mask-2.png,mask-1.png,s,1,0.3499958000611514,s,1,0.08234990003984421,0.04867920000106096,0.049530799966305494,0.09852299990598112,0.10111249994952232,0.7468347999965772
RSVPLG03,si,20260326-163221,1.0.2,20260219-152011,816,Experiment,Both,1,Automatic,main,20,20260326-163406,local,local,300,H,H,E,A,E-H.png,A-H.png,hH,hH,mask-4.png,mask-3.png,h,1,1.1644602000014856,s,0,0.11427869996987283,0.05013439990580082,0.04963999998290092,0.09990709996782243,0.09842429996933788,0.3002682999940589
RSVPLG03,si,20260326-163221,1.0.2,20260219-152011,816,Experiment,Both,1,Automatic,main,21,20260326-163411,local,global,300,S,S,A,E,A-S.png,S-E.png,sS,sS,mask-1.png,mask-4.png,s,1,0.7319842999568209,s,1,0.14640550001058728,0.04918680002447218,0.04921170009765774,0.09916310000699013,0.0998997000278905,0.29899119993206114
RSVPLG03,si,20260326-163221,1.0.2,20260219-152011,816,Experiment,Both,1,Automatic,main,22,20260326-163415,global,global,750,H,S,E,E,H-E.png,S-E.png,hH,sS,mask-4.png,mask-2.png,h,1,0.2944537999574095,s,1,0.11394599999766797,0.04972580005414784,0.04966489993967116,0.09957369999028742,0.09967869997490197,0.7480158000253141
RSVPLG03,si,20260326-163221,1.0.2,20260219-152011,816,Experiment,Both,1,Automatic,main,23,20260326-163420,global,global,750,S,S,E,A,S-E.png,S-A.png,sS,sS,mask-1.png,mask-3.png,s,1,0.2638642000965774,s,1,0.10530489997472614,0.049062600010074675,0.0504485999699682,0.09897110005840659,0.0998419999377802,0.7475426000310108
RSVPLG03,si,20260326-163221,1.0.2,20260219-152011,816,Experiment,Both,1,Automatic,main,24,20260326-163424,local,global,750,H,S,A,E,A-H.png,S-E.png,hH,sS,mask-3.png,mask-3.png,h,1,0.46130040008574724,h,0,0.10574869997799397,0.0481405999744311,0.048194199916906655,0.09891920001246035,0.09948999993503094,0.7475010000634938
RSVPLG03,si,20260326-163221,1.0.2,20260219-152011,816,Experiment,Both,1,Automatic,main,25,20260326-163428,local,global,300,H,S,E,E,E-H.png,S-E.png,hH,sS,mask-3.png,mask-1.png,h,1,0.5664047999307513,s,1,0.04987690004054457,0.050205100094899535,0.05006829998455942,0.09969190007541329,0.0994445999385789,0.29806220007594675
RSVPLG03,si,20260326-163221,1.0.2,20260219-152011,816,Experiment,Both,1,Automatic,main,26,20260326-163450,local,local,300,H,H,A,A,A-H.png,A-H.png,hH,hH,mask-2.png,mask-4.png,h,1,0.5125586000503972,s,0,0.05634110001847148,0.04888799996115267,0.04929719993378967,0.0999976999592036,0.09957029996439815,0.2993971999967471
RSVPLG03,si,20260326-163221,1.0.2,20260219-152011,816,Experiment,Both,1,Automatic,main,27,20260326-163454,local,global,750,H,S,A,E,A-H.png,S-E.png,hH,sS,mask-3.png,mask-2.png,h,1,0.7692365000257269,h,0,0.12124600005336106,0.05026349995750934,0.0503857999574393,0.09969989990349859,0.09970180003438145,0.7480051999446005
RSVPLG03,si,20260326-163221,1.0.2,20260219-152011,816,Experiment,Both,1,Automatic,main,28,20260326-163459,global,global,750,S,H,E,A,S-E.png,H-A.png,sS,hH,mask-3.png,mask-2.png,s,1,0.3127530999481678,h,1,0.03984310000669211,0.050215200055390596,0.049555899924598634,0.09870800003409386,0.09984289994463325,0.7471228000940755
RSVPLG03,si,20260326-163221,1.0.2,20260219-152011,816,Experiment,Both,1,Automatic,main,29,20260326-163504,global,local,750,H,H,E,E,H-E.png,E-H.png,hH,hH,mask-3.png,mask-3.png,h,1,0.43330040003638715,h,1,0.11330089997500181,0.048969199997372925,0.050995799945667386,0.09894220007117838,0.10116079996805638,0.7474074000492692
RSVPLG03,si,20260326-163221,1.0.2,20260219-152011,816,Experiment,Both,1,Automatic,main,30,20260326-163508,global,local,300,S,H,E,E,S-E.png,E-H.png,sS,hH,mask-1.png,mask-4.png,s,1,0.4622535998933017,h,1,0.08084700000472367,0.04956279997713864,0.04893319995608181,0.09956799994688481,0.09935369994491339,0.29942799999844283
RSVPLG03,si,20260326-163221,1.0.2,20260219-152011,816,Experiment,Both,1,Automatic,main,31,20260326-163512,local,local,300,H,S,A,E,A-H.png,E-S.png,hH,sS,mask-2.png,mask-4.png,h,1,0.35602980002295226,s,1,0.08907619991805404,0.048272699932567775,0.04990680003538728,0.1000828999094665,0.09955809998791665,0.2981328999157995
RSVPLG03,si,20260326-163221,1.0.2,20260219-152011,816,Experiment,Both,1,Automatic,main,32,20260326-163516,global,global,300,S,H,E,E,S-E.png,H-E.png,sS,hH,mask-1.png,mask-4.png,s,1,0.2954947999678552,h,1,0.05768329999409616,0.04973800003062934,0.04982289997860789,0.09939270000904799,0.10015149996615946,0.298456700053066
RSVPLG03,si,20260326-163221,1.0.2,20260219-152011,816,Experiment,Both,1,Automatic,main,33,20260326-163520,global,local,750,S,S,E,E,S-E.png,E-S.png,sS,sS,mask-1.png,mask-3.png,s,1,0.2937759000342339,s,1,0.13720789994113147,0.047689000028185546,0.050009200000204146,0.0971941000316292,0.1010727999964729,0.7455975000048056
RSVPLG03,si,20260326-163221,1.0.2,20260219-152011,816,Experiment,Both,1,Automatic,main,34,20260326-163525,local,local,750,H,S,A,E,A-H.png,E-S.png,hH,sS,mask-4.png,mask-3.png,h,1,1.971060000010766,s,1,0.6738419999601319,0.05103249999228865,0.05054800002835691,0.09932029992341995,0.09952080005314201,0.7478629999095574
RSVPLG03,si,20260326-163221,1.0.2,20260219-152011,816,Experiment,Both,1,Automatic,main,35,20260326-163531,local,global,750,H,S,A,A,A-H.png,S-A.png,hH,sS,mask-3.png,mask-1.png,h,1,0.7424106999533251,h,0,0.12993499997537583,0.04887039994355291,0.0520985999610275,0.10007809998933226,0.10033639997709543,0.7464022999629378
RSVPLG03,si,20260326-163221,1.0.2,20260219-152011,816,Experiment,Both,1,Automatic,main,36,20260326-163536,global,local,300,S,H,A,A,S-A.png,A-H.png,sS,hH,mask-2.png,mask-2.png,s,1,0.2926242001121864,h,1,0.0708731000777334,0.04885319992899895,0.049453499959781766,0.09929449995979667,0.09825219993945211,0.2990013000089675
RSVPLG03,si,20260326-163221,1.0.2,20260219-152011,816,Experiment,Both,1,Automatic,main,37,20260326-163540,local,global,300,S,S,E,A,E-S.png,S-A.png,sS,sS,mask-2.png,mask-2.png,s,1,0.5029869999270886,s,1,0.11068660009186715,0.04963859997224063,0.05087750009261072,0.09879189997445792,0.100204800022766,0.29799559991806746
RSVPLG03,si,20260326-163221,1.0.2,20260219-152011,816,Experiment,Both,1,Automatic,main,38,20260326-163544,local,global,750,H,S,E,E,E-H.png,S-E.png,hH,sS,mask-1.png,mask-2.png,h,1,0.37285790010355413,h,0,0.10501569998450577,0.048918699962086976,0.049514499958604574,0.09919800003990531,0.0998810000019148,0.7469907000195235
RSVPLG03,si,20260326-163221,1.0.2,20260219-152011,816,Experiment,Both,1,Automatic,main,39,20260326-163549,global,local,300,S,H,E,E,S-E.png,E-H.png,sS,hH,mask-2.png,mask-4.png,s,1,0.3982403000118211,h,1,0.20099090004805475,0.04943070001900196,0.049989899969659746,0.10002040001563728,0.10000249999575317,0.2983597000129521
RSVPLG03,si,20260326-163221,1.0.2,20260219-152011,816,Experiment,Both,1,Automatic,main,40,20260326-163553,global,local,750,H,S,E,E,H-E.png,E-S.png,hH,sS,mask-1.png,mask-1.png,h,1,0.2856210999889299,h,0,0.0893309999955818,0.05027369991876185,0.048336700070649385,0.10128770000301301,0.09843390004243702,0.7495641999412328
RSVPLG03,si,20260326-163221,1.0.2,20260219-152011,816,Experiment,Both,1,Automatic,main,41,20260326-163558,local,local,300,H,S,A,A,A-H.png,A-S.png,hH,sS,mask-1.png,mask-3.png,h,1,0.2963805999606848,s,1,0.06582600006368011,0.050345700001344085,0.04966469993814826,0.1005497999722138,0.09956389991566539,0.29902410006616265
RSVPLG03,si,20260326-163221,1.0.2,20260219-152011,816,Experiment,Both,1,Automatic,main,42,20260326-163602,global,global,300,H,H,E,E,H-E.png,H-E.png,hH,hH,mask-1.png,mask-3.png,h,1,0.2842877999646589,h,1,0.09629470005165786,0.0492452000034973,0.049841800006106496,0.09922139998525381,0.09858549991622567,0.29889790003653616
RSVPLG03,si,20260326-163221,1.0.2,20260219-152011,816,Experiment,Both,1,Automatic,main,43,20260326-163605,local,global,750,S,S,A,A,A-S.png,S-A.png,sS,sS,mask-2.png,mask-4.png,s,1,0.28266810008790344,s,1,0.12305480008944869,0.04935789993032813,0.04834780003875494,0.09982499992474914,0.0996700000250712,0.7472864999435842
RSVPLG03,si,20260326-163221,1.0.2,20260219-152011,816,Experiment,Both,1,Automatic,main,44,20260326-163610,global,local,750,S,H,E,E,S-E.png,E-H.png,sS,hH,mask-3.png,mask-2.png,s,1,1.2042431000154465,h,1,0.0414215000346303,0.049676100024953485,0.04950709990225732,0.09946250007487833,0.10095039999578148,0.7482663000700995
RSVPLG03,si,20260326-163221,1.0.2,20260219-152011,816,Experiment,Both,1,Automatic,main,45,20260326-163615,global,global,750,H,H,E,E,H-E.png,H-E.png,hH,hH,mask-1.png,mask-1.png,h,1,0.8877565999282524,h,1,0.08984359994065017,0.049656699993647635,0.05379269993864,0.09847950004041195,0.09984789998270571,0.7476973000448197
RSVPLG03,si,20260326-163221,1.0.2,20260219-152011,816,Experiment,Both,1,Automatic,main,46,20260326-163620,global,global,300,S,S,E,A,S-E.png,S-A.png,sS,sS,mask-4.png,mask-3.png,s,1,0.5801687999628484,s,1,0.13613640004768968,0.04978320002555847,0.0511572000104934,0.10074420005548745,0.09976809995714575,0.29871390003245324
RSVPLG03,si,20260326-163221,1.0.2,20260219-152011,816,Experiment,Both,1,Automatic,main,47,20260326-163624,global,global,750,S,H,E,E,S-E.png,H-E.png,sS,hH,mask-3.png,mask-1.png,s,1,0.35215980000793934,h,1,0.041580299963243306,0.050490499939769506,0.04978340002708137,0.09929379995446652,0.10001300007570535,0.7479584999382496
RSVPLG03,si,20260326-163221,1.0.2,20260219-152011,816,Experiment,Both,1,Automatic,main,48,20260326-163629,local,local,300,H,H,A,A,A-H.png,A-H.png,hH,hH,mask-1.png,mask-1.png,h,1,0.3107118000043556,h,1,0.1135325999930501,0.05130829999689013,0.050434399978257716,0.09973440004978329,0.0995937999105081,0.2999073000391945
RSVPLG03,si,20260326-163221,1.0.2,20260219-152011,816,Experiment,Both,1,Automatic,main,49,20260326-163633,global,local,750,H,H,E,E,H-E.png,E-H.png,hH,hH,mask-3.png,mask-4.png,s,0,0.6038844999857247,h,1,0.7534871000098065,0.04949010000564158,0.049862499930895865,0.09953200002200902,0.09856999991461635,0.7482714999932796
RSVPLG03,si,20260326-163221,1.0.2,20260219-152011,816,Experiment,Both,1,Automatic,main,50,20260326-163638,local,local,300,H,S,A,E,A-H.png,E-S.png,hH,sS,mask-1.png,mask-3.png,h,1,0.45581359998323023,h,0,0.09828650008421391,0.05109720001928508,0.05016860004980117,0.10054890008177608,0.09980249998625368,0.300076000043191
RSVPLG03,si,20260326-163221,1.0.2,20260219-152011,816,Experiment,Both,1,Automatic,main,51,20260326-163720,global,local,300,H,H,E,E,H-E.png,E-H.png,hH,hH,mask-2.png,mask-2.png,h,1,1.049485499970615,h,1,0.10484829999040812,0.0499773999908939,0.05004719994030893,0.10008480004034936,0.09899199998471886,0.29964860004838556
RSVPLG03,si,20260326-163221,1.0.2,20260219-152011,816,Experiment,Both,1,Automatic,main,52,20260326-163725,global,local,300,H,S,E,A,H-E.png,A-S.png,hH,sS,mask-3.png,mask-4.png,h,1,0.5423033999977633,s,1,0.049506900017149746,0.05078710010275245,0.049178199958987534,0.09915360005106777,0.09985549992416054,0.2990860000718385
RSVPLG03,si,20260326-163221,1.0.2,20260219-152011,816,Experiment,Both,1,Automatic,main,53,20260326-163729,local,global,300,H,H,E,E,E-H.png,H-E.png,hH,hH,mask-4.png,mask-2.png,h,1,0.8368733000243083,s,0,0.10614940000232309,0.049308400019071996,0.05103229999076575,0.0983362999977544,0.10127210000064224,0.2971856000367552
RSVPLG03,si,20260326-163221,1.0.2,20260219-152011,816,Experiment,Both,1,Automatic,main,54,20260326-163734,local,global,300,H,H,A,E,A-H.png,H-E.png,hH,hH,mask-4.png,mask-1.png,h,1,0.5193372999783605,s,0,0.06552479998208582,0.050274299923330545,0.05046100006438792,0.09952169994357973,0.10012319998349994,0.2980098999105394
RSVPLG03,si,20260326-163221,1.0.2,20260219-152011,816,Experiment,Both,1,Automatic,main,55,20260326-163738,local,local,750,S,S,A,A,A-S.png,A-S.png,sS,sS,mask-2.png,mask-2.png,s,1,0.3354236000450328,s,1,0.11392769997473806,0.04864349996205419,0.0506154999602586,0.09902309998869896,0.10104199999477714,0.7466381000122055
RSVPLG03,si,20260326-163221,1.0.2,20260219-152011,816,Experiment,Both,1,Automatic,main,56,20260326-163742,local,global,300,S,S,E,A,E-S.png,S-A.png,sS,sS,mask-1.png,mask-4.png,s,1,0.4140950000146404,h,0,0.07365090004168451,0.04792839998845011,0.04894949996378273,0.09904439991805702,0.09977460000663996,0.298313400009647
RSVPLG03,si,20260326-163221,1.0.2,20260219-152011,816,Experiment,Both,1,Automatic,main,57,20260326-163746,global,local,750,H,S,A,E,H-A.png,E-S.png,hH,sS,mask-3.png,mask-2.png,h,1,0.9940306999487802,h,0,0.11350690003018826,0.04854740004520863,0.04889870004262775,0.09850940003525466,0.1000237000407651,0.7467608000151813
RSVPLG03,si,20260326-163221,1.0.2,20260219-152011,816,Experiment,Both,1,Automatic,main,58,20260326-163751,local,global,300,H,H,E,A,E-H.png,H-A.png,hH,hH,mask-2.png,mask-4.png,h,1,0.49988790007773787,s,0,0.04222890001256019,0.047378099989145994,0.051216899999417365,0.09687939996365458,0.10010159993544221,0.2957629000302404
RSVPLG03,si,20260326-163221,1.0.2,20260219-152011,816,Experiment,Both,1,Automatic,main,59,20260326-163756,local,global,750,S,H,A,A,A-S.png,H-A.png,sS,hH,mask-3.png,mask-1.png,s,1,0.27521059999708086,h,1,0.032438699970953166,0.050867200014181435,0.04915790003724396,0.10487399995326996,0.09892599994782358,0.748194899992086
RSVPLG03,si,20260326-163221,1.0.2,20260219-152011,816,Experiment,Both,1,Automatic,main,60,20260326-163800,global,global,750,H,H,A,E,H-A.png,H-E.png,hH,hH,mask-3.png,mask-1.png,h,1,0.24945979996118695,h,1,0.10868479998316616,0.049065600032918155,0.0506116000469774,0.09958569996524602,0.10061550000682473,0.7473464999347925
RSVPLG03,si,20260326-163221,1.0.2,20260219-152011,816,Experiment,Both,1,Automatic,main,61,20260326-163804,local,global,300,H,H,E,E,E-H.png,H-E.png,hH,hH,mask-3.png,mask-4.png,h,1,0.3884230999974534,s,0,0.08151290006935596,0.04987520002759993,0.0486302999779582,0.09995300008449703,0.09948099998291582,0.2991033000871539
RSVPLG03,si,20260326-163221,1.0.2,20260219-152011,816,Experiment,Both,1,Automatic,main,62,20260326-163808,global,global,300,S,S,E,E,S-E.png,S-E.png,sS,sS,mask-1.png,mask-3.png,s,1,1.2254943000152707,h,0,0.08947230002377182,0.050244800047948956,0.05038080003578216,0.10098860005382448,0.09996200003661215,0.29945669998414814
RSVPLG03,si,20260326-163221,1.0.2,20260219-152011,816,Experiment,Both,1,Automatic,main,63,20260326-163813,local,local,300,S,S,E,A,E-S.png,A-S.png,sS,sS,mask-2.png,mask-1.png,s,1,0.5004115999909118,s,1,0.12182859994936734,0.04931909998413175,0.04850759997498244,0.09973490005359054,0.09957950003445148,0.2988671000348404
RSVPLG03,si,20260326-163221,1.0.2,20260219-152011,816,Experiment,Both,1,Automatic,main,64,20260326-163818,global,local,750,S,H,A,E,S-A.png,E-H.png,sS,hH,mask-2.png,mask-1.png,s,1,0.750389999942854,h,1,0.08158870006445795,0.05056470003910363,0.04965290008112788,0.10123740008566529,0.10008350003045052,0.7479065000079572
RSVPLG03,si,20260326-163221,1.0.2,20260219-152011,816,Experiment,Both,1,Automatic,main,65,20260326-163822,local,global,300,H,S,A,A,A-H.png,S-A.png,hH,sS,mask-3.png,mask-1.png,h,1,0.6747130999574438,s,1,0.049725000048056245,0.04908429994247854,0.050708399969153106,0.09907080000266433,0.10019909997936338,0.2979971000459045
RSVPLG03,si,20260326-163221,1.0.2,20260219-152011,816,Experiment,Both,1,Automatic,main,66,20260326-163827,local,local,750,H,H,E,A,E-H.png,A-H.png,hH,hH,mask-1.png,mask-3.png,h,1,0.4481671000830829,h,1,0.4746535000158474,0.05072069994639605,0.04965930001344532,0.10047840001061559,0.09941279992926866,0.7471777000464499
RSVPLG03,si,20260326-163221,1.0.2,20260219-152011,816,Experiment,Both,1,Automatic,main,67,20260326-163832,local,local,750,S,H,E,E,E-S.png,E-H.png,sS,hH,mask-4.png,mask-3.png,s,1,0.2967233000090346,h,1,0.049056499963626266,0.048062599962577224,0.05020549998153001,0.09877469995990396,0.09788570005912334,0.7473217999795452
RSVPLG03,si,20260326-163221,1.0.2,20260219-152011,816,Experiment,Both,1,Automatic,main,68,20260326-163836,local,global,750,H,H,E,A,E-H.png,H-A.png,hH,hH,mask-1.png,mask-3.png,h,1,0.6930150999687612,h,1,0.10525490005966276,0.049536900012753904,0.04999520001001656,0.0994834000011906,0.09991630003787577,0.7478117999853566
RSVPLG03,si,20260326-163221,1.0.2,20260219-152011,816,Experiment,Both,1,Automatic,main,69,20260326-163841,global,local,300,H,S,A,E,H-A.png,E-S.png,hH,sS,mask-4.png,mask-1.png,h,1,1.088641899987124,s,1,0.09071619994938374,0.0494009000249207,0.04997490008827299,0.10098069999366999,0.10005440004169941,0.2986613999819383
RSVPLG03,si,20260326-163221,1.0.2,20260219-152011,816,Experiment,Both,1,Automatic,main,70,20260326-163846,global,local,750,S,S,A,E,S-A.png,E-S.png,sS,sS,mask-3.png,mask-1.png,s,1,0.22218229994177818,s,1,0.2726672999560833,0.04883390001486987,0.04965289996471256,0.09880859998520464,0.09999579994473606,0.7462478000670671
RSVPLG03,si,20260326-163221,1.0.2,20260219-152011,816,Experiment,Both,1,Automatic,main,71,20260326-163850,global,global,300,H,H,A,E,H-A.png,H-E.png,hH,hH,mask-3.png,mask-1.png,h,1,0.3725031000794843,h,1,0.12153479992412031,0.04961930005811155,0.05046550009865314,0.0996504999930039,0.09942600002977997,0.2995462999679148
RSVPLG03,si,20260326-163221,1.0.2,20260219-152011,816,Experiment,Both,1,Automatic,main,72,20260326-163854,local,local,750,S,H,A,A,A-S.png,A-H.png,sS,hH,mask-3.png,mask-2.png,s,1,0.27769829996395856,h,1,0.09896050009410828,0.04996730003040284,0.049695400055497885,0.0993234000634402,0.0994955999776721,0.7470472999848425
RSVPLG03,si,20260326-163221,1.0.2,20260219-152011,816,Experiment,Both,1,Automatic,main,73,20260326-163859,local,local,750,H,S,E,A,E-H.png,A-S.png,hH,sS,mask-2.png,mask-2.png,h,1,0.20418110000900924,s,1,0.07332750002387911,0.049004900036379695,0.04956569999922067,0.09926280006766319,0.09864480001851916,0.7485687000444159
RSVPLG03,si,20260326-163221,1.0.2,20260219-152011,816,Experiment,Both,1,Automatic,main,74,20260326-163903,global,global,300,H,S,E,E,H-E.png,S-E.png,hH,sS,mask-3.png,mask-4.png,h,1,0.38865189999341965,s,1,0.12252039997838438,0.04948380007408559,0.05006639997009188,0.09920759999658912,0.09911369998008013,0.298046600073576
RSVPLG03,si,20260326-163221,1.0.2,20260219-152011,816,Experiment,Both,1,Automatic,main,75,20260326-163907,global,local,300,H,H,A,E,H-A.png,E-H.png,hH,hH,mask-2.png,mask-3.png,h,1,0.3862088000169024,s,0,0.09749249997548759,0.04993710003327578,0.04892590001691133,0.10055249999277294,0.09902650001458824,0.2984909999649972
RSVPLG03,si,20260326-163221,1.0.2,20260219-152011,816,Experiment,Both,1,Automatic,main,76,20260326-163927,global,local,300,H,H,E,A,H-E.png,A-H.png,hH,hH,mask-4.png,mask-4.png,h,1,0.2025336999213323,s,0,0.20134399994276464,0.04948269994929433,0.049455199972726405,0.09990400006063282,0.09908139996696264,0.2995052000042051
RSVPLG03,si,20260326-163221,1.0.2,20260219-152011,816,Experiment,Both,1,Automatic,main,77,20260326-163931,local,global,750,H,H,E,A,E-H.png,H-A.png,hH,hH,mask-1.png,mask-2.png,h,1,0.3562918999232352,h,1,0.10586299991700798,0.049673200002871454,0.04901469999458641,0.0994829999981448,0.09880230005364865,0.7481683999067172
RSVPLG03,si,20260326-163221,1.0.2,20260219-152011,816,Experiment,Both,1,Automatic,main,78,20260326-163936,local,global,750,H,S,E,A,E-H.png,S-A.png,hH,sS,mask-4.png,mask-3.png,h,1,0.6692048000404611,h,0,0.11050680000334978,0.05076289991848171,0.04902909998781979,0.10079369996674359,0.09970879997126758,0.7488623999524862
RSVPLG03,si,20260326-163221,1.0.2,20260219-152011,816,Experiment,Both,1,Automatic,main,79,20260326-163941,global,global,750,S,H,E,A,S-E.png,H-A.png,sS,hH,mask-1.png,mask-3.png,s,1,0.2211447999579832,h,1,0.033429899951443076,0.05060560000129044,0.05033769994042814,0.10011580004356802,0.0990902999183163,0.7480223000748083
RSVPLG03,si,20260326-163221,1.0.2,20260219-152011,816,Experiment,Both,1,Automatic,main,80,20260326-163945,local,local,300,S,H,A,A,A-S.png,A-H.png,sS,hH,mask-3.png,mask-3.png,s,1,0.33515359996818006,h,1,0.3288337999256328,0.0499895999673754,0.04983619996346533,0.10109819995705038,0.09873780002817512,0.29993199999444187
RSVPLG03,si,20260326-163221,1.0.2,20260219-152011,816,Experiment,Both,1,Automatic,main,81,20260326-163949,local,local,300,S,S,E,A,E-S.png,A-S.png,sS,sS,mask-4.png,mask-3.png,s,1,0.27416390005964786,s,1,0.07405759999528527,0.05028450000099838,0.04999229998793453,0.1000484999967739,0.09992380009498447,0.298541700001806
RSVPLG03,si,20260326-163221,1.0.2,20260219-152011,816,Experiment,Both,1,Automatic,main,82,20260326-163953,global,global,300,H,H,E,A,H-E.png,H-A.png,hH,hH,mask-3.png,mask-3.png,h,1,0.363861299934797,h,1,0.09850880003068596,0.04855680000036955,0.04971549997571856,0.09828179993201047,0.1000285999616608,0.29821859998628497
RSVPLG03,si,20260326-163221,1.0.2,20260219-152011,816,Experiment,Both,1,Automatic,main,83,20260326-163957,local,global,300,S,H,E,A,E-S.png,H-A.png,sS,hH,mask-2.png,mask-2.png,s,1,0.511648099985905,h,1,0.07347850000951439,0.048701100051403046,0.05317599989939481,0.09963760001119226,0.09943969990126789,0.29766620008740574
RSVPLG03,si,20260326-163221,1.0.2,20260219-152011,816,Experiment,Both,1,Automatic,main,84,20260326-164002,global,global,750,H,H,A,E,H-A.png,H-E.png,hH,hH,mask-4.png,mask-4.png,h,1,0.16325500002130866,h,1,0.0739907999522984,0.04966469993814826,0.04908460006117821,0.09946880000643432,0.09944290004204959,0.7476726999739185
RSVPLG03,si,20260326-163221,1.0.2,20260219-152011,816,Experiment,Both,1,Automatic,main,85,20260326-164006,local,local,300,H,H,A,E,A-H.png,E-H.png,hH,hH,mask-4.png,mask-1.png,h,1,0.21456680004484951,h,1,0.10550289996899664,0.04898730001877993,0.05022360000293702,0.09895269991829991,0.10078249999787658,0.2985017999308184
RSVPLG03,si,20260326-163221,1.0.2,20260219-152011,816,Experiment,Both,1,Automatic,main,86,20260326-164010,global,local,750,H,H,A,A,H-A.png,A-H.png,hH,hH,mask-2.png,mask-2.png,h,1,0.2163901999592781,h,1,0.08124920004047453,0.04987390001770109,0.05015839997213334,0.0990439000306651,0.09881029999814928,0.7473598000360653
RSVPLG03,si,20260326-163221,1.0.2,20260219-152011,816,Experiment,Both,1,Automatic,main,87,20260326-164014,global,local,300,S,S,E,E,S-E.png,E-S.png,sS,sS,mask-3.png,mask-2.png,s,1,0.321737099904567,s,1,0.08951849990990013,0.048889399971812963,0.04933299997355789,0.0988949000602588,0.10012449999339879,0.299129500053823
RSVPLG03,si,20260326-163221,1.0.2,20260219-152011,816,Experiment,Both,1,Automatic,main,88,20260326-164018,global,local,750,H,S,E,A,H-E.png,A-S.png,hH,sS,mask-3.png,mask-3.png,h,1,0.7183760999469087,h,0,0.07330519997049123,0.05005620000883937,0.0490547000663355,0.09985620004590601,0.09886240004561841,0.748695999966003
RSVPLG03,si,20260326-163221,1.0.2,20260219-152011,816,Experiment,Both,1,Automatic,main,89,20260326-164023,global,local,300,S,S,A,A,S-A.png,A-S.png,sS,sS,mask-2.png,mask-2.png,s,1,0.37177049997262657,s,1,0.12991530005820096,0.04969600006006658,0.05006589996628463,0.0995767000131309,0.09988999995402992,0.29873200005386025
RSVPLG03,si,20260326-163221,1.0.2,20260219-152011,816,Experiment,Both,1,Automatic,main,90,20260326-164027,global,global,750,S,S,A,E,S-A.png,S-E.png,sS,sS,mask-1.png,mask-4.png,s,1,0.19125549995806068,s,1,0.08070460008457303,0.048640399938449264,0.049630000023171306,0.09851949999574572,0.10052020009607077,0.7465790999121964
RSVPLG03,si,20260326-163221,1.0.2,20260219-152011,816,Experiment,Both,1,Automatic,main,91,20260326-164031,local,local,300,H,S,A,A,A-H.png,A-S.png,hH,sS,mask-1.png,mask-1.png,h,1,0.39347299991641194,s,1,0.04041070002131164,0.05100979993585497,0.048918599961325526,0.10094279993791133,0.10008209990337491,0.30002750002313405
RSVPLG03,si,20260326-163221,1.0.2,20260219-152011,816,Experiment,Both,1,Automatic,main,92,20260326-164035,global,global,300,H,S,E,A,H-E.png,S-A.png,hH,sS,mask-1.png,mask-3.png,h,1,0.2480443000094965,s,1,0.2887004000367597,0.0486809000140056,0.04967480001505464,0.09946200007107109,0.1004802999086678,0.29803010006435215
RSVPLG03,si,20260326-163221,1.0.2,20260219-152011,816,Experiment,Both,1,Automatic,main,93,20260326-164039,local,local,750,S,H,E,E,E-S.png,E-H.png,sS,hH,mask-4.png,mask-1.png,s,1,0.22892350004985929,h,1,0.01777459995355457,0.048989699920639396,0.04968419997021556,0.09922679990995675,0.09944250003900379,0.7472565999487415
RSVPLG03,si,20260326-163221,1.0.2,20260219-152011,816,Experiment,Both,1,Automatic,main,94,20260326-164044,local,local,750,S,H,A,A,A-S.png,A-H.png,sS,hH,mask-1.png,mask-1.png,s,1,0.1726009000558406,h,1,0.06209679995663464,0.04990350001025945,0.05064410006161779,0.09982200001832098,0.1006709000794217,0.7468618999700993
RSVPLG03,si,20260326-163221,1.0.2,20260219-152011,816,Experiment,Both,1,Automatic,main,95,20260326-164048,local,local,300,H,H,A,A,A-H.png,A-H.png,hH,hH,mask-1.png,mask-4.png,h,1,0.6627701999386773,s,0,0.017373700044117868,0.04933129996061325,0.048926300019957125,0.09900189994368702,0.09876059996895492,0.29900909995194525
RSVPLG03,si,20260326-163221,1.0.2,20260219-152011,816,Experiment,Both,1,Automatic,main,96,20260326-164053,local,local,750,S,H,E,E,E-S.png,E-H.png,sS,hH,mask-1.png,mask-2.png,s,1,0.19436680001672357,h,1,0.04914810007903725,0.05117009999230504,0.04899919999297708,0.10095039999578148,0.09936920006293803,0.7478469000197947
RSVPLG03,si,20260326-163221,1.0.2,20260219-152011,816,Experiment,Both,1,Automatic,main,97,20260326-164057,global,global,750,H,H,E,A,H-E.png,H-A.png,hH,hH,mask-4.png,mask-3.png,h,1,0.17253929993603379,h,1,0.0976699999300763,0.049889199901372194,0.05018070002552122,0.09993099991697818,0.09994290000759065,0.7487107999622822
RSVPLG03,si,20260326-163221,1.0.2,20260219-152011,816,Experiment,Both,1,Automatic,main,98,20260326-164101,global,global,300,S,H,E,A,S-E.png,H-A.png,sS,hH,mask-1.png,mask-2.png,s,1,0.26154310000129044,h,1,0.06573990010656416,0.051029999973252416,0.05103660002350807,0.10028649994637817,0.09980139997787774,0.29865559993777424
RSVPLG03,si,20260326-163221,1.0.2,20260219-152011,816,Experiment,Both,1,Automatic,main,99,20260326-164105,local,global,750,H,H,A,E,A-H.png,H-E.png,hH,hH,mask-2.png,mask-1.png,h,1,0.5146604999899864,h,1,0.08975150005426258,0.04973360011354089,0.04914620006456971,0.09947250003460795,0.09930350002832711,0.74737360002473
RSVPLG03,si,20260326-163221,1.0.2,20260219-152011,816,Experiment,Both,1,Automatic,main,100,20260326-164110,local,global,300,H,H,E,A,E-H.png,H-A.png,hH,hH,mask-3.png,mask-2.png,h,1,0.8925064000068232,h,1,0.0974784999853,0.049662900040857494,0.05008590000215918,0.10027349996380508,0.10042040003463626,0.2988154999911785
