exp,exp_initials,runtime,ver,modtime,sub,blocktype,targets,cuetype,mode,trialtype,trial,trialtime,t1_level,t2_level,t2_lag,t1,t2,distractor1,distractor2,stimfile1,stimfile2,t1_corr,t2_corr,maskfile1,maskfile2,t1_resp,t1_acc,t1_rt,t2_resp,t2_acc,t2_rt,t1_dur,t2_dur,t1mask_soa,t2mask_soa,t1t2_soa
RSVPLG03,km,20251120-120833,1.0.2,20251113-095759,750,Introduction,T1,1,Automatic,main,1,20251120-120903,global,global,750,S,S,E,E,S-E.png,S-E.png,sS,sS,mask-3.png,mask-4.png,s,1,1.6282002000079956,none,-5,0,0.09287429999676533,0.10077910000109114,0.1914907000027597,0.2004636999918148,0.7411634000018239
RSVPLG03,km,20251120-120833,1.0.2,20251113-095759,750,Introduction,T1,1,Automatic,main,2,20251120-120909,global,global,750,H,H,A,E,H-A.png,H-E.png,hH,hH,mask-1.png,mask-3.png,h,1,0.13181399999302812,none,-5,0,0.09864890002063476,0.10069250001106411,0.1980063000228256,0.20045610002125613,0.7479594000033103
RSVPLG03,km,20251120-120833,1.0.2,20251113-095759,750,Introduction,T1,1,Automatic,main,3,20251120-120913,local,global,750,H,H,E,A,E-H.png,H-A.png,hH,hH,mask-1.png,mask-1.png,h,1,1.4593260000110604,none,-5,0,0.10018919999129139,0.0997155999939423,0.20047929999418557,0.19965140000567771,0.7494701000105124
RSVPLG03,km,20251120-120833,1.0.2,20251113-095759,750,Introduction,T1,1,Automatic,main,4,20251120-120919,local,local,750,S,S,E,E,E-S.png,E-S.png,sS,sS,mask-1.png,mask-2.png,s,1,0.3116638000064995,none,-5,0,0.10112150001805276,0.10084679999272339,0.20109919999958947,0.19969249999849126,0.749910100013949
RSVPLG03,km,20251120-120833,1.0.2,20251113-095759,750,Introduction,T1,1,Automatic,main,5,20251120-120923,local,global,750,H,H,A,E,A-H.png,H-E.png,hH,hH,mask-1.png,mask-1.png,h,1,0.30040149998967536,none,-5,0,0.0996236999926623,0.09929889999330044,0.20054580000578426,0.19978969998192042,0.7503758000093512
RSVPLG03,km,20251120-120833,1.0.2,20251113-095759,750,Introduction,T1,1,Automatic,main,6,20251120-120928,local,local,750,S,H,A,E,A-S.png,E-H.png,sS,hH,mask-1.png,mask-4.png,s,1,0.577767099981429,none,-5,0,0.10079749999567866,0.09942039998713881,0.20054459999664687,0.19925969999167137,0.7493674000143073
RSVPLG03,km,20251120-120833,1.0.2,20251113-095759,750,Introduction,T1,1,Automatic,main,7,20251120-120932,global,local,750,H,S,E,A,H-E.png,A-S.png,hH,sS,mask-1.png,mask-3.png,none,-6,0,none,-5,0,0.09993719999329187,0.10030280001228675,0.20028619997901842,0.19959830000880174,0.7480557999806479
RSVPLG03,km,20251120-120946,1.0.2,20251113-095759,750,Practice,T1,1,Automatic,main,1,20251120-121009,global,global,750,H,S,E,E,H-E.png,S-E.png,hH,sS,mask-3.png,mask-4.png,h,1,1.2392622999905143,none,-5,0,0.03997549999621697,0.05047730001388118,0.09204039999167435,0.10095190000720322,0.7419596999825444
RSVPLG03,km,20251120-120946,1.0.2,20251113-095759,750,Practice,T1,1,Automatic,main,2,20251120-121015,global,global,750,H,H,A,E,H-A.png,H-E.png,hH,hH,mask-1.png,mask-1.png,h,1,0.5914339000009932,none,-5,0,0.04984459999832325,0.049714499997207895,0.0997542999975849,0.10156419998384081,0.7497414000099525
RSVPLG03,km,20251120-120946,1.0.2,20251113-095759,750,Practice,T1,1,Automatic,main,3,20251120-121019,local,local,300,S,H,E,A,E-S.png,A-H.png,sS,hH,mask-3.png,mask-3.png,s,1,1.558270600013202,none,-5,0,0.048262600001180544,0.04830180000863038,0.09856039998703636,0.09960919999866746,0.3001644999894779
RSVPLG03,km,20251120-120946,1.0.2,20251113-095759,750,Practice,T1,1,Automatic,main,4,20251120-121025,global,local,750,S,H,A,E,S-A.png,E-H.png,sS,hH,mask-3.png,mask-1.png,s,1,1.1313949000032153,none,-5,0,0.05075490000308491,0.049740999995265156,0.10160369999357499,0.1007454999780748,0.7514818000199739
RSVPLG03,km,20251120-120946,1.0.2,20251113-095759,750,Practice,T1,1,Automatic,main,5,20251120-121030,local,local,300,S,S,E,A,E-S.png,A-S.png,sS,sS,mask-1.png,mask-3.png,s,1,1.0051187999779359,none,-5,0,0.0497392000106629,0.04971669998485595,0.0995087000192143,0.09947429999010637,0.30003330000909045
RSVPLG03,km,20251120-120946,1.0.2,20251113-095759,750,Practice,T1,1,Automatic,main,6,20251120-121034,local,global,300,H,S,E,A,E-H.png,S-A.png,hH,sS,mask-2.png,mask-3.png,h,1,0.901017199998023,none,-5,0,0.05067090000375174,0.047981000010622665,0.09929209999972954,0.09868130000540987,0.3022188000031747
RSVPLG03,km,20251120-120946,1.0.2,20251113-095759,750,Practice,T1,1,Automatic,main,7,20251120-121039,local,local,750,H,H,E,E,E-H.png,E-H.png,hH,hH,mask-1.png,mask-2.png,h,1,0.9980209000059403,none,-5,0,0.0497161999810487,0.04939989998820238,0.10052889998769388,0.09996459999820217,0.752213900006609
RSVPLG03,km,20251120-120946,1.0.2,20251113-095759,750,Practice,T1,1,Automatic,main,8,20251120-121044,local,global,300,S,S,A,E,A-S.png,S-E.png,sS,sS,mask-1.png,mask-1.png,s,1,1.1202666999888606,none,-5,0,0.04972959999577142,0.04977179999696091,0.09854730000370182,0.098562099999981,0.3004500000097323
RSVPLG03,km,20251120-120946,1.0.2,20251113-095759,750,Practice,T1,1,Automatic,main,9,20251120-121049,local,global,750,H,H,A,A,A-H.png,H-A.png,hH,hH,mask-2.png,mask-2.png,h,1,0.797904999984894,none,-5,0,0.04826140002114698,0.04987980000441894,0.09941280001658015,0.10030269998242147,0.7503842000151053
RSVPLG03,km,20251120-120946,1.0.2,20251113-095759,750,Practice,T1,1,Automatic,main,10,20251120-121053,global,local,750,H,H,E,E,H-E.png,E-H.png,hH,hH,mask-3.png,mask-2.png,h,1,0.7344211000017822,none,-5,0,0.04973329999484122,0.04951919999439269,0.09949510000296868,0.10341380001045763,0.7496878000092693
RSVPLG03,km,20251120-120946,1.0.2,20251113-095759,750,Practice,T1,1,Automatic,main,11,20251120-121058,local,local,750,H,H,A,A,A-H.png,A-H.png,hH,hH,mask-3.png,mask-4.png,h,1,0.7812206000089645,none,-5,0,0.04956519999541342,0.048553600005107,0.10020749998511747,0.09829339999123476,0.7520632999949157
RSVPLG03,km,20251120-120946,1.0.2,20251113-095759,750,Practice,T1,1,Automatic,main,12,20251120-121103,global,global,300,S,S,E,A,S-E.png,S-A.png,sS,sS,mask-2.png,mask-4.png,s,1,1.7209342000132892,none,-5,0,0.050556000001961365,0.05051659999298863,0.10042370000155643,0.10020990000339225,0.3011912000074517
RSVPLG03,km,20251120-120946,1.0.2,20251113-095759,750,Practice,T1,1,Automatic,main,13,20251120-121108,global,local,300,S,S,A,A,S-A.png,A-S.png,sS,sS,mask-1.png,mask-3.png,s,1,0.9359718000050634,none,-5,0,0.05021270000725053,0.050228799984324723,0.10152570001082495,0.09856569999828935,0.3016314000124112
RSVPLG03,km,20251120-120946,1.0.2,20251113-095759,750,Practice,T1,1,Automatic,main,14,20251120-121113,local,global,750,H,H,E,A,E-H.png,H-A.png,hH,hH,mask-4.png,mask-3.png,h,1,0.5174005999870133,none,-5,0,0.05024829998728819,0.049068399996031076,0.10020720001193695,0.09904080000706017,0.7509849999914877
RSVPLG03,km,20251120-120946,1.0.2,20251113-095759,750,Practice,T1,1,Automatic,main,15,20251120-121118,global,global,300,S,S,A,A,S-A.png,S-A.png,sS,sS,mask-1.png,mask-3.png,s,1,1.008786099991994,none,-5,0,0.0512870000093244,0.05059949998394586,0.10069750002003275,0.10078079998493195,0.301151400024537
RSVPLG03,km,20251120-120946,1.0.2,20251113-095759,750,Practice,T1,1,Automatic,main,16,20251120-121122,global,local,300,S,H,E,E,S-E.png,E-H.png,sS,hH,mask-1.png,mask-4.png,h,0,0.5147296999930404,none,-5,0,0.04991860000882298,0.05046639998909086,0.09993080000276677,0.10095719998935238,0.29912250000052154
RSVPLG03,km,20251120-121241,1.0.2,20251113-095759,750,Introduction,Both,1,Automatic,main,1,20251120-121304,global,global,750,S,H,A,E,S-A.png,H-E.png,sS,hH,mask-2.png,mask-1.png,h,0,1.7220120999845676,s,0,4.130955200002063,0.08826319998479448,0.10030349998851307,0.1884915999835357,0.20045060000848025,0.739063899993198
RSVPLG03,km,20251120-121241,1.0.2,20251113-095759,750,Introduction,Both,1,Automatic,main,2,20251120-121314,local,global,750,S,S,A,E,A-S.png,S-E.png,sS,sS,mask-1.png,mask-3.png,s,1,3.0392370000190567,s,1,1.0880547000269871,0.0985709999804385,0.10022049999679439,0.19973539997590706,0.2005563999991864,0.7499313000007533
RSVPLG03,km,20251120-121241,1.0.2,20251113-095759,750,Introduction,Both,1,Automatic,main,3,20251120-121322,global,local,750,S,H,A,A,S-A.png,A-H.png,sS,hH,mask-1.png,mask-2.png,s,1,6.810912599990843,h,1,0.15748370002256706,0.09929980000015348,0.09883989999070764,0.19964810000965372,0.1986027999955695,0.7520915000059176
RSVPLG03,km,20251120-121241,1.0.2,20251113-095759,750,Introduction,Both,1,Automatic,main,4,20251120-121334,global,local,750,S,H,E,E,S-E.png,E-H.png,sS,hH,mask-4.png,mask-1.png,s,1,1.4623767999873962,h,1,0.33635580001282506,0.10003770000184886,0.09962980001000687,0.20014420000370592,0.1997851000051014,0.7513702000142075
RSVPLG03,km,20251120-121241,1.0.2,20251113-095759,750,Introduction,Both,1,Automatic,main,5,20251120-121340,global,local,750,H,H,A,E,H-A.png,E-H.png,hH,hH,mask-4.png,mask-3.png,h,1,1.0641022000054363,h,1,0.23930200000177138,0.0987207000143826,0.10032530000898987,0.20011030000750907,0.200197099999059,0.7504652999923564
RSVPLG03,km,20251120-121241,1.0.2,20251113-095759,750,Introduction,Both,1,Automatic,main,6,20251120-121345,local,local,750,S,S,E,E,E-S.png,E-S.png,sS,sS,mask-3.png,mask-2.png,s,1,3.0189758999913465,s,1,0.24050090002128854,0.10045940001145937,0.10018459998536855,0.20096710001234896,0.20148260000860319,0.7502728000108618
RSVPLG03,km,20251120-121241,1.0.2,20251113-095759,750,Introduction,Both,1,Automatic,main,7,20251120-121353,local,global,750,S,S,E,E,E-S.png,S-E.png,sS,sS,mask-4.png,mask-3.png,s,1,1.2750468000012916,s,1,0.8804046000004746,0.09965830002329312,0.10061329999007285,0.1982700000226032,0.20080120000056922,0.7499435000063386
RSVPLG03,km,20251120-121241,1.0.2,20251113-095759,750,Introduction,Both,1,Automatic,main,8,20251120-121359,global,local,750,S,H,A,A,S-A.png,A-H.png,sS,hH,mask-3.png,mask-4.png,s,1,2.929842200013809,h,1,0.12688990001333877,0.09840459999395534,0.09883880001143552,0.19977819998166524,0.1983546999981627,0.7511707999801729
RSVPLG03,km,20251120-121241,1.0.2,20251113-095759,750,Introduction,Both,1,Automatic,main,9,20251120-121407,global,global,750,H,H,E,A,H-E.png,H-A.png,hH,hH,mask-2.png,mask-3.png,h,1,0.9844408999779262,h,1,0.126410400000168,0.10057699997560121,0.09872639999957755,0.20030999998562038,0.2003307999984827,0.751588899991475
RSVPLG03,km,20251120-121241,1.0.2,20251113-095759,750,Introduction,Both,1,Automatic,main,10,20251120-121412,local,local,750,S,H,A,E,A-S.png,E-H.png,sS,hH,mask-1.png,mask-2.png,s,1,0.6765482000191696,h,1,0.062448700016830117,0.10069030002341606,0.10035180000704713,0.20043180001084693,0.20070840002154,0.7488765000016429
RSVPLG03,km,20251120-121241,1.0.2,20251113-095759,750,Introduction,Both,1,Automatic,main,11,20251120-121417,global,global,750,H,H,A,A,H-A.png,H-A.png,hH,hH,mask-1.png,mask-2.png,none,-6,0,none,-6,0,0.09952230000635609,0.09924219999811612,0.20039670000551268,0.19862400001147762,0.751391900004819
RSVPLG03,km,20251120-121435,1.0.2,20251113-095759,750,Practice,Both,1,Automatic,main,1,20251120-121505,global,local,750,S,H,E,A,S-E.png,A-H.png,sS,hH,mask-1.png,mask-4.png,s,1,1.0913144999940414,h,1,0.04497850002371706,0.04090410002390854,0.05110949999652803,0.09047540000756271,0.10125269999844022,0.7394657000259031
RSVPLG03,km,20251120-121435,1.0.2,20251113-095759,750,Practice,Both,1,Automatic,main,2,20251120-121510,global,local,300,S,S,A,E,S-A.png,E-S.png,sS,sS,mask-3.png,mask-4.png,s,1,3.813385199988261,h,0,0.5087212999933399,0.05055509999510832,0.04879800000344403,0.10047939998912625,0.09948980002081953,0.2999985999776982
RSVPLG03,km,20251120-121435,1.0.2,20251113-095759,750,Practice,Both,1,Automatic,main,3,20251120-121518,local,local,750,H,S,A,A,A-H.png,A-S.png,hH,sS,mask-2.png,mask-3.png,h,1,1.5011629000073299,s,1,0.06080059998203069,0.0497132999880705,0.048280399991199374,0.09935470001073554,0.09764049999648705,0.7495457000040915
RSVPLG03,km,20251120-121435,1.0.2,20251113-095759,750,Practice,Both,1,Automatic,main,4,20251120-121524,global,local,750,S,S,A,E,S-A.png,E-S.png,sS,sS,mask-1.png,mask-2.png,s,1,2.48170500001288,s,1,0.06710289997863583,0.0492792000004556,0.04972139999154024,0.09801009998773225,0.1015227000170853,0.7483284999907482
RSVPLG03,km,20251120-121435,1.0.2,20251113-095759,750,Practice,Both,1,Automatic,main,5,20251120-121531,global,global,750,S,S,A,A,S-A.png,S-A.png,sS,sS,mask-1.png,mask-3.png,s,1,0.6739419999939855,s,1,0.08094360001268797,0.05078170000342652,0.04835019999882206,0.10052579999319278,0.09972999998717569,0.749686399998609
RSVPLG03,km,20251120-121435,1.0.2,20251113-095759,750,Practice,Both,1,Automatic,main,6,20251120-121536,global,global,300,S,S,A,A,S-A.png,S-A.png,sS,sS,mask-1.png,mask-1.png,s,1,2.123968400002923,h,0,0.04653890000190586,0.0494438000023365,0.04977489999146201,0.09986509999725968,0.100278600002639,0.2993805999867618
RSVPLG03,km,20251120-121435,1.0.2,20251113-095759,750,Practice,Both,1,Automatic,main,7,20251120-121542,local,local,300,H,S,A,E,A-H.png,E-S.png,hH,sS,mask-2.png,mask-4.png,h,1,1.319065399991814,s,1,0.11000720001175068,0.04975659999763593,0.04956680000759661,0.09958569999434985,0.10007080002105795,0.2978990999981761
RSVPLG03,km,20251120-121435,1.0.2,20251113-095759,750,Practice,Both,1,Automatic,main,8,20251120-121547,local,local,750,S,S,E,E,E-S.png,E-S.png,sS,sS,mask-2.png,mask-2.png,s,1,0.3428919999860227,s,1,0.17311919998610392,0.049290800001472235,0.04939040000317618,0.09924420001334511,0.09997719997772947,0.7495359000167809
RSVPLG03,km,20251120-121435,1.0.2,20251113-095759,750,Practice,Both,1,Automatic,main,9,20251120-121551,global,global,750,S,S,E,A,S-E.png,S-A.png,sS,sS,mask-4.png,mask-1.png,s,1,0.8504786999837961,s,1,0.0946784999978263,0.04967029998078942,0.049616799980867654,0.09993299999041483,0.09987549998913892,0.7488717999949586
RSVPLG03,km,20251120-121435,1.0.2,20251113-095759,750,Practice,Both,1,Automatic,main,10,20251120-121556,local,global,750,H,H,A,A,A-H.png,H-A.png,hH,hH,mask-4.png,mask-2.png,h,1,1.495398800005205,h,1,0.1425388999923598,0.04971550000482239,0.04998199999681674,0.10049089998938143,0.10000939999008551,0.7486520000093151
RSVPLG03,km,20251120-121435,1.0.2,20251113-095759,750,Practice,Both,1,Automatic,main,11,20251120-121602,global,global,300,S,S,A,E,S-A.png,S-E.png,sS,sS,mask-1.png,mask-4.png,s,1,1.1574611999967601,h,0,0.014746000000741333,0.04982019998715259,0.05030149998492561,0.10017819999484345,0.10055360000114888,0.29917220000061207
RSVPLG03,km,20251120-121435,1.0.2,20251113-095759,750,Practice,Both,1,Automatic,main,12,20251120-121607,local,local,300,S,S,E,E,E-S.png,E-S.png,sS,sS,mask-1.png,mask-2.png,s,1,0.761633999994956,s,1,0.09376160000101663,0.05078309998498298,0.050050899997586384,0.1003150999895297,0.09901619999436662,0.3000523000082467
RSVPLG03,km,20251120-121435,1.0.2,20251113-095759,750,Practice,Both,1,Automatic,main,13,20251120-121611,local,global,300,H,S,E,E,E-H.png,S-E.png,hH,sS,mask-4.png,mask-3.png,h,1,2.3621183000213932,h,0,0.18945710000116378,0.0500676000083331,0.04777540001668967,0.10022839999874122,0.09990100000868551,0.3003586999839172
RSVPLG03,km,20251120-121435,1.0.2,20251113-095759,750,Practice,Both,1,Automatic,main,14,20251120-121618,local,global,300,S,H,A,E,A-S.png,H-E.png,sS,hH,mask-1.png,mask-4.png,s,1,1.9611989999830257,h,1,0.06422220001695678,0.05063790001440793,0.049542399996425956,0.09962379999342375,0.09895520002464764,0.30087569999159314
RSVPLG03,km,20251120-121435,1.0.2,20251113-095759,750,Practice,Both,1,Automatic,main,15,20251120-121623,local,global,750,H,H,E,E,E-H.png,H-E.png,hH,hH,mask-1.png,mask-4.png,h,1,3.2290309999953024,s,0,0.09362120000878349,0.050098299980163574,0.05167580000124872,0.10024139998131432,0.10137000001850538,0.7492903999809641
RSVPLG03,km,20251120-121435,1.0.2,20251113-095759,750,Practice,Both,1,Automatic,main,16,20251120-121631,global,local,300,S,S,E,E,S-E.png,E-S.png,sS,sS,mask-4.png,mask-2.png,s,1,3.3341791999991983,s,1,0.11170189999393187,0.049643200007267296,0.049612200004048645,0.10110460000578314,0.10060360000352375,0.2995622000016738
RSVPLG03,km,20251120-121750,1.0.2,20251113-095759,750,Experiment,Both,1,Automatic,warmup,1,20251120-121845,local,local,300,S,S,E,A,E-S.png,A-S.png,sS,sS,mask-1.png,mask-3.png,s,1,1.058373300009407,s,1,0.09582419999060221,0.04172449998441152,0.05071720000705682,0.09283259999938309,0.10055200001806952,0.29258799998206086
RSVPLG03,km,20251120-121750,1.0.2,20251113-095759,750,Experiment,Both,1,Automatic,warmup,2,20251120-121850,global,global,750,S,S,A,E,S-A.png,S-E.png,sS,sS,mask-1.png,mask-3.png,s,1,1.0310903000063263,s,1,0.07778619998134673,0.04972370000905357,0.05073210000409745,0.10107999999308959,0.10031629999866709,0.7501865999947768
RSVPLG03,km,20251120-121750,1.0.2,20251113-095759,750,Experiment,Both,1,Automatic,warmup,3,20251120-121855,local,global,750,H,H,A,E,A-H.png,H-E.png,hH,hH,mask-2.png,mask-3.png,h,1,2.5284181000024546,s,0,0.07757750002201647,0.04937769999378361,0.049787199997808784,0.10043059999588877,0.10063569998601452,0.7492121999966912
RSVPLG03,km,20251120-121750,1.0.2,20251113-095759,750,Experiment,Both,1,Automatic,warmup,4,20251120-121902,global,local,300,H,S,E,E,H-E.png,E-S.png,hH,sS,mask-1.png,mask-3.png,h,1,0.9595429999753833,s,1,0.07710530000622384,0.04988720000255853,0.049864300002809614,0.09987010000622831,0.09985709999455139,0.29971870000008494
RSVPLG03,km,20251120-121750,1.0.2,20251113-095759,750,Experiment,Both,1,Automatic,main,5,20251120-121907,global,local,300,H,H,A,A,H-A.png,A-H.png,hH,hH,mask-4.png,mask-4.png,h,1,1.6892333999858238,s,0,0.013686700025573373,0.05009159998735413,0.04856300001847558,0.10154409997630864,0.09823730000061914,0.3019027999835089
RSVPLG03,km,20251120-121750,1.0.2,20251113-095759,750,Experiment,Both,1,Automatic,main,6,20251120-121912,global,local,750,H,S,E,A,H-E.png,A-S.png,hH,sS,mask-1.png,mask-3.png,h,1,1.007637499977136,s,1,0.0625341999984812,0.05038930001319386,0.05032849998679012,0.09944760001963004,0.1009051000000909,0.7484702000219841
RSVPLG03,km,20251120-121750,1.0.2,20251113-095759,750,Experiment,Both,1,Automatic,main,7,20251120-121918,local,global,750,S,S,E,A,E-S.png,S-A.png,sS,sS,mask-2.png,mask-3.png,s,1,1.6144678999844473,s,1,0.07929690001765266,0.049884999985806644,0.05056730000069365,0.09886649998952635,0.10020449999137782,0.7483566000009887
RSVPLG03,km,20251120-121750,1.0.2,20251113-095759,750,Experiment,Both,1,Automatic,main,8,20251120-121923,global,local,750,S,S,E,A,S-E.png,A-S.png,sS,sS,mask-2.png,mask-1.png,s,1,1.6758807000005618,s,1,0.20860679997713305,0.04986460000509396,0.05051060000550933,0.09988970000995323,0.10152389999711886,0.7479699999967124
RSVPLG03,km,20251120-121750,1.0.2,20251113-095759,750,Experiment,Both,1,Automatic,main,9,20251120-121929,local,global,300,H,H,E,E,E-H.png,H-E.png,hH,hH,mask-2.png,mask-4.png,h,1,2.497449200018309,h,1,0.30302379999193363,0.049715800007106736,0.05075059999944642,0.09989889999269508,0.10059670000919141,0.2998414000030607
RSVPLG03,km,20251120-121750,1.0.2,20251113-095759,750,Experiment,Both,1,Automatic,main,10,20251120-121936,global,local,750,S,H,A,E,S-A.png,E-H.png,sS,hH,mask-2.png,mask-3.png,s,1,1.524755799997365,h,1,0.07772380000096746,0.04935779998777434,0.04902669999864884,0.09969579998869449,0.09931140000117011,0.7505469000025187
RSVPLG03,km,20251120-121750,1.0.2,20251113-095759,750,Experiment,Both,1,Automatic,main,11,20251120-121942,local,local,750,H,H,E,E,E-H.png,E-H.png,hH,hH,mask-1.png,mask-3.png,h,1,1.3682044000015594,s,0,0.07867310001165606,0.04981729999417439,0.0498037000070326,0.09973609997541644,0.0993847000063397,0.7494774999795482
RSVPLG03,km,20251120-121750,1.0.2,20251113-095759,750,Experiment,Both,1,Automatic,main,12,20251120-121947,local,global,300,H,S,A,A,A-H.png,S-A.png,hH,sS,mask-3.png,mask-4.png,h,1,0.9483359000005294,s,1,0.01598940000985749,0.048530600004596636,0.050566499994602054,0.09988390002399683,0.10045170001103543,0.2991848000092432
RSVPLG03,km,20251120-121750,1.0.2,20251113-095759,750,Experiment,Both,1,Automatic,main,13,20251120-121952,local,local,300,S,H,E,E,E-S.png,E-H.png,sS,hH,mask-3.png,mask-2.png,s,1,1.3213936999964062,h,1,0.07904579999740236,0.049966399994445965,0.04966160000185482,0.10001110000303015,0.10065649999887682,0.3011098999995738
RSVPLG03,km,20251120-121750,1.0.2,20251113-095759,750,Experiment,Both,1,Automatic,main,14,20251120-121957,global,local,750,H,H,A,A,H-A.png,A-H.png,hH,hH,mask-3.png,mask-2.png,h,1,0.6999483999970835,h,1,0.08036429999629036,0.04934500000672415,0.051738399983150885,0.09923280001385137,0.10043049999512732,0.7489050000149291
RSVPLG03,km,20251120-121750,1.0.2,20251113-095759,750,Experiment,Both,1,Automatic,main,15,20251120-122002,local,global,750,H,S,E,A,E-H.png,S-A.png,hH,sS,mask-2.png,mask-4.png,h,1,0.5771825999836437,s,1,0.046788099978584796,0.049934000009670854,0.04874940001172945,0.09995090001029894,0.09864440001547337,0.7495416000019759
RSVPLG03,km,20251120-121750,1.0.2,20251113-095759,750,Experiment,Both,1,Automatic,main,16,20251120-122007,global,global,300,H,H,E,A,H-E.png,H-A.png,hH,hH,mask-3.png,mask-4.png,h,1,0.6587149000260979,s,0,0.06350129999918863,0.05093160000978969,0.05041740002343431,0.10096270000212826,0.10032110000611283,0.2996262999949977
RSVPLG03,km,20251120-121750,1.0.2,20251113-095759,750,Experiment,Both,1,Automatic,main,17,20251120-122011,global,global,300,S,S,A,E,S-A.png,S-E.png,sS,sS,mask-4.png,mask-3.png,s,1,1.353106199996546,s,1,0.09503650001715869,0.04917849999037571,0.050144099979661405,0.10098769998876378,0.10087510000448674,0.2997233000060078
RSVPLG03,km,20251120-121750,1.0.2,20251113-095759,750,Experiment,Both,1,Automatic,main,18,20251120-122016,local,global,750,S,S,A,E,A-S.png,S-E.png,sS,sS,mask-2.png,mask-2.png,s,1,1.1371046999993268,s,1,0.09446950000710785,0.05087420000927523,0.04924370002117939,0.10187589999986812,0.09960460002184846,0.7501952000020538
RSVPLG03,km,20251120-121750,1.0.2,20251113-095759,750,Experiment,Both,1,Automatic,main,19,20251120-122021,global,global,300,S,H,A,A,S-A.png,H-A.png,sS,hH,mask-3.png,mask-3.png,h,0,2.10030769999139,s,0,0.03207680000923574,0.04875479999464005,0.048830200015800074,0.10066329999244772,0.09863699998822995,0.3003261999983806
RSVPLG03,km,20251120-121750,1.0.2,20251113-095759,750,Experiment,Both,1,Automatic,main,20,20251120-122027,global,global,750,S,H,A,E,S-A.png,H-E.png,sS,hH,mask-1.png,mask-3.png,s,1,1.1402176000119653,h,1,0.03183369999169372,0.04982310000923462,0.05090169998584315,0.10081340000033379,0.09879920000093989,0.7499735000019427
RSVPLG03,km,20251120-121750,1.0.2,20251113-095759,750,Experiment,Both,1,Automatic,main,21,20251120-122032,global,global,750,H,H,E,E,H-E.png,H-E.png,hH,hH,mask-3.png,mask-1.png,h,1,3.320956399984425,s,0,0.029364199988776818,0.04974449999281205,0.048312700004316866,0.10165399999823421,0.09821450000163168,0.7514670999953523
RSVPLG03,km,20251120-121750,1.0.2,20251113-095759,750,Experiment,Both,1,Automatic,main,22,20251120-122040,global,local,300,H,H,A,E,H-A.png,E-H.png,hH,hH,mask-1.png,mask-3.png,h,1,0.6356583000160754,h,1,0.08015200000954792,0.049735400010831654,0.05071209999732673,0.0996578999911435,0.10055639999336563,0.29923050000797957
RSVPLG03,km,20251120-121750,1.0.2,20251113-095759,750,Experiment,Both,1,Automatic,main,23,20251120-122044,local,global,750,H,S,A,E,A-H.png,S-E.png,hH,sS,mask-4.png,mask-1.png,h,1,1.0760069000243675,s,1,0.04772209998918697,0.05057759999181144,0.04872660001274198,0.1003121999965515,0.10063920001266524,0.7503932999970857
RSVPLG03,km,20251120-121750,1.0.2,20251113-095759,750,Experiment,Both,1,Automatic,main,24,20251120-122050,local,local,300,H,H,A,E,A-H.png,E-H.png,hH,hH,mask-4.png,mask-4.png,h,1,0.5443848000140861,s,0,0.04556989998673089,0.05033140000887215,0.04994690002058633,0.10108920000493526,0.09876490000169724,0.301150699990103
RSVPLG03,km,20251120-121750,1.0.2,20251113-095759,750,Experiment,Both,1,Automatic,main,25,20251120-122054,global,local,300,H,S,E,A,H-E.png,A-S.png,hH,sS,mask-2.png,mask-1.png,h,1,1.283949999982724,s,1,0.12702149999677204,0.050069899996742606,0.04819470000802539,0.09995929998694919,0.09847170001012273,0.3000187999859918
RSVPLG03,km,20251120-121750,1.0.2,20251113-095759,750,Experiment,Both,1,Automatic,main,26,20251120-122135,local,local,750,S,H,E,A,E-S.png,A-H.png,sS,hH,mask-1.png,mask-4.png,s,1,0.8146218000038061,h,1,0.04805100001976825,0.05058949999511242,0.04978489998029545,0.10124370001722127,0.09985169998253696,0.7500400000135414
RSVPLG03,km,20251120-121750,1.0.2,20251113-095759,750,Experiment,Both,1,Automatic,main,27,20251120-122141,global,global,300,H,S,E,A,H-E.png,S-A.png,hH,sS,mask-4.png,mask-3.png,h,1,1.010511200001929,s,1,0.06283799998345785,0.049329400004353374,0.049742300005164,0.10032609998597763,0.09970809999504127,0.2999892999941949
RSVPLG03,km,20251120-121750,1.0.2,20251113-095759,750,Experiment,Both,1,Automatic,main,28,20251120-122145,global,global,750,H,H,E,A,H-E.png,H-A.png,hH,hH,mask-1.png,mask-2.png,h,1,0.7466965999919921,h,1,0.07827070000348613,0.05189429997699335,0.04964810001547448,0.1010342999943532,0.09835660000680946,0.7508501999836881
RSVPLG03,km,20251120-121750,1.0.2,20251113-095759,750,Experiment,Both,1,Automatic,main,29,20251120-122150,local,global,300,H,S,E,E,E-H.png,S-E.png,hH,sS,mask-4.png,mask-4.png,h,1,0.8225862999970559,s,1,0.06078569998499006,0.050756100012222305,0.04971400002250448,0.10065279999980703,0.10167080000974238,0.3002238000044599
RSVPLG03,km,20251120-121750,1.0.2,20251113-095759,750,Experiment,Both,1,Automatic,main,30,20251120-122155,local,global,300,S,H,A,E,A-S.png,H-E.png,sS,hH,mask-4.png,mask-4.png,s,1,2.347316100000171,h,1,0.032781199988676235,0.05041409999830648,0.04936850001104176,0.10099619999527931,0.0999090000113938,0.30093839997425675
RSVPLG03,km,20251120-121750,1.0.2,20251113-095759,750,Experiment,Both,1,Automatic,main,31,20251120-122201,local,global,300,S,S,A,A,A-S.png,S-A.png,sS,sS,mask-4.png,mask-3.png,s,1,1.8328193000052124,s,1,0.1101699999999255,0.050581399991642684,0.04975800000829622,0.09977279999293387,0.0995511999935843,0.30126300000119954
RSVPLG03,km,20251120-121750,1.0.2,20251113-095759,750,Experiment,Both,1,Automatic,main,32,20251120-122206,global,global,750,H,H,E,E,H-E.png,H-E.png,hH,hH,mask-3.png,mask-1.png,h,1,1.395091999991564,s,0,0.029639899992616847,0.05061589999240823,0.04965310002444312,0.09971489998861216,0.09874660000787117,0.7508852999890223
RSVPLG03,km,20251120-121750,1.0.2,20251113-095759,750,Experiment,Both,1,Automatic,main,33,20251120-122212,local,local,300,S,S,E,A,E-S.png,A-S.png,sS,sS,mask-1.png,mask-1.png,s,1,0.9705861999827903,s,1,0.0620712999952957,0.04863710000063293,0.04952090000733733,0.10051849999581464,0.10023440001532435,0.29952549998415634
RSVPLG03,km,20251120-121750,1.0.2,20251113-095759,750,Experiment,Both,1,Automatic,main,34,20251120-122217,local,global,300,H,H,E,E,E-H.png,H-E.png,hH,hH,mask-2.png,mask-4.png,h,1,1.554373899998609,s,0,0.029550100007327273,0.04777319999993779,0.051326599990716204,0.09884940000483766,0.10014769999543205,0.29760829999577254
RSVPLG03,km,20251120-121750,1.0.2,20251113-095759,750,Experiment,Both,1,Automatic,main,35,20251120-122222,local,local,750,S,H,E,A,E-S.png,A-H.png,sS,hH,mask-4.png,mask-3.png,s,1,0.640016099991044,h,1,0.03158959999564104,0.0497480999911204,0.04872429999522865,0.09988139997585677,0.09960789998876862,0.7503327000013087
RSVPLG03,km,20251120-121750,1.0.2,20251113-095759,750,Experiment,Both,1,Automatic,main,36,20251120-122227,local,local,300,S,S,A,E,A-S.png,E-S.png,sS,sS,mask-3.png,mask-3.png,s,1,1.830778300005477,s,1,0.07852350000757724,0.049220899993088096,0.049972300010267645,0.09918119999929331,0.10061829999904148,0.30005639998125844
RSVPLG03,km,20251120-121750,1.0.2,20251113-095759,750,Experiment,Both,1,Automatic,main,37,20251120-122232,global,local,750,S,S,E,E,S-E.png,E-S.png,sS,sS,mask-1.png,mask-4.png,s,1,0.41517490000114776,s,1,0.06353569999919273,0.04858579998835921,0.049712999985786155,0.09782149997772649,0.09865719999652356,0.7498111999884713
RSVPLG03,km,20251120-121750,1.0.2,20251113-095759,750,Experiment,Both,1,Automatic,main,38,20251120-122237,local,local,750,S,H,E,E,E-S.png,E-H.png,sS,hH,mask-3.png,mask-3.png,s,1,2.3454940000083297,h,1,0.07705809999606572,0.05015369999455288,0.0472687000001315,0.09985090000554919,0.09813630001735874,0.7519957000040449
RSVPLG03,km,20251120-121750,1.0.2,20251113-095759,750,Experiment,Both,1,Automatic,main,39,20251120-122244,local,local,300,H,H,A,E,A-H.png,E-H.png,hH,hH,mask-3.png,mask-2.png,h,1,0.6509317999880295,s,0,0.0625405999890063,0.049715699977241457,0.05144840001594275,0.0996253999765031,0.10090090002631769,0.2984085999778472
RSVPLG03,km,20251120-121750,1.0.2,20251113-095759,750,Experiment,Both,1,Automatic,main,40,20251120-122248,local,global,750,S,H,E,A,E-S.png,H-A.png,sS,hH,mask-4.png,mask-1.png,s,1,1.1845043000066653,h,1,0.04783320002024993,0.04939619998913258,0.049016399978427216,0.10078360000625253,0.10013999999500811,0.7507110000005923
RSVPLG03,km,20251120-121750,1.0.2,20251113-095759,750,Experiment,Both,1,Automatic,main,41,20251120-122253,global,local,300,H,S,E,E,H-E.png,E-S.png,hH,sS,mask-4.png,mask-4.png,h,1,0.8581930999935139,s,1,0.03153130001737736,0.050713099975837395,0.04972159999306314,0.09991679998347536,0.10052419998100959,0.2995697000005748
RSVPLG03,km,20251120-121750,1.0.2,20251113-095759,750,Experiment,Both,1,Automatic,main,42,20251120-122258,local,local,300,S,S,E,A,E-S.png,A-S.png,sS,sS,mask-3.png,mask-1.png,s,1,1.259883999999147,h,0,0.0627667999942787,0.04964730000938289,0.050597399997059256,0.10042300002533011,0.09949779999442399,0.30101520000607707
RSVPLG03,km,20251120-121750,1.0.2,20251113-095759,750,Experiment,Both,1,Automatic,main,43,20251120-122303,global,local,750,H,S,A,A,H-A.png,A-S.png,hH,sS,mask-3.png,mask-2.png,h,1,0.6554774999967776,s,1,0.030819999985396862,0.050316099979681894,0.04902929998934269,0.10078439998324029,0.10038630000781268,0.7493908999895211
RSVPLG03,km,20251120-121750,1.0.2,20251113-095759,750,Experiment,Both,1,Automatic,main,44,20251120-122308,local,local,750,S,H,A,A,A-S.png,A-H.png,sS,hH,mask-3.png,mask-2.png,s,1,2.0097331999859307,h,1,0.05047499999636784,0.04926649999106303,0.049299599981168285,0.10021699999924749,0.09915470000123605,0.7511656999995466
RSVPLG03,km,20251120-121750,1.0.2,20251113-095759,750,Experiment,Both,1,Automatic,main,45,20251120-122314,local,local,300,H,H,E,A,E-H.png,A-H.png,hH,hH,mask-2.png,mask-2.png,h,1,0.8192777000076603,h,1,0.046324499999172986,0.04993770000874065,0.0493136000004597,0.09992070001317188,0.09832729998743162,0.30041460000211373
RSVPLG03,km,20251120-121750,1.0.2,20251113-095759,750,Experiment,Both,1,Automatic,main,46,20251120-122318,local,local,750,S,S,A,E,A-S.png,E-S.png,sS,sS,mask-1.png,mask-3.png,s,1,0.7471970999904443,s,1,0.09553570000571199,0.050003399985143915,0.049839099985547364,0.0997203000006266,0.1015631000045687,0.7493156999989878
RSVPLG03,km,20251120-121750,1.0.2,20251113-095759,750,Experiment,Both,1,Automatic,main,47,20251120-122323,global,global,750,H,S,A,A,H-A.png,S-A.png,hH,sS,mask-2.png,mask-4.png,h,1,0.9102156000153627,s,1,0.04514940001536161,0.04878959999768995,0.04978470000787638,0.09779709999565966,0.0996756000095047,0.7489870999997947
RSVPLG03,km,20251120-121750,1.0.2,20251113-095759,750,Experiment,Both,1,Automatic,main,48,20251120-122329,local,global,750,S,S,E,A,E-S.png,S-A.png,sS,sS,mask-4.png,mask-2.png,s,1,0.7723566000058781,s,1,0.06208679999690503,0.048920300003373995,0.0496761999966111,0.09973879999597557,0.10019450000254437,0.7498596000077669
RSVPLG03,km,20251120-121750,1.0.2,20251113-095759,750,Experiment,Both,1,Automatic,main,49,20251120-122334,global,local,750,S,H,A,A,S-A.png,A-H.png,sS,hH,mask-4.png,mask-1.png,s,1,0.6225105000194162,h,1,0.9748635999858379,0.050836099981097504,0.04975619999459013,0.09991009999066591,0.10071119997883216,0.7506655000033788
RSVPLG03,km,20251120-121750,1.0.2,20251113-095759,750,Experiment,Both,1,Automatic,main,50,20251120-122339,local,global,300,S,S,A,A,A-S.png,S-A.png,sS,sS,mask-2.png,mask-3.png,s,1,0.5148160999815445,s,1,0.718373799987603,0.047869700007140636,0.05115189999924041,0.0991791000124067,0.10184230000595562,0.2976812999986578
RSVPLG03,km,20251120-121750,1.0.2,20251113-095759,750,Experiment,Both,1,Automatic,main,51,20251120-122421,local,global,750,S,H,E,E,E-S.png,H-E.png,sS,hH,mask-2.png,mask-1.png,s,1,0.45266440001432784,h,1,0.09346169998752885,0.050523399986559525,0.047883299994282424,0.09941739999339916,0.09994250000454485,0.7504468999977689
RSVPLG03,km,20251120-121750,1.0.2,20251113-095759,750,Experiment,Both,1,Automatic,main,52,20251120-122425,global,local,300,H,H,A,E,H-A.png,E-H.png,hH,hH,mask-1.png,mask-1.png,h,1,0.9155058999895118,s,0,0.045847500005038455,0.04844079999020323,0.04989009999553673,0.09950399998342618,0.0998828999872785,0.2995851000014227
RSVPLG03,km,20251120-121750,1.0.2,20251113-095759,750,Experiment,Both,1,Automatic,main,53,20251120-122430,global,global,300,S,H,E,A,S-E.png,H-A.png,sS,hH,mask-2.png,mask-3.png,s,1,0.649010699999053,h,1,0.030278499994892627,0.04943060001824051,0.04895670001860708,0.09894520000671037,0.09932080001453869,0.30051370000001043
RSVPLG03,km,20251120-121750,1.0.2,20251113-095759,750,Experiment,Both,1,Automatic,main,54,20251120-122435,global,global,750,H,H,E,E,H-E.png,H-E.png,hH,hH,mask-2.png,mask-4.png,h,1,0.4325173999823164,h,1,0.0933806000102777,0.0479046999826096,0.04981739999493584,0.09938229998806491,0.09950030001346022,0.7505674999847542
RSVPLG03,km,20251120-121750,1.0.2,20251113-095759,750,Experiment,Both,1,Automatic,main,55,20251120-122439,global,local,300,S,H,E,A,S-E.png,A-H.png,sS,hH,mask-2.png,mask-4.png,s,1,0.98054509999929,h,1,0.015095400012796745,0.05005180000443943,0.050394699996104464,0.09993830000166781,0.10071299999253824,0.2980583000171464
RSVPLG03,km,20251120-121750,1.0.2,20251113-095759,750,Experiment,Both,1,Automatic,main,56,20251120-122444,global,local,300,S,H,A,E,S-A.png,E-H.png,sS,hH,mask-1.png,mask-4.png,s,1,1.432727099978365,h,1,0.06228779998491518,0.04962540001724847,0.05142020000494085,0.10006650001741946,0.09979939999175258,0.2997824000194669
RSVPLG03,km,20251120-121750,1.0.2,20251113-095759,750,Experiment,Both,1,Automatic,main,57,20251120-122449,global,global,300,H,H,A,A,H-A.png,H-A.png,hH,hH,mask-1.png,mask-3.png,h,1,0.7409361000172794,h,1,0.06325609999476,0.049825699999928474,0.05070789999444969,0.09996560000581667,0.10035480000078678,0.2993803000135813
RSVPLG03,km,20251120-121750,1.0.2,20251113-095759,750,Experiment,Both,1,Automatic,main,58,20251120-122454,local,local,300,H,H,E,E,E-H.png,E-H.png,hH,hH,mask-1.png,mask-3.png,h,1,0.4985134999733418,s,0,0.7963296000089031,0.04999040000257082,0.04906010002014227,0.10090380001929589,0.0989869000040926,0.30070429999614134
RSVPLG03,km,20251120-121750,1.0.2,20251113-095759,750,Experiment,Both,1,Automatic,main,59,20251120-122458,local,global,750,S,H,A,E,A-S.png,H-E.png,sS,hH,mask-3.png,mask-4.png,s,1,0.6751095000072382,h,1,0.09816729999147356,0.049739799986127764,0.05088819999946281,0.09960479999426752,0.09914659999776632,0.7490858999954071
RSVPLG03,km,20251120-121750,1.0.2,20251113-095759,750,Experiment,Both,1,Automatic,main,60,20251120-122503,local,global,750,S,S,A,A,A-S.png,S-A.png,sS,sS,mask-2.png,mask-1.png,s,1,0.6410550999862608,s,1,0.17453959997510538,0.04932150000240654,0.04823190000024624,0.10041120002279058,0.09941460000118241,0.7502047000161838
RSVPLG03,km,20251120-121750,1.0.2,20251113-095759,750,Experiment,Both,1,Automatic,main,61,20251120-122508,global,local,300,S,S,A,A,S-A.png,A-S.png,sS,sS,mask-2.png,mask-1.png,s,1,1.8539150999858975,h,0,0.12720059999264777,0.049752799997804686,0.04975989999365993,0.10064189997501671,0.09964030000264756,0.2997259999974631
RSVPLG03,km,20251120-121750,1.0.2,20251113-095759,750,Experiment,Both,1,Automatic,main,62,20251120-122514,local,global,750,H,S,A,E,A-H.png,S-E.png,hH,sS,mask-2.png,mask-3.png,h,1,1.3048986000067089,s,1,0.22460079999291338,0.04873169999336824,0.05173619999550283,0.09746769999037497,0.10161189999780618,0.7482932999846525
RSVPLG03,km,20251120-121750,1.0.2,20251113-095759,750,Experiment,Both,1,Automatic,main,63,20251120-122520,local,global,300,S,S,E,A,E-S.png,S-A.png,sS,sS,mask-1.png,mask-1.png,s,1,0.9095573000086006,s,1,0.1415094000112731,0.049769300007028505,0.049779799999669194,0.10069849999854341,0.10056069999700412,0.2993060000007972
RSVPLG03,km,20251120-121750,1.0.2,20251113-095759,750,Experiment,Both,1,Automatic,main,64,20251120-122525,global,global,300,S,H,A,A,S-A.png,H-A.png,sS,hH,mask-1.png,mask-3.png,h,0,1.774264999985462,s,0,0.047472599981119856,0.049708500009728596,0.04862300000968389,0.09950740000931546,0.0996758000110276,0.299493500002427
RSVPLG03,km,20251120-121750,1.0.2,20251113-095759,750,Experiment,Both,1,Automatic,main,65,20251120-122530,global,global,300,S,S,A,E,S-A.png,S-E.png,sS,sS,mask-3.png,mask-2.png,s,1,0.5485368000227027,h,0,0.17463300001691096,0.04961260000709444,0.05018379999091849,0.09926870002527721,0.10059959997306578,0.29916000002413057
RSVPLG03,km,20251120-121750,1.0.2,20251113-095759,750,Experiment,Both,1,Automatic,main,66,20251120-122535,local,global,300,H,S,E,A,E-H.png,S-A.png,hH,sS,mask-1.png,mask-4.png,h,1,0.7988411000114866,s,1,0.20765369999571703,0.049930899986065924,0.04948829999193549,0.10074970001005568,0.0998834999918472,0.2997965000104159
RSVPLG03,km,20251120-121750,1.0.2,20251113-095759,750,Experiment,Both,1,Automatic,main,67,20251120-122540,local,local,750,H,S,A,E,A-H.png,E-S.png,hH,sS,mask-2.png,mask-3.png,h,1,0.6010103000153322,s,1,0.2216327999776695,0.04921130000730045,0.050492500013206154,0.10127690000808798,0.10021230002166703,0.7509240999934264
RSVPLG03,km,20251120-121750,1.0.2,20251113-095759,750,Experiment,Both,1,Automatic,main,68,20251120-122545,global,global,300,S,H,E,A,S-E.png,H-A.png,sS,hH,mask-2.png,mask-3.png,s,1,3.289381200011121,h,1,0.27046170001267456,0.04883079999126494,0.04972809998434968,0.0987277000094764,0.10166650000610389,0.29839219999848865
RSVPLG03,km,20251120-121750,1.0.2,20251113-095759,750,Experiment,Both,1,Automatic,main,69,20251120-122552,local,global,750,S,S,E,A,E-S.png,S-A.png,sS,sS,mask-3.png,mask-3.png,s,1,0.4566237000108231,s,1,0.3333201000059489,0.050631699996301904,0.048806500009959564,0.09998120000818744,0.09865510000963695,0.7516564999823458
RSVPLG03,km,20251120-121750,1.0.2,20251113-095759,750,Experiment,Both,1,Automatic,main,70,20251120-122557,global,local,750,S,S,E,E,S-E.png,E-S.png,sS,sS,mask-3.png,mask-2.png,s,1,2.3637446999782696,s,1,0.31729780000750907,0.04874929998186417,0.04939100000774488,0.10045339999487624,0.10095660001388751,0.7489190999767743
RSVPLG03,km,20251120-121750,1.0.2,20251113-095759,750,Experiment,Both,1,Automatic,main,71,20251120-122604,global,global,750,H,H,A,E,H-A.png,H-E.png,hH,hH,mask-3.png,mask-2.png,h,1,0.9485866999893915,h,1,0.2224123999767471,0.04972740000812337,0.04971270001260564,0.10085509999771602,0.09926449999329634,0.7503130999975838
RSVPLG03,km,20251120-121750,1.0.2,20251113-095759,750,Experiment,Both,1,Automatic,main,72,20251120-122609,global,local,750,S,S,E,A,S-E.png,A-S.png,sS,sS,mask-4.png,mask-2.png,s,1,0.5931324000121094,s,1,0.20668970001861453,0.049847699992824346,0.04963490000227466,0.09972810000181198,0.1002087999950163,0.749180199985858
RSVPLG03,km,20251120-121750,1.0.2,20251113-095759,750,Experiment,Both,1,Automatic,main,73,20251120-122614,global,global,750,S,S,E,E,S-E.png,S-E.png,sS,sS,mask-3.png,mask-4.png,s,1,0.522067199985031,s,1,0.22423960000742227,0.04971779999323189,0.049738200003048405,0.09960690001025796,0.09996910000336356,0.7501129999873228
RSVPLG03,km,20251120-121750,1.0.2,20251113-095759,750,Experiment,Both,1,Automatic,main,74,20251120-122619,local,local,300,S,H,E,A,E-S.png,A-H.png,sS,hH,mask-3.png,mask-3.png,s,1,0.7001172000018414,h,1,0.28816910000750795,0.0504709999950137,0.04946770000969991,0.10026700000162236,0.09976919999462552,0.3005406000011135
RSVPLG03,km,20251120-121750,1.0.2,20251113-095759,750,Experiment,Both,1,Automatic,main,75,20251120-122624,global,global,750,S,S,E,A,S-E.png,S-A.png,sS,sS,mask-1.png,mask-2.png,s,1,0.472406700020656,s,1,0.22361250000540167,0.04882219998398796,0.04956980000133626,0.10139049999997951,0.09942310000769794,0.7504260999849066
RSVPLG03,km,20251120-121750,1.0.2,20251113-095759,750,Experiment,Both,1,Automatic,main,76,20251120-122718,local,local,300,H,S,E,A,E-H.png,A-S.png,hH,sS,mask-1.png,mask-1.png,h,1,0.3781147999980021,s,1,0.18887489999178797,0.04986679999274202,0.050024200027110055,0.10065409998060204,0.09966380000696518,0.30004019997431897
RSVPLG03,km,20251120-121750,1.0.2,20251113-095759,750,Experiment,Both,1,Automatic,main,77,20251120-122723,local,local,750,H,S,A,E,A-H.png,E-S.png,hH,sS,mask-3.png,mask-3.png,s,0,1.4985433999972884,h,0,0.09439729998121038,0.05035199999110773,0.04945290001342073,0.09983149997424334,0.10033469999325462,0.7504411999834701
RSVPLG03,km,20251120-121750,1.0.2,20251113-095759,750,Experiment,Both,1,Automatic,main,78,20251120-122728,global,local,300,S,H,E,A,S-E.png,A-H.png,sS,hH,mask-4.png,mask-2.png,s,1,0.40116529999068007,h,1,0.1873716999834869,0.04975820000981912,0.05140710002160631,0.09881749999476597,0.10117150002042763,0.29835699999239296
RSVPLG03,km,20251120-121750,1.0.2,20251113-095759,750,Experiment,Both,1,Automatic,main,79,20251120-122733,global,global,750,H,S,E,A,H-E.png,S-A.png,hH,sS,mask-3.png,mask-3.png,h,1,0.5258800000010524,s,1,0.20716759999049827,0.04942490000394173,0.050786999985575676,0.09997109998948872,0.09955419998732395,0.7493809000006877
RSVPLG03,km,20251120-121750,1.0.2,20251113-095759,750,Experiment,Both,1,Automatic,main,80,20251120-122738,local,local,750,H,H,A,E,A-H.png,E-H.png,hH,hH,mask-4.png,mask-4.png,h,1,0.746484600007534,s,0,0.15627529998891987,0.048834499990334734,0.0489168000058271,0.09968650000519119,0.09963640000205487,0.750004599976819
RSVPLG03,km,20251120-121750,1.0.2,20251113-095759,750,Experiment,Both,1,Automatic,main,81,20251120-122743,global,global,750,S,H,E,E,S-E.png,H-E.png,sS,hH,mask-3.png,mask-3.png,s,1,1.6513787000149023,s,0,0.17830339999636635,0.049720600014552474,0.049701100011589006,0.09922200001892634,0.09896949998801574,0.7513578000070993
RSVPLG03,km,20251120-121750,1.0.2,20251113-095759,750,Experiment,Both,1,Automatic,main,82,20251120-122749,global,local,750,S,S,E,A,S-E.png,A-S.png,sS,sS,mask-1.png,mask-1.png,s,1,0.3603457999997772,s,1,0.1615577000193298,0.04973130000871606,0.049806299997726455,0.09866090002469718,0.0997137000085786,0.7504525000113063
RSVPLG03,km,20251120-121750,1.0.2,20251113-095759,750,Experiment,Both,1,Automatic,main,83,20251120-122753,global,global,300,H,H,E,A,H-E.png,H-A.png,hH,hH,mask-1.png,mask-1.png,h,1,1.182472599990433,h,1,0.07936820000759326,0.05042779998620972,0.05141810001805425,0.09899979998590425,0.09999640000751242,0.29901419999077916
RSVPLG03,km,20251120-121750,1.0.2,20251113-095759,750,Experiment,Both,1,Automatic,main,84,20251120-122758,global,local,750,S,S,A,E,S-A.png,E-S.png,sS,sS,mask-1.png,mask-2.png,s,1,0.4480432000127621,s,1,0.12623359999270178,0.05073339998489246,0.05051339999772608,0.10045850000460632,0.10049039998557419,0.7515989000094123
RSVPLG03,km,20251120-121750,1.0.2,20251113-095759,750,Experiment,Both,1,Automatic,main,85,20251120-122803,global,local,750,H,S,A,A,H-A.png,A-S.png,hH,sS,mask-1.png,mask-1.png,h,1,0.33600359997944906,s,1,0.1945549999945797,0.049872799980221316,0.04958229998010211,0.0998583999753464,0.09958979999646544,0.7504007999959867
RSVPLG03,km,20251120-121750,1.0.2,20251113-095759,750,Experiment,Both,1,Automatic,main,86,20251120-122808,local,local,300,H,H,A,A,A-H.png,A-H.png,hH,hH,mask-1.png,mask-4.png,h,1,0.39709330000914633,h,1,0.10798400000203401,0.04890620001242496,0.0486531000060495,0.10035140000400133,0.09967949998099357,0.30022960001952015
RSVPLG03,km,20251120-121750,1.0.2,20251113-095759,750,Experiment,Both,1,Automatic,main,87,20251120-122812,local,local,750,S,H,E,E,E-S.png,E-H.png,sS,hH,mask-3.png,mask-4.png,s,1,1.5207884999981616,h,1,0.14496589999180287,0.04755349998595193,0.048574999993434176,0.09900529999868013,0.09874190000118688,0.7494194000028074
RSVPLG03,km,20251120-121750,1.0.2,20251113-095759,750,Experiment,Both,1,Automatic,main,88,20251120-122818,local,local,750,S,S,E,A,E-S.png,A-S.png,sS,sS,mask-4.png,mask-2.png,s,1,0.5475453000108246,h,0,0.18890589999500662,0.04881030000979081,0.04919560000416823,0.0988299000018742,0.0991892000020016,0.7498852999997325
RSVPLG03,km,20251120-121750,1.0.2,20251113-095759,750,Experiment,Both,1,Automatic,main,89,20251120-122823,global,global,750,S,H,A,A,S-A.png,H-A.png,sS,hH,mask-1.png,mask-4.png,s,1,0.6566159999929368,h,1,0.19054110001889057,0.05051189998630434,0.048729400004958734,0.10110669999266975,0.0988264000043273,0.7510572999890428
RSVPLG03,km,20251120-121750,1.0.2,20251113-095759,750,Experiment,Both,1,Automatic,main,90,20251120-122828,local,global,750,H,H,E,E,E-H.png,H-E.png,hH,hH,mask-2.png,mask-1.png,h,1,1.1565955000114627,h,1,0.15948060000664555,0.049745700001949444,0.04874639998888597,0.09857500001089647,0.09861359998467378,0.7497905000054743
RSVPLG03,km,20251120-121750,1.0.2,20251113-095759,750,Experiment,Both,1,Automatic,main,91,20251120-122833,local,global,300,H,S,E,E,E-H.png,S-E.png,hH,sS,mask-1.png,mask-2.png,h,1,0.6365486000140663,s,1,0.03020710000419058,0.05039570000371896,0.05077609998988919,0.10006900000735186,0.10108609998133034,0.30012620001798496
RSVPLG03,km,20251120-121750,1.0.2,20251113-095759,750,Experiment,Both,1,Automatic,main,92,20251120-122838,local,local,300,H,H,A,E,A-H.png,E-H.png,hH,hH,mask-4.png,mask-3.png,h,1,0.5388467999873683,s,0,0.3175053999875672,0.05083140000351705,0.05104699998628348,0.0999088000098709,0.10034710000036284,0.2988801000174135
RSVPLG03,km,20251120-121750,1.0.2,20251113-095759,750,Experiment,Both,1,Automatic,main,93,20251120-122842,global,local,300,H,S,A,A,H-A.png,A-S.png,hH,sS,mask-4.png,mask-4.png,h,1,0.5622283999982756,s,1,0.1590268999862019,0.04942379999556579,0.048497899988433346,0.0998748000129126,0.09988939997856505,0.30148650001501665
RSVPLG03,km,20251120-121750,1.0.2,20251113-095759,750,Experiment,Both,1,Automatic,main,94,20251120-122847,local,local,750,H,S,E,A,E-H.png,A-S.png,hH,sS,mask-1.png,mask-1.png,h,1,2.635171200003242,h,0,0.4297634999966249,0.05070510000223294,0.048268499987898394,0.10025940000195988,0.10091020000982098,0.750836099992739
RSVPLG03,km,20251120-121750,1.0.2,20251113-095759,750,Experiment,Both,1,Automatic,main,95,20251120-122854,local,global,300,S,H,A,E,A-S.png,H-E.png,sS,hH,mask-2.png,mask-4.png,h,0,0.6337096000206657,s,0,0.04582140001002699,0.05027110001537949,0.049237500003073364,0.10167470001033507,0.09955089999129996,0.3004613000084646
RSVPLG03,km,20251120-121750,1.0.2,20251113-095759,750,Experiment,Both,1,Automatic,main,96,20251120-122859,local,global,300,S,H,A,A,A-S.png,H-A.png,sS,hH,mask-3.png,mask-3.png,s,1,0.45203779998701066,h,1,0.09627150002052076,0.04964990000007674,0.049659900018014014,0.10048160000587814,0.10048970000934787,0.3000381999881938
RSVPLG03,km,20251120-121750,1.0.2,20251113-095759,750,Experiment,Both,1,Automatic,main,97,20251120-122903,global,local,300,H,H,A,E,H-A.png,E-H.png,hH,hH,mask-3.png,mask-2.png,h,1,3.392421900003683,s,0,0.046336300001712516,0.04887850000523031,0.04963250001310371,0.09993629998643883,0.09939680001116358,0.29878449998795986
RSVPLG03,km,20251120-121750,1.0.2,20251113-095759,750,Experiment,Both,1,Automatic,main,98,20251120-122910,global,global,300,S,H,E,A,S-E.png,H-A.png,sS,hH,mask-2.png,mask-1.png,s,1,0.7009430000034627,h,1,0.07727890001842752,0.05074979999335483,0.049392999993870035,0.10174959999858402,0.09988379999413155,0.3006861000030767
RSVPLG03,km,20251120-121750,1.0.2,20251113-095759,750,Experiment,Both,1,Automatic,main,99,20251120-122915,global,local,300,S,H,E,E,S-E.png,E-H.png,sS,hH,mask-1.png,mask-1.png,s,1,0.38362840001354925,h,1,0.1571401999972295,0.04888849999406375,0.049017999990610406,0.09996319998754188,0.09991950000403449,0.29930159999639727
RSVPLG03,km,20251120-121750,1.0.2,20251113-095759,750,Experiment,Both,1,Automatic,main,100,20251120-122919,global,global,300,S,H,A,A,S-A.png,H-A.png,sS,hH,mask-3.png,mask-2.png,s,1,1.2758990000002086,h,1,0.14324689999921247,0.05168980002054013,0.050409200019203126,0.10126409999793395,0.09996180000598542,0.3013197999971453
RSVPLG03,km,20251120-123001,1.0.2,20251113-095759,750,Experiment,Both,1,Automatic,warmup,1,20251120-123044,local,local,750,H,S,A,A,A-H.png,A-S.png,hH,sS,mask-1.png,mask-4.png,h,1,0.32255489999079145,s,1,0.27168710000114515,0.040211300016380847,0.04942210001172498,0.09023170001455583,0.1012744999898132,0.7400169000029564
RSVPLG03,km,20251120-123001,1.0.2,20251113-095759,750,Experiment,Both,1,Automatic,warmup,2,20251120-123049,local,local,300,S,S,E,E,E-S.png,E-S.png,sS,sS,mask-1.png,mask-4.png,s,1,0.6225233000004664,s,1,0.23871889998554252,0.04995660000713542,0.049936900002649054,0.10002390001318417,0.09881860000314191,0.3000934000010602
RSVPLG03,km,20251120-123001,1.0.2,20251113-095759,750,Experiment,Both,1,Automatic,warmup,3,20251120-123053,global,local,300,H,S,A,A,H-A.png,A-S.png,hH,sS,mask-4.png,mask-2.png,h,1,0.3024651999876369,s,1,0.2095837999950163,0.04971360001945868,0.0505727999843657,0.10063670002273284,0.09969719999935478,0.29940430002170615
RSVPLG03,km,20251120-123001,1.0.2,20251113-095759,750,Experiment,Both,1,Automatic,warmup,4,20251120-123058,global,global,300,H,S,E,E,H-E.png,S-E.png,hH,sS,mask-1.png,mask-4.png,h,1,0.6347111999930348,s,1,0.14138340001227334,0.04962330000125803,0.051142599986633286,0.10117450001416728,0.10102179998648353,0.29971230000955984
RSVPLG03,km,20251120-123001,1.0.2,20251113-095759,750,Experiment,Both,1,Automatic,main,5,20251120-123102,global,global,300,H,S,E,E,H-E.png,S-E.png,hH,sS,mask-2.png,mask-4.png,h,1,0.5041417999891564,s,1,0.16054919999442063,0.05008590000215918,0.05195210000965744,0.10015620000194758,0.09815689999959432,0.3017870000039693
RSVPLG03,km,20251120-123001,1.0.2,20251113-095759,750,Experiment,Both,1,Automatic,main,6,20251120-123107,global,global,750,H,S,E,A,H-E.png,S-A.png,hH,sS,mask-2.png,mask-3.png,h,1,0.2916094999818597,s,1,0.21969880000688136,0.05019969999557361,0.05143240001052618,0.09988210001029074,0.10100200001033954,0.7494415999972261
RSVPLG03,km,20251120-123001,1.0.2,20251113-095759,750,Experiment,Both,1,Automatic,main,7,20251120-123111,local,local,750,S,S,A,E,A-S.png,E-S.png,sS,sS,mask-4.png,mask-2.png,s,1,0.6793725999887101,s,1,0.10855990002164617,0.049847699992824346,0.05085180001333356,0.09911329997703433,0.09983630001079291,0.7496196999854874
RSVPLG03,km,20251120-123001,1.0.2,20251113-095759,750,Experiment,Both,1,Automatic,main,8,20251120-123116,local,local,750,H,H,A,A,A-H.png,A-H.png,hH,hH,mask-1.png,mask-3.png,h,1,0.32962609999231063,h,1,0.16051799998967908,0.050267200014786795,0.049899499979801476,0.1014846000180114,0.10083349997876212,0.7496619000157807
RSVPLG03,km,20251120-123001,1.0.2,20251113-095759,750,Experiment,Both,1,Automatic,main,9,20251120-123121,global,local,300,H,H,A,E,H-A.png,E-H.png,hH,hH,mask-2.png,mask-4.png,h,1,0.8961443000007421,h,1,0.17162149999057874,0.05075880000367761,0.049609100009547547,0.10060840001096949,0.09871790002216585,0.3005208999966271
RSVPLG03,km,20251120-123001,1.0.2,20251113-095759,750,Experiment,Both,1,Automatic,main,10,20251120-123126,global,global,300,S,S,A,A,S-A.png,S-A.png,sS,sS,mask-4.png,mask-1.png,s,1,0.5593867000134196,h,0,0.03205430001253262,0.049538300023414195,0.04872210000758059,0.09919890001765452,0.0993513000139501,0.30023970000911504
RSVPLG03,km,20251120-123001,1.0.2,20251113-095759,750,Experiment,Both,1,Automatic,main,11,20251120-123130,local,local,750,S,S,A,A,A-S.png,A-S.png,sS,sS,mask-2.png,mask-2.png,s,1,0.5720419000135735,h,0,0.5438829000049736,0.051490800018655136,0.04975070001091808,0.10039700000197627,0.09960180000052787,0.7503447000053711
RSVPLG03,km,20251120-123001,1.0.2,20251113-095759,750,Experiment,Both,1,Automatic,main,12,20251120-123136,local,local,750,H,H,E,A,E-H.png,A-H.png,hH,hH,mask-4.png,mask-1.png,s,0,0.6994611999834888,h,1,0.1594189000024926,0.04883359998348169,0.04992079999647103,0.09878100000787526,0.10036240000044927,0.7482896999863442
RSVPLG03,km,20251120-123001,1.0.2,20251113-095759,750,Experiment,Both,1,Automatic,main,13,20251120-123141,local,local,300,S,S,E,A,E-S.png,A-S.png,sS,sS,mask-2.png,mask-3.png,s,1,0.4454392000043299,h,0,0.19162560001132078,0.04982879999442957,0.049394400004530326,0.09978509999928065,0.0997510000015609,0.2994411000108812
RSVPLG03,km,20251120-123001,1.0.2,20251113-095759,750,Experiment,Both,1,Automatic,main,14,20251120-123145,local,global,300,H,H,A,E,A-H.png,H-E.png,hH,hH,mask-1.png,mask-4.png,h,1,0.6570006999827456,s,0,0.09895730001153424,0.0496399000112433,0.04973790000076406,0.10046410001814365,0.09874610000406392,0.2998121000127867
RSVPLG03,km,20251120-123001,1.0.2,20251113-095759,750,Experiment,Both,1,Automatic,main,15,20251120-123150,global,global,750,H,H,A,A,H-A.png,H-A.png,hH,hH,mask-4.png,mask-2.png,h,1,0.33579509999253787,h,1,0.12546329997712746,0.04871529998490587,0.04808380000758916,0.09961479998310097,0.098299200006295,0.7501712999946903
RSVPLG03,km,20251120-123001,1.0.2,20251113-095759,750,Experiment,Both,1,Automatic,main,16,20251120-123154,global,local,750,S,S,E,E,S-E.png,E-S.png,sS,sS,mask-3.png,mask-3.png,s,1,0.40669860001071356,s,1,0.1723694000102114,0.05057429999578744,0.04973460000474006,0.0992326999839861,0.10058410000056028,0.7488378999987617
RSVPLG03,km,20251120-123001,1.0.2,20251113-095759,750,Experiment,Both,1,Automatic,main,17,20251120-123159,global,local,750,H,H,A,E,H-A.png,E-H.png,hH,hH,mask-3.png,mask-4.png,h,1,0.33687060000374913,h,1,0.14449299999978393,0.048689299990655854,0.051646499981870875,0.09969199998886324,0.10158419999061152,0.7477558999962639
RSVPLG03,km,20251120-123001,1.0.2,20251113-095759,750,Experiment,Both,1,Automatic,main,18,20251120-123204,global,local,750,S,H,E,A,S-E.png,A-H.png,sS,hH,mask-2.png,mask-2.png,s,1,0.6143724000139628,h,1,0.22372780001023784,0.05076129999361001,0.050858500006143004,0.10046769998734817,0.09985190001316369,0.7500829999917187
RSVPLG03,km,20251120-123001,1.0.2,20251113-095759,750,Experiment,Both,1,Automatic,main,19,20251120-123209,local,global,750,H,H,A,A,A-H.png,H-A.png,hH,hH,mask-2.png,mask-3.png,h,1,0.36481369999819435,h,1,0.12821729999268427,0.05177320001530461,0.049687899998389184,0.10163980000652373,0.09989419998601079,0.751278200012166
RSVPLG03,km,20251120-123001,1.0.2,20251113-095759,750,Experiment,Both,1,Automatic,main,20,20251120-123213,global,global,300,S,S,E,E,S-E.png,S-E.png,sS,sS,mask-3.png,mask-3.png,s,1,0.41642370002227835,s,1,0.5916612999862991,0.05080100000486709,0.05000459999428131,0.1006966000131797,0.10000350000336766,0.3003350000071805
RSVPLG03,km,20251120-123001,1.0.2,20251113-095759,750,Experiment,Both,1,Automatic,main,21,20251120-123218,local,global,300,H,S,E,A,E-H.png,S-A.png,hH,sS,mask-1.png,mask-3.png,h,1,0.3807657999859657,s,1,0.22268899998744018,0.04940739998710342,0.04849169999943115,0.09957369999028742,0.09815909998724237,0.3009451999969315
RSVPLG03,km,20251120-123001,1.0.2,20251113-095759,750,Experiment,Both,1,Automatic,main,22,20251120-123223,global,local,300,S,S,A,A,S-A.png,A-S.png,sS,sS,mask-1.png,mask-2.png,s,1,0.8106913000228815,h,0,0.12458860001061112,0.04982070002006367,0.050722100015264004,0.10072060002130456,0.1005703000118956,0.30002070000045933
RSVPLG03,km,20251120-123001,1.0.2,20251113-095759,750,Experiment,Both,1,Automatic,main,23,20251120-123227,local,local,300,H,H,E,A,E-H.png,A-H.png,hH,hH,mask-3.png,mask-3.png,s,0,0.832700200000545,h,1,0.19012640000437386,0.050353099999483675,0.04934290001983754,0.09975190000841394,0.0998029000184033,0.30052109999815
RSVPLG03,km,20251120-123001,1.0.2,20251113-095759,750,Experiment,Both,1,Automatic,main,24,20251120-123232,local,global,750,S,S,E,E,E-S.png,S-E.png,sS,sS,mask-1.png,mask-1.png,s,1,0.5471630000101868,s,1,0.11232220000238158,0.04856000002473593,0.05075530000613071,0.09760070001357235,0.10285900000599213,0.7483113000052981
RSVPLG03,km,20251120-123001,1.0.2,20251113-095759,750,Experiment,Both,1,Automatic,main,25,20251120-123237,local,global,300,H,H,A,A,A-H.png,H-A.png,hH,hH,mask-4.png,mask-1.png,h,1,0.978152499999851,h,1,0.1280605999927502,0.04758489999221638,0.048417999991215765,0.09828179999021813,0.09894039999926463,0.2992709999962244
RSVPLG03,km,20251120-123001,1.0.2,20251113-095759,750,Experiment,Both,1,Automatic,main,26,20251120-123313,local,local,300,S,S,E,E,E-S.png,E-S.png,sS,sS,mask-2.png,mask-4.png,s,1,0.40132699999958277,s,1,0.09118769998895004,0.0497229999746196,0.05060529999900609,0.0984757999831345,0.09937050001462922,0.298905499977991
RSVPLG03,km,20251120-123001,1.0.2,20251113-095759,750,Experiment,Both,1,Automatic,main,27,20251120-123318,local,global,300,S,S,A,E,A-S.png,S-E.png,sS,sS,mask-3.png,mask-3.png,s,1,1.9338129000097979,s,1,0.04605169998831116,0.049794399994425476,0.05101510000531562,0.09916680000605993,0.10131520000868477,0.29914359998656437
RSVPLG03,km,20251120-123001,1.0.2,20251113-095759,750,Experiment,Both,1,Automatic,main,28,20251120-123323,local,local,750,H,S,A,E,A-H.png,E-S.png,hH,sS,mask-4.png,mask-2.png,h,1,0.38647889997810125,s,1,0.15765690000262111,0.04877150000538677,0.05076899999403395,0.09956560001592152,0.10084880000795238,0.7480624000017997
RSVPLG03,km,20251120-123001,1.0.2,20251113-095759,750,Experiment,Both,1,Automatic,main,29,20251120-123328,global,global,300,S,S,A,E,S-A.png,S-E.png,sS,sS,mask-1.png,mask-4.png,s,1,0.38739029999123886,s,1,0.3328486999962479,0.05071800001314841,0.04886290000285953,0.09947890002513304,0.09836570001789369,0.3007932000036817
RSVPLG03,km,20251120-123001,1.0.2,20251113-095759,750,Experiment,Both,1,Automatic,main,30,20251120-123332,global,global,750,H,H,E,E,H-E.png,H-E.png,hH,hH,mask-4.png,mask-1.png,h,1,0.5575758000195492,h,1,0.1575468999799341,0.04994530000840314,0.051692300010472536,0.09952660000999458,0.10055030000512488,0.7495481999940239
RSVPLG03,km,20251120-123001,1.0.2,20251113-095759,750,Experiment,Both,1,Automatic,main,31,20251120-123337,global,global,750,S,S,A,E,S-A.png,S-E.png,sS,sS,mask-1.png,mask-1.png,s,1,0.3261612000060268,s,1,0.12487530001089908,0.04974969997419976,0.04969850002089515,0.09962529997574165,0.1000392000132706,0.7487852999765892
RSVPLG03,km,20251120-123001,1.0.2,20251113-095759,750,Experiment,Both,1,Automatic,main,32,20251120-123342,global,global,300,S,H,A,A,S-A.png,H-A.png,sS,hH,mask-1.png,mask-1.png,s,1,0.3710857000260148,h,1,0.1737587999959942,0.049618100019870326,0.050160300015704706,0.09927520001656376,0.10043230000883341,0.2992140999995172
RSVPLG03,km,20251120-123001,1.0.2,20251113-095759,750,Experiment,Both,1,Automatic,main,33,20251120-123346,local,local,750,S,S,A,E,A-S.png,E-S.png,sS,sS,mask-3.png,mask-4.png,s,1,0.4926043000014033,s,1,0.061681499995756894,0.049588699999731034,0.04963120000320487,0.10133810000843368,0.09932690000277944,0.7510364000045229
RSVPLG03,km,20251120-123001,1.0.2,20251113-095759,750,Experiment,Both,1,Automatic,main,34,20251120-123351,global,global,300,S,H,A,E,S-A.png,H-E.png,sS,hH,mask-1.png,mask-1.png,s,1,0.38506950001465157,h,1,0.11088069999823347,0.049800400011008605,0.05032219999702647,0.10098360001575202,0.0991259999864269,0.30051520001143217
RSVPLG03,km,20251120-123001,1.0.2,20251113-095759,750,Experiment,Both,1,Automatic,main,35,20251120-123355,local,global,300,S,S,E,A,E-S.png,S-A.png,sS,sS,mask-4.png,mask-2.png,s,1,0.5909874999779277,s,1,0.14625260001048446,0.04968979998375289,0.049628500011749566,0.10062909999396652,0.10040210001170635,0.30010299998684786
RSVPLG03,km,20251120-123001,1.0.2,20251113-095759,750,Experiment,Both,1,Automatic,main,36,20251120-123400,global,local,300,S,S,A,E,S-A.png,E-S.png,sS,sS,mask-4.png,mask-4.png,s,1,0.2779783000005409,s,1,0.07651140002417378,0.049717599991708994,0.049480699992273,0.10056920000351965,0.0988917000067886,0.29973339999560267
RSVPLG03,km,20251120-123001,1.0.2,20251113-095759,750,Experiment,Both,1,Automatic,main,37,20251120-123404,global,global,750,S,H,A,E,S-A.png,H-E.png,sS,hH,mask-2.png,mask-1.png,s,1,0.29746559998602606,h,1,0.12354649999178946,0.05080870000529103,0.05088439999963157,0.09966549999080598,0.10095870000077412,0.7499357000051532
RSVPLG03,km,20251120-123001,1.0.2,20251113-095759,750,Experiment,Both,1,Automatic,main,38,20251120-123408,global,global,300,S,H,A,A,S-A.png,H-A.png,sS,hH,mask-3.png,mask-2.png,s,1,0.24274159999913536,h,1,0.14151489999494515,0.049828499992145225,0.04832709999755025,0.10134059999836609,0.09868299998925067,0.3004988000029698
RSVPLG03,km,20251120-123001,1.0.2,20251113-095759,750,Experiment,Both,1,Automatic,main,39,20251120-123413,local,global,300,S,S,A,A,A-S.png,S-A.png,sS,sS,mask-1.png,mask-4.png,s,1,0.7595686000131536,s,1,0.30144139999174513,0.0482983999827411,0.049976899987086654,0.09974879998480901,0.09936239998205565,0.29948590000276454
RSVPLG03,km,20251120-123001,1.0.2,20251113-095759,750,Experiment,Both,1,Automatic,main,40,20251120-123417,local,global,750,S,H,E,E,E-S.png,H-E.png,sS,hH,mask-1.png,mask-2.png,s,1,0.20912699998007156,h,1,0.14083220000611618,0.04986450000433251,0.049539399973582476,0.09888259999570437,0.10117119998903945,0.748309300019173
RSVPLG03,km,20251120-123001,1.0.2,20251113-095759,750,Experiment,Both,1,Automatic,main,41,20251120-123422,local,global,750,H,S,A,A,A-H.png,S-A.png,hH,sS,mask-4.png,mask-2.png,h,1,0.8892249000200536,s,1,0.1474502999917604,0.05069950001779944,0.05073149999952875,0.10052710000309162,0.10065099998610094,0.750422700017225
RSVPLG03,km,20251120-123001,1.0.2,20251113-095759,750,Experiment,Both,1,Automatic,main,42,20251120-123427,local,local,300,H,S,A,E,A-H.png,E-S.png,hH,sS,mask-2.png,mask-3.png,h,1,0.26876249999622814,s,1,0.0644449999963399,0.0512589999998454,0.0495801999932155,0.09969799997634254,0.09927899998729117,0.3009134999883827
RSVPLG03,km,20251120-123001,1.0.2,20251113-095759,750,Experiment,Both,1,Automatic,main,43,20251120-123431,global,local,750,H,H,A,A,H-A.png,A-H.png,hH,hH,mask-3.png,mask-1.png,h,1,0.26243930001510307,h,1,0.10996939998585731,0.049726299999747425,0.048742700018920004,0.09963140002219006,0.09945940002216958,0.749548899999354
RSVPLG03,km,20251120-123001,1.0.2,20251113-095759,750,Experiment,Both,1,Automatic,main,44,20251120-123436,global,global,750,H,H,A,A,H-A.png,H-A.png,hH,hH,mask-2.png,mask-3.png,h,1,0.2273060000152327,h,1,0.1620178000011947,0.04930609997245483,0.04957249999279156,0.09999759998754598,0.10098519999883138,0.7487298999913037
RSVPLG03,km,20251120-123001,1.0.2,20251113-095759,750,Experiment,Both,1,Automatic,main,45,20251120-123440,global,local,300,S,S,E,A,S-E.png,A-S.png,sS,sS,mask-1.png,mask-1.png,s,1,0.3865745000075549,h,0,0.06210019998252392,0.051714500004891306,0.05163360000005923,0.1015381999895908,0.10236240000813268,0.3001044999982696
RSVPLG03,km,20251120-123001,1.0.2,20251113-095759,750,Experiment,Both,1,Automatic,main,46,20251120-123444,local,local,750,S,H,A,E,A-S.png,E-H.png,sS,hH,mask-4.png,mask-4.png,s,1,0.5742491999990307,h,1,0.031607599987182766,0.05041480000363663,0.05071070001577027,0.10108329998911358,0.10064800002146512,0.7499365999829024
RSVPLG03,km,20251120-123001,1.0.2,20251113-095759,750,Experiment,Both,1,Automatic,main,47,20251120-123449,global,local,750,S,S,E,A,S-E.png,A-S.png,sS,sS,mask-3.png,mask-1.png,s,1,0.4906579999951646,h,0,0.029175200004829094,0.050723599997581914,0.049945500009926036,0.10133229999337345,0.09986090002348647,0.7505785999819636
RSVPLG03,km,20251120-123001,1.0.2,20251113-095759,750,Experiment,Both,1,Automatic,main,48,20251120-123454,global,global,300,S,H,E,E,S-E.png,H-E.png,sS,hH,mask-2.png,mask-2.png,s,1,0.45859350002137944,h,1,0.08000800001900643,0.0506912000128068,0.049634700000751764,0.1006714999966789,0.09879940000246279,0.30086789999040775
RSVPLG03,km,20251120-123001,1.0.2,20251113-095759,750,Experiment,Both,1,Automatic,main,49,20251120-123458,global,local,300,H,S,A,E,H-A.png,E-S.png,hH,sS,mask-3.png,mask-1.png,h,1,0.3797210000047926,s,1,0.28878449997864664,0.04965899998205714,0.05049480000161566,0.1006166999868583,0.10078569999313913,0.29932829999597743
RSVPLG03,km,20251120-123001,1.0.2,20251113-095759,750,Experiment,Both,1,Automatic,main,50,20251120-123503,global,global,300,H,H,A,A,H-A.png,H-A.png,hH,hH,mask-3.png,mask-3.png,h,1,0.504355699988082,s,0,0.09364750000531785,0.04776800001855008,0.04991919998428784,0.09987249999539927,0.09949980000965297,0.2991618000087328
RSVPLG03,km,20251120-123001,1.0.2,20251113-095759,750,Experiment,Both,1,Automatic,main,51,20251120-123529,global,global,300,H,S,A,E,H-A.png,S-E.png,hH,sS,mask-1.png,mask-4.png,h,1,0.35448020001058467,s,1,0.044423500017728657,0.04975199999171309,0.04976910000550561,0.10075509999296628,0.09871020002174191,0.2994058999756817
RSVPLG03,km,20251120-123001,1.0.2,20251113-095759,750,Experiment,Both,1,Automatic,main,52,20251120-123533,global,local,300,H,H,E,E,H-E.png,E-H.png,hH,hH,mask-4.png,mask-4.png,h,1,0.4142175999877509,h,1,0.09457619997556321,0.05081879999488592,0.04928300000028685,0.09970289998454973,0.09954759999527596,0.29968369999551214
RSVPLG03,km,20251120-123001,1.0.2,20251113-095759,750,Experiment,Both,1,Automatic,main,53,20251120-123537,global,local,300,S,S,A,E,S-A.png,E-S.png,sS,sS,mask-3.png,mask-4.png,s,1,0.6025915999780409,s,1,0.09486939999624155,0.04746010000235401,0.04962610002257861,0.09740150001016445,0.09931930000311695,0.2972606999974232
RSVPLG03,km,20251120-123001,1.0.2,20251113-095759,750,Experiment,Both,1,Automatic,main,54,20251120-123541,global,local,750,H,S,E,E,H-E.png,E-S.png,hH,sS,mask-2.png,mask-3.png,h,1,0.3567216999945231,s,1,0.027721400023438036,0.04976409999653697,0.049490700010210276,0.10167529998579994,0.09894759999588132,0.7501361999893561
RSVPLG03,km,20251120-123001,1.0.2,20251113-095759,750,Experiment,Both,1,Automatic,main,55,20251120-123546,global,global,750,S,H,A,A,S-A.png,H-A.png,sS,hH,mask-2.png,mask-3.png,s,1,0.36214620000100695,h,1,0.07943789998535067,0.04846520000137389,0.04882880000513978,0.09907610001391731,0.09867799998028204,0.749798800010467
RSVPLG03,km,20251120-123001,1.0.2,20251113-095759,750,Experiment,Both,1,Automatic,main,56,20251120-123550,local,local,750,S,H,A,A,A-S.png,A-H.png,sS,hH,mask-3.png,mask-1.png,s,1,0.3559217999863904,h,1,0.06480059999739751,0.0497414999990724,0.0498290000250563,0.09861449999152683,0.09801250000600703,0.7500016999838408
RSVPLG03,km,20251120-123001,1.0.2,20251113-095759,750,Experiment,Both,1,Automatic,main,57,20251120-123555,global,global,750,S,S,A,E,S-A.png,S-E.png,sS,sS,mask-4.png,mask-2.png,s,1,0.5266403999994509,h,0,0.09832940000342205,0.04981349999434315,0.04973310002242215,0.1006030999997165,0.09947020001709461,0.7505976999818813
RSVPLG03,km,20251120-123001,1.0.2,20251113-095759,750,Experiment,Both,1,Automatic,main,58,20251120-123600,local,local,300,S,S,E,E,E-S.png,E-S.png,sS,sS,mask-3.png,mask-3.png,s,1,0.3506164000136778,s,1,0.09295489999931306,0.050098200008505955,0.04962770000565797,0.10041929999715649,0.10128979998989962,0.2997345000039786
RSVPLG03,km,20251120-123001,1.0.2,20251113-095759,750,Experiment,Both,1,Automatic,main,59,20251120-123604,global,global,750,H,H,E,A,H-E.png,H-A.png,hH,hH,mask-4.png,mask-1.png,h,1,0.37822690000757575,h,1,0.07854560000123456,0.0506972000002861,0.0508624000067357,0.100506899994798,0.10093850002158433,0.7494929999811575
RSVPLG03,km,20251120-123001,1.0.2,20251113-095759,750,Experiment,Both,1,Automatic,main,60,20251120-123608,local,global,300,S,H,A,A,A-S.png,H-A.png,sS,hH,mask-3.png,mask-2.png,s,1,0.8405552000040188,h,1,0.04536190000362694,0.04774159999215044,0.049738100002286956,0.09756349999224767,0.09871910000219941,0.2981339000107255
RSVPLG03,km,20251120-123001,1.0.2,20251113-095759,750,Experiment,Both,1,Automatic,main,61,20251120-123613,local,global,300,H,S,A,A,A-H.png,S-A.png,hH,sS,mask-4.png,mask-1.png,h,1,0.27707189999637194,s,1,0.09563920000800863,0.04875390001689084,0.04972509999061003,0.0986249000125099,0.09930249999160878,0.298844500008272
RSVPLG03,km,20251120-123001,1.0.2,20251113-095759,750,Experiment,Both,1,Automatic,main,62,20251120-123617,global,global,750,S,H,E,E,S-E.png,H-E.png,sS,hH,mask-1.png,mask-2.png,s,1,0.29592049997881986,h,1,0.0673497999960091,0.04910229999222793,0.050895199994556606,0.10039529998903163,0.10089579998748377,0.7499019000097178
RSVPLG03,km,20251120-123001,1.0.2,20251113-095759,750,Experiment,Both,1,Automatic,main,63,20251120-123621,local,global,750,H,S,E,E,E-H.png,S-E.png,hH,sS,mask-1.png,mask-2.png,h,1,0.6221360000199638,s,1,0.06058099999791011,0.050705600006040186,0.04978230001870543,0.10092270001769066,0.09765120001975447,0.7508778999908827
RSVPLG03,km,20251120-123001,1.0.2,20251113-095759,750,Experiment,Both,1,Automatic,main,64,20251120-123626,global,global,300,S,H,E,A,S-E.png,H-A.png,sS,hH,mask-4.png,mask-3.png,h,0,1.1389243000012357,s,0,0.0471761999942828,0.050309899990679696,0.04917109999223612,0.09874300000956282,0.09861869999440387,0.30055270000593737
RSVPLG03,km,20251120-123001,1.0.2,20251113-095759,750,Experiment,Both,1,Automatic,main,65,20251120-123631,global,local,300,H,H,E,E,H-E.png,E-H.png,hH,hH,mask-4.png,mask-2.png,h,1,0.7627195999957621,s,0,0.02986029998282902,0.04938790001324378,0.050653700018301606,0.09950330000719987,0.09963020001305267,0.30055389998597093
RSVPLG03,km,20251120-123001,1.0.2,20251113-095759,750,Experiment,Both,1,Automatic,main,66,20251120-123636,local,local,300,S,S,E,A,E-S.png,A-S.png,sS,sS,mask-1.png,mask-4.png,s,1,0.6959686999907717,s,1,0.07956600000034086,0.04826350000803359,0.04926170001272112,0.09963039998547174,0.09963330000755377,0.2989759999909438
RSVPLG03,km,20251120-123001,1.0.2,20251113-095759,750,Experiment,Both,1,Automatic,main,67,20251120-123640,global,global,750,H,H,A,A,H-A.png,H-A.png,hH,hH,mask-4.png,mask-3.png,h,1,0.8392025000066496,h,1,0.08003670000471175,0.04976310001802631,0.048594199994113296,0.10011570001370274,0.09930319999693893,0.7500779000110924
RSVPLG03,km,20251120-123001,1.0.2,20251113-095759,750,Experiment,Both,1,Automatic,main,68,20251120-123645,local,local,300,S,H,A,A,A-S.png,A-H.png,sS,hH,mask-2.png,mask-3.png,s,1,0.5146466000005603,h,1,0.06161939998855814,0.050728100002743304,0.050231800007168204,0.10059799998998642,0.1001066000026185,0.30008999997517094
RSVPLG03,km,20251120-123001,1.0.2,20251113-095759,750,Experiment,Both,1,Automatic,main,69,20251120-123649,local,global,300,H,S,E,E,E-H.png,S-E.png,hH,sS,mask-2.png,mask-4.png,h,1,0.3887496000097599,s,1,0.04480070000863634,0.048364699992816895,0.04970159998629242,0.10043009999208152,0.10001940000802279,0.2983397000061814
RSVPLG03,km,20251120-123001,1.0.2,20251113-095759,750,Experiment,Both,1,Automatic,main,70,20251120-123654,local,global,300,H,H,A,A,A-H.png,H-A.png,hH,hH,mask-1.png,mask-3.png,h,1,0.43170260000624694,h,1,0.074593500001356,0.0498381000070367,0.05071199999656528,0.10027730002184398,0.10092450000229292,0.29933700000401586
RSVPLG03,km,20251120-123001,1.0.2,20251113-095759,750,Experiment,Both,1,Automatic,main,71,20251120-123658,local,local,750,S,H,E,A,E-S.png,A-H.png,sS,hH,mask-1.png,mask-2.png,s,1,0.20317739999154583,h,1,0.07950019999407232,0.048434600001201034,0.05055399998673238,0.09914449998177588,0.10025779998977669,0.7488423000031617
RSVPLG03,km,20251120-123001,1.0.2,20251113-095759,750,Experiment,Both,1,Automatic,main,72,20251120-123702,global,local,300,H,H,A,A,H-A.png,A-H.png,hH,hH,mask-3.png,mask-4.png,h,1,0.3423824999772478,h,1,0.06431200000224635,0.04919679998420179,0.04947619998711161,0.10007789998780936,0.10025729998596944,0.2993033000093419
RSVPLG03,km,20251120-123001,1.0.2,20251113-095759,750,Experiment,Both,1,Automatic,main,73,20251120-123706,global,local,300,S,H,E,A,S-E.png,A-H.png,sS,hH,mask-1.png,mask-3.png,s,1,0.28350990000762977,h,1,0.04482409998308867,0.049683499993989244,0.05071559999487363,0.10157470000558533,0.10056770002120174,0.2996343999984674
RSVPLG03,km,20251120-123001,1.0.2,20251113-095759,750,Experiment,Both,1,Automatic,main,74,20251120-123710,local,global,750,S,H,A,A,A-S.png,H-A.png,sS,hH,mask-3.png,mask-3.png,s,1,0.5425671999983024,h,1,0.044899300002725795,0.05004090000875294,0.04926530001102947,0.09999109999625944,0.09867540001869202,0.7500257999927271
RSVPLG03,km,20251120-123001,1.0.2,20251113-095759,750,Experiment,Both,1,Automatic,main,75,20251120-123715,local,global,300,H,S,A,A,A-H.png,S-A.png,hH,sS,mask-1.png,mask-2.png,h,1,0.3996069999993779,s,1,0.0462079000135418,0.04946319997543469,0.04934440000215545,0.09937199999694712,0.09940889998688363,0.30061609999393113
RSVPLG03,km,20251120-123001,1.0.2,20251113-095759,750,Experiment,Both,1,Automatic,main,76,20251120-123806,local,local,750,H,S,A,E,A-H.png,E-S.png,hH,sS,mask-4.png,mask-4.png,h,1,0.33935789999668486,s,1,0.015415799978654832,0.049847699992824346,0.050858500006143004,0.10080629997537471,0.10089269999298267,0.748905599990394
RSVPLG03,km,20251120-123001,1.0.2,20251113-095759,750,Experiment,Both,1,Automatic,main,77,20251120-123811,local,local,750,S,H,E,E,E-S.png,E-H.png,sS,hH,mask-4.png,mask-2.png,s,1,0.246601599996211,h,1,0.013926499988883734,0.04979049999383278,0.04854199997498654,0.09828199999174103,0.10000439998111688,0.749017800000729
RSVPLG03,km,20251120-123001,1.0.2,20251113-095759,750,Experiment,Both,1,Automatic,main,78,20251120-123815,local,global,750,H,S,E,E,E-H.png,S-E.png,hH,sS,mask-4.png,mask-3.png,h,1,0.39771420002216473,s,1,0.044552600011229515,0.05131510001956485,0.05068760001449846,0.09986380001646467,0.0998717000184115,0.749242999998387
RSVPLG03,km,20251120-123001,1.0.2,20251113-095759,750,Experiment,Both,1,Automatic,main,79,20251120-123820,local,local,750,S,H,A,E,A-S.png,E-H.png,sS,hH,mask-1.png,mask-4.png,s,1,0.8964057000121102,h,1,0.03153619999648072,0.05087529998854734,0.05080379999708384,0.10080379998544231,0.10073999999440275,0.749648500001058
RSVPLG03,km,20251120-123001,1.0.2,20251113-095759,750,Experiment,Both,1,Automatic,main,80,20251120-123825,local,local,300,H,H,E,E,E-H.png,E-H.png,hH,hH,mask-1.png,mask-3.png,h,1,0.34154619998298585,s,0,0.03371729998616502,0.049544000008609146,0.049790000019129366,0.10033570000086911,0.09953310000128113,0.29967919999035075
RSVPLG03,km,20251120-123001,1.0.2,20251113-095759,750,Experiment,Both,1,Automatic,main,81,20251120-123829,local,local,300,S,H,E,E,E-S.png,E-H.png,sS,hH,mask-3.png,mask-2.png,h,0,0.9004842999856919,h,1,1.0236225000116974,0.05063549999613315,0.04965030000312254,0.10030029999325052,0.09929929999634624,0.30053759997827
RSVPLG03,km,20251120-123001,1.0.2,20251113-095759,750,Experiment,Both,1,Automatic,main,82,20251120-123835,local,global,300,S,S,E,A,E-S.png,S-A.png,sS,sS,mask-2.png,mask-3.png,s,1,0.7389726999972481,s,1,0.0628324999997858,0.050066900003002957,0.049778100015828386,0.10017360001802444,0.10039410000899807,0.30002470000181347
RSVPLG03,km,20251120-123001,1.0.2,20251113-095759,750,Experiment,Both,1,Automatic,main,83,20251120-123839,global,local,750,H,H,E,A,H-E.png,A-H.png,hH,hH,mask-1.png,mask-4.png,h,1,0.4123857000085991,h,1,0.158393799996702,0.049739500012947246,0.04971520000253804,0.10060340000200085,0.10062460001790896,0.750008600007277
RSVPLG03,km,20251120-123001,1.0.2,20251113-095759,750,Experiment,Both,1,Automatic,main,84,20251120-123844,global,local,750,S,H,E,E,S-E.png,E-H.png,sS,hH,mask-3.png,mask-1.png,s,1,1.0936858000059146,h,1,0.09171739997691475,0.0497447999950964,0.04905720002716407,0.1016001999960281,0.10044000000925735,0.7498189999896567
RSVPLG03,km,20251120-123001,1.0.2,20251113-095759,750,Experiment,Both,1,Automatic,main,85,20251120-123849,local,local,300,H,H,E,A,E-H.png,A-H.png,hH,hH,mask-3.png,mask-3.png,h,1,1.2492948999861255,h,1,0.0795096000074409,0.049816900020232424,0.049770900019211695,0.09973030001856387,0.09853300001122989,0.29995230000349693
RSVPLG03,km,20251120-123001,1.0.2,20251113-095759,750,Experiment,Both,1,Automatic,main,86,20251120-123854,global,local,750,S,H,A,A,S-A.png,A-H.png,sS,hH,mask-4.png,mask-4.png,s,1,0.1450755000114441,h,1,0.014871699997456744,0.04972710000583902,0.05006360000697896,0.09985710002365522,0.10025479999603704,0.7488383000018075
RSVPLG03,km,20251120-123001,1.0.2,20251113-095759,750,Experiment,Both,1,Automatic,main,87,20251120-123858,local,global,750,S,S,A,E,A-S.png,S-E.png,sS,sS,mask-4.png,mask-2.png,h,0,0.3732083000068087,s,1,0.027335999999195337,0.05024850001791492,0.050010799983283505,0.1006405999942217,0.10019409999949858,0.7499479000107385
RSVPLG03,km,20251120-123001,1.0.2,20251113-095759,750,Experiment,Both,1,Automatic,main,88,20251120-123903,local,global,750,S,H,A,A,A-S.png,H-A.png,sS,hH,mask-2.png,mask-3.png,s,1,0.29469770001014695,h,1,0.04924449999816716,0.050305700016906485,0.049708500009728596,0.10043850002693944,0.0995868000027258,0.7512126000074204
RSVPLG03,km,20251120-123001,1.0.2,20251113-095759,750,Experiment,Both,1,Automatic,main,89,20251120-123907,global,global,300,H,S,A,E,H-A.png,S-E.png,hH,sS,mask-4.png,mask-2.png,h,1,0.3525320000189822,s,1,0.04449209998711012,0.050095399987185374,0.0497105999966152,0.10032299999147654,0.09796970000024885,0.3004273999831639
RSVPLG03,km,20251120-123001,1.0.2,20251113-095759,750,Experiment,Both,1,Automatic,main,90,20251120-123912,local,local,300,H,H,E,E,E-H.png,E-H.png,hH,hH,mask-3.png,mask-1.png,h,1,0.5224861000024248,s,0,0.5093205999874044,0.04829690000042319,0.049135000008391216,0.10000039997976273,0.09921549999853596,0.29881119998754
RSVPLG03,km,20251120-123001,1.0.2,20251113-095759,750,Experiment,Both,1,Automatic,main,91,20251120-123916,global,local,750,S,H,A,E,S-A.png,E-H.png,sS,hH,mask-2.png,mask-4.png,s,1,0.2600287000241224,h,1,0.029761299985693768,0.04902440001023933,0.04935230000410229,0.09875730000203475,0.10072290000971407,0.7487922000000253
RSVPLG03,km,20251120-123001,1.0.2,20251113-095759,750,Experiment,Both,1,Automatic,main,92,20251120-123921,local,global,750,H,S,E,A,E-H.png,S-A.png,hH,sS,mask-1.png,mask-2.png,h,1,0.5653279999969527,s,1,0.07922310000867583,0.0497330000216607,0.05070200000773184,0.09958170002209954,0.10054450001916848,0.7489989000023343
RSVPLG03,km,20251120-123001,1.0.2,20251113-095759,750,Experiment,Both,1,Automatic,main,93,20251120-123926,global,local,750,S,S,A,E,S-A.png,E-S.png,sS,sS,mask-4.png,mask-4.png,s,1,0.24242019999655895,s,1,0.11247520000324585,0.04976460000034422,0.049513099977048114,0.09890839998843148,0.10007699998095632,0.7492480000073556
RSVPLG03,km,20251120-123001,1.0.2,20251113-095759,750,Experiment,Both,1,Automatic,main,94,20251120-123930,global,local,300,S,S,E,E,S-E.png,E-S.png,sS,sS,mask-4.png,mask-1.png,s,1,0.30098639999050647,s,1,0.07723329999134876,0.04886459998670034,0.04966749998857267,0.09875109998392873,0.09969719999935478,0.300368600001093
RSVPLG03,km,20251120-123001,1.0.2,20251113-095759,750,Experiment,Both,1,Automatic,main,95,20251120-123934,local,global,750,S,H,A,E,A-S.png,H-E.png,sS,hH,mask-3.png,mask-4.png,s,1,0.3781451999966521,h,1,0.03233560000080615,0.049225499999010935,0.049326500011375174,0.09907050000037998,0.10097210001549684,0.7481670999841299
RSVPLG03,km,20251120-123001,1.0.2,20251113-095759,750,Experiment,Both,1,Automatic,main,96,20251120-123939,local,local,300,S,S,A,A,A-S.png,A-S.png,sS,sS,mask-4.png,mask-2.png,s,1,0.3501317999907769,h,0,0.04620840001734905,0.04873249999945983,0.04896070001996122,0.09857679999549873,0.0992854000069201,0.2987356999947224
RSVPLG03,km,20251120-123001,1.0.2,20251113-095759,750,Experiment,Both,1,Automatic,main,97,20251120-123943,global,global,750,H,S,E,E,H-E.png,S-E.png,hH,sS,mask-1.png,mask-3.png,h,1,1.1754800000053365,s,1,0.10889819997828454,0.04944410000462085,0.05050610000034794,0.09997540002223104,0.10034999999334104,0.749089000019012
RSVPLG03,km,20251120-123001,1.0.2,20251113-095759,750,Experiment,Both,1,Automatic,main,98,20251120-123949,global,local,300,H,S,E,E,H-E.png,E-S.png,hH,sS,mask-3.png,mask-3.png,h,1,0.33067080000182614,s,1,0.12563829999999143,0.04899619999923743,0.049332299997331575,0.09947939999983646,0.09980710002128035,0.29965239999000914
RSVPLG03,km,20251120-123001,1.0.2,20251113-095759,750,Experiment,Both,1,Automatic,main,99,20251120-123953,local,global,750,H,S,A,A,A-H.png,S-A.png,hH,sS,mask-3.png,mask-1.png,h,1,0.6344150000077207,s,1,0.0959001999872271,0.04851530000451021,0.048597500019241124,0.09869470002013259,0.09860250001656823,0.7501189000031445
RSVPLG03,km,20251120-123001,1.0.2,20251113-095759,750,Experiment,Both,1,Automatic,main,100,20251120-123958,global,local,750,S,S,A,A,S-A.png,A-S.png,sS,sS,mask-4.png,mask-1.png,s,1,0.8601120000239462,h,0,0.09679579999647103,0.05172250000759959,0.048732399998698384,0.09912880000774749,0.09946590001345612,0.7507497000042349
