exp,exp_initials,runtime,ver,modtime,sub,blocktype,targets,cuetype,mode,trialtype,trial,trialtime,t1_level,t2_level,t2_lag,t1,t2,distractor1,distractor2,stimfile1,stimfile2,t1_corr,t2_corr,maskfile1,maskfile2,t1_resp,t1_acc,t1_rt,t2_resp,t2_acc,t2_rt,t1_dur,t2_dur,t1mask_soa,t2mask_soa,t1t2_soa
RSVPLG03,,20251118-091314,1.0.2,20251105-084826,744,Introduction,T1,1,Automatic,main,1,20251118-091802,global,local,750,S,S,A,A,S-A.png,A-S.png,sS,sS,mask-1.png,mask-1.png,h,0,3.029621699999552,none,-5,0,0.09131280000292463,0.09747879999849829,0.19386970000050496,0.19934959999955026,0.7413341000028595
RSVPLG03,,20251118-091314,1.0.2,20251105-084826,744,Introduction,T1,1,Automatic,main,2,20251118-091809,global,global,750,H,H,E,A,H-E.png,H-A.png,hH,hH,mask-4.png,mask-2.png,h,1,2.456970800001727,none,-5,0,0.0981446000005235,0.094774299999699,0.19996530000207713,0.19774529999995138,0.7485584000023664
RSVPLG03,,20251118-091314,1.0.2,20251105-084826,744,Introduction,T1,1,Automatic,main,3,20251118-091816,global,local,750,S,H,E,E,S-E.png,E-H.png,sS,hH,mask-2.png,mask-3.png,s,1,1.8407934000024397,none,-5,0,0.09757180000087828,0.09697330000199145,0.19864769999912824,0.19844870000088122,0.7470223999989685
RSVPLG03,,20251118-091314,1.0.2,20251105-084826,744,Introduction,T1,1,Automatic,main,4,20251118-091822,local,global,750,S,S,A,E,A-S.png,S-E.png,sS,sS,mask-4.png,mask-3.png,s,1,1.9810795999983384,none,-5,0,0.0963527999992948,0.09832399999868358,0.19923389999894425,0.19923519999792916,0.7468484999990324
RSVPLG03,,20251118-091314,1.0.2,20251105-084826,744,Introduction,T1,1,Automatic,main,5,20251118-091828,local,global,750,S,H,E,E,E-S.png,H-E.png,sS,hH,mask-4.png,mask-3.png,s,1,1.7280335999967065,none,-5,0,0.09739540000009583,0.09746649999942747,0.19953180000084103,0.1984904999990249,0.7474273000007088
RSVPLG03,,20251118-091314,1.0.2,20251105-084826,744,Introduction,T1,1,Automatic,main,6,20251118-091834,global,global,750,S,H,A,E,S-A.png,H-E.png,sS,hH,mask-1.png,mask-3.png,s,1,3.033779000001232,none,-5,0,0.09566089999862015,0.09663650000220514,0.19785229999979492,0.2006323000023258,0.7452555999989272
RSVPLG03,,20251118-091314,1.0.2,20251105-084826,744,Introduction,T1,1,Automatic,main,7,20251118-091841,local,global,750,S,S,E,E,E-S.png,S-E.png,sS,sS,mask-4.png,mask-2.png,h,0,1.6181985000002896,none,-5,0,0.09720240000024205,0.09856310000031954,0.20028910000110045,0.1995228000014322,0.7469282999991265
RSVPLG03,,20251118-091314,1.0.2,20251105-084826,744,Introduction,T1,1,Automatic,main,8,20251118-091847,global,local,750,H,S,A,E,H-A.png,E-S.png,hH,sS,mask-2.png,mask-2.png,h,1,1.0476548000006005,none,-5,0,0.09766339999987395,0.09560179999971297,0.19871290000082809,0.19768910000129836,0.7487559000001056
RSVPLG03,,20251118-091314,1.0.2,20251105-084826,744,Introduction,T1,1,Automatic,main,9,20251118-091852,local,local,750,S,S,E,A,E-S.png,A-S.png,sS,sS,mask-3.png,mask-4.png,s,1,0.7595724999991944,none,-5,0,0.09823080000205664,0.09639789999710047,0.20101870000144118,0.1982873999986623,0.7482172000018181
RSVPLG03,,20251118-091314,1.0.2,20251105-084826,744,Introduction,T1,1,Automatic,main,10,20251118-091857,global,global,750,S,H,E,E,S-E.png,H-E.png,sS,hH,mask-1.png,mask-2.png,s,1,8.165237100001832,none,-5,0,0.09810010000001057,0.09559019999869633,0.19998750000013388,0.19966389999899548,0.7485450999993191
RSVPLG03,,20251118-091314,1.0.2,20251105-084826,744,Introduction,T1,1,Automatic,main,11,20251118-091909,global,global,750,H,H,E,A,H-E.png,H-A.png,hH,hH,mask-3.png,mask-1.png,h,1,0.258200800002669,none,-5,0,0.09757209999952465,0.09642990000065765,0.19967330000145012,0.19932600000174716,0.7474288999983401
RSVPLG03,,20251118-091314,1.0.2,20251105-084826,744,Introduction,T1,1,Automatic,main,12,20251118-091914,local,local,750,S,H,E,E,E-S.png,E-H.png,sS,hH,mask-3.png,mask-1.png,s,1,0.529328099997656,none,-5,0,0.09755120000045281,0.09856439999930444,0.20037020000017947,0.19964619999882416,0.7471572000031301
RSVPLG03,,20251118-091314,1.0.2,20251105-084826,744,Introduction,T1,1,Automatic,main,13,20251118-091918,global,local,750,S,H,A,A,S-A.png,A-H.png,sS,hH,mask-3.png,mask-3.png,s,1,0.5085806999995839,none,-5,0,0.09659549999923911,0.097680599999876,0.19850030000088736,0.19968549999975949,0.7468627000016568
RSVPLG03,,20251118-091314,1.0.2,20251105-084826,744,Introduction,T1,1,Automatic,main,14,20251118-091923,local,local,750,S,H,E,A,E-S.png,A-H.png,sS,hH,mask-2.png,mask-2.png,s,1,0.4261739000030502,none,-5,0,0.09743910000179312,0.0973721000009391,0.19935130000158097,0.19924119999996037,0.7464352999995754
RSVPLG03,,20251118-091314,1.0.2,20251105-084826,744,Introduction,T1,1,Automatic,main,15,20251118-091928,local,global,750,H,H,E,A,E-H.png,H-A.png,hH,hH,mask-4.png,mask-3.png,s,0,0.39887739999903715,none,-5,0,0.09758610000062617,0.09756539999943925,0.1996699000010267,0.19964080000136164,0.748029200000019
RSVPLG03,,20251118-091314,1.0.2,20251105-084826,744,Introduction,T1,1,Automatic,main,16,20251118-091932,local,local,750,S,S,A,E,A-S.png,E-S.png,sS,sS,mask-4.png,mask-4.png,s,1,0.3991313000005903,none,-5,0,0.09559880000233534,0.09654550000050222,0.19766450000315672,0.1986819000012474,0.7466629000009561
RSVPLG03,md,20251118-091253,1.0.2,20251105-084826,744,Practice,T1,1,Automatic,main,1,20251118-092007,global,global,750,H,S,A,A,H-A.png,S-A.png,hH,sS,mask-1.png,mask-4.png,h,1,0.49198099999921396,none,-5,0,0.046158099998137914,0.045734499999525724,0.0998818999978539,0.0999682000001485,0.7513226999981271
RSVPLG03,md,20251118-091253,1.0.2,20251105-084826,744,Practice,T1,1,Automatic,main,2,20251118-092012,global,global,300,S,S,E,E,S-E.png,S-E.png,sS,sS,mask-4.png,mask-3.png,s,1,0.5713408000010531,none,-5,0,0.04773159999967902,0.04673909999837633,0.09990519999701064,0.09993119999853661,0.3006816999986768
RSVPLG03,md,20251118-091253,1.0.2,20251105-084826,744,Practice,T1,1,Automatic,main,3,20251118-092016,global,local,300,S,S,E,A,S-E.png,A-S.png,sS,sS,mask-1.png,mask-2.png,s,1,0.4175443999993149,none,-5,0,0.04702670000187936,0.047822599997743964,0.10031159999925876,0.09997769999972661,0.30015840000123717
RSVPLG03,md,20251118-091253,1.0.2,20251105-084826,744,Practice,T1,1,Automatic,main,4,20251118-092020,local,local,750,S,S,E,A,E-S.png,A-S.png,sS,sS,mask-4.png,mask-3.png,s,1,0.4922597000004316,none,-5,0,0.04675180000049295,0.04775100000188104,0.09995880000133184,0.09825240000282065,0.7499941999994917
RSVPLG03,md,20251118-091253,1.0.2,20251105-084826,744,Practice,T1,1,Automatic,main,5,20251118-092024,local,local,750,S,S,A,E,A-S.png,E-S.png,sS,sS,mask-2.png,mask-1.png,s,1,0.7057519000009052,none,-5,0,0.047713500000099884,0.04771470000196132,0.09996010000031674,0.10093269999924814,0.7496252999990247
RSVPLG03,md,20251118-091253,1.0.2,20251105-084826,744,Practice,T1,1,Automatic,main,6,20251118-092029,global,global,300,S,S,E,A,S-E.png,S-A.png,sS,sS,mask-4.png,mask-2.png,s,1,0.3835462000024563,none,-5,0,0.046714100000826875,0.04780689999824972,0.0999288000020897,0.10102199999892036,0.2990386000019498
RSVPLG03,md,20251118-091253,1.0.2,20251105-084826,744,Practice,T1,1,Automatic,main,7,20251118-092033,global,local,750,S,S,A,A,S-A.png,A-S.png,sS,sS,mask-3.png,mask-3.png,s,1,0.2710441000017454,none,-5,0,0.0475432000021101,0.04769339999984368,0.09956800000145449,0.09990409999954863,0.7497174000018276
RSVPLG03,md,20251118-091253,1.0.2,20251105-084826,744,Practice,T1,1,Automatic,main,8,20251118-092037,local,global,750,H,S,E,E,E-H.png,S-E.png,hH,sS,mask-2.png,mask-4.png,h,1,0.32519569999931264,none,-5,0,0.04655640000055428,0.04751609999948414,0.09957980000035604,0.09952509999857284,0.7502970000023197
RSVPLG03,md,20251118-091253,1.0.2,20251105-084826,744,Practice,T1,1,Automatic,main,9,20251118-092042,local,global,300,S,H,A,E,A-S.png,H-E.png,sS,hH,mask-3.png,mask-1.png,s,1,0.48004690000016126,none,-5,0,0.04667699999845354,0.04770420000204467,0.10006159999829833,0.09991860000081942,0.2997500999990734
RSVPLG03,md,20251118-091253,1.0.2,20251105-084826,744,Practice,T1,1,Automatic,main,10,20251118-092046,local,global,300,S,H,A,E,A-S.png,H-E.png,sS,hH,mask-2.png,mask-3.png,s,1,0.37426699999923585,none,-5,0,0.047737600001710234,0.04874689999996917,0.10193720000097528,0.09994680000090739,0.30060750000120606
RSVPLG03,md,20251118-091253,1.0.2,20251105-084826,744,Practice,T1,1,Automatic,main,11,20251118-092050,local,local,300,S,H,A,A,A-S.png,A-H.png,sS,hH,mask-3.png,mask-3.png,s,1,0.4321888000013132,none,-5,0,0.04763250000178232,0.04875289999836241,0.09999720000269008,0.10015389999898616,0.2986716000013985
RSVPLG03,md,20251118-091253,1.0.2,20251105-084826,744,Practice,T1,1,Automatic,main,12,20251118-092054,global,local,750,S,H,A,E,S-A.png,E-H.png,sS,hH,mask-2.png,mask-3.png,s,1,0.34724350000033155,none,-5,0,0.04773349999959464,0.04779490000146325,0.0989700999998604,0.10006659999999101,0.7503680000008899
RSVPLG03,md,20251118-091253,1.0.2,20251105-084826,744,Practice,T1,1,Automatic,main,13,20251118-092058,global,local,300,H,S,E,A,H-E.png,A-S.png,hH,sS,mask-1.png,mask-4.png,h,1,0.33460120000017923,none,-5,0,0.0477517999970587,0.04783320000206004,0.0999320999981137,0.1011426000004576,0.30095279999659397
RSVPLG03,md,20251118-091253,1.0.2,20251105-084826,744,Practice,T1,1,Automatic,main,14,20251118-092102,local,global,750,H,S,A,A,A-H.png,S-A.png,hH,sS,mask-3.png,mask-4.png,h,1,0.1754010999975435,none,-5,0,0.04769820000001346,0.0477128000020457,0.09986279999793624,0.09989480000149342,0.7498515999977826
RSVPLG03,md,20251118-091253,1.0.2,20251105-084826,744,Practice,T1,1,Automatic,main,15,20251118-092106,global,global,750,S,H,E,A,S-E.png,H-A.png,sS,hH,mask-3.png,mask-1.png,s,1,0.3226260999981605,none,-5,0,0.04754529999991064,0.04754029999821796,0.0995693000004394,0.1006003000002238,0.7495856000023196
RSVPLG03,md,20251118-091253,1.0.2,20251105-084826,744,Practice,T1,1,Automatic,main,16,20251118-092110,local,local,300,S,S,A,A,A-S.png,A-S.png,sS,sS,mask-4.png,mask-4.png,s,1,0.4046702000014193,none,-5,0,0.046731100002944004,0.046513400000549154,0.10085820000313106,0.09952989999874262,0.30114400000093156
RSVPLG03,md,20251118-092227,1.0.2,20251105-084826,744,Practice,Both,1,Automatic,main,1,20251118-092245,local,local,750,S,H,E,E,E-S.png,E-H.png,sS,hH,mask-4.png,mask-1.png,s,1,1.8742827999994915,h,1,0.8104280000006838,0.040115800002240576,0.04581099999995786,0.09187920000113081,0.09978449999834993,0.7414357000016025
RSVPLG03,md,20251118-092227,1.0.2,20251105-084826,744,Practice,Both,1,Automatic,main,2,20251118-092252,global,global,300,S,H,A,A,S-A.png,H-A.png,sS,hH,mask-1.png,mask-1.png,s,1,2.1618409999973665,h,1,0.43235870000353316,0.04749860000083572,0.04773910000221804,0.09875140000076499,0.10067030000209343,0.2985179999996035
RSVPLG03,md,20251118-092227,1.0.2,20251105-084826,744,Practice,Both,1,Automatic,main,3,20251118-092259,global,global,750,S,H,A,E,S-A.png,H-E.png,sS,hH,mask-2.png,mask-2.png,s,1,1.6773628999981156,h,1,0.34246150000035414,0.04847390000213636,0.04650709999987157,0.10142190000260598,0.09886579999874812,0.7494594000017969
RSVPLG03,md,20251118-092227,1.0.2,20251105-084826,744,Practice,Both,1,Automatic,main,4,20251118-092305,local,local,300,H,H,E,A,E-H.png,A-H.png,hH,hH,mask-3.png,mask-2.png,h,1,0.942550100000517,h,1,0.3528303999992204,0.04748960000142688,0.04752329999973881,0.09949469999992289,0.09953429999950458,0.2997417000005953
RSVPLG03,md,20251118-092227,1.0.2,20251105-084826,744,Practice,Both,1,Automatic,main,5,20251118-092310,global,global,300,H,S,A,A,H-A.png,S-A.png,hH,sS,mask-4.png,mask-4.png,h,1,0.8302497000004223,s,1,0.3862650000010035,0.04791070000283071,0.047759200002474245,0.10013590000016848,0.09998740000082762,0.2998160999995889
RSVPLG03,md,20251118-092227,1.0.2,20251105-084826,744,Practice,Both,1,Automatic,main,6,20251118-092315,global,local,750,S,H,E,E,S-E.png,E-H.png,sS,hH,mask-2.png,mask-2.png,s,1,0.6637652999997954,h,1,0.23481709999759914,0.047019099998578895,0.04711710000265157,0.09859850000066217,0.09918910000124015,0.7484489999988
RSVPLG03,md,20251118-092227,1.0.2,20251105-084826,744,Practice,Both,1,Automatic,main,7,20251118-092320,global,local,300,S,H,A,A,S-A.png,A-H.png,sS,hH,mask-2.png,mask-1.png,s,1,0.5774894999995013,h,1,0.28355269999883603,0.0469401000009384,0.0464654999996128,0.09925460000158637,0.09934930000235909,0.29942529999971157
RSVPLG03,md,20251118-092227,1.0.2,20251105-084826,744,Practice,Both,1,Automatic,main,8,20251118-092324,local,global,300,S,S,E,A,E-S.png,S-A.png,sS,sS,mask-4.png,mask-2.png,s,1,0.9683141999994405,h,0,0.2630134999999427,0.04752169999846956,0.04633520000061253,0.09932999999728054,0.09796760000244831,0.3003885999969498
RSVPLG03,md,20251118-092227,1.0.2,20251105-084826,744,Practice,Both,1,Automatic,main,9,20251118-092329,local,global,300,S,H,A,A,A-S.png,H-A.png,sS,hH,mask-4.png,mask-3.png,h,0,0.7385934999983874,s,0,0.28592180000123335,0.0475019000004977,0.04565960000036284,0.09960560000035912,0.09925050000310875,0.299851599997055
RSVPLG03,md,20251118-092227,1.0.2,20251105-084826,744,Practice,Both,1,Automatic,main,10,20251118-092334,global,local,750,H,S,A,E,H-A.png,E-S.png,hH,sS,mask-3.png,mask-1.png,h,1,0.47456460000103107,s,1,0.2333400999996229,0.046561300001485506,0.04752359999838518,0.09959410000010394,0.10068970000065747,0.7470523000010871
RSVPLG03,md,20251118-092227,1.0.2,20251105-084826,744,Practice,Both,1,Automatic,main,11,20251118-092338,local,global,750,H,S,A,E,A-H.png,S-E.png,hH,sS,mask-2.png,mask-4.png,s,0,0.887276400000701,s,1,0.13942839999799617,0.047660299998824485,0.047657799997978145,0.1008533999993233,0.09983329999886337,0.7478755000011006
RSVPLG03,md,20251118-092227,1.0.2,20251105-084826,744,Practice,Both,1,Automatic,main,12,20251118-092344,local,global,750,S,S,A,E,A-S.png,S-E.png,sS,sS,mask-1.png,mask-3.png,h,0,0.779996299999766,s,1,0.19773269999859622,0.0456795999998576,0.048204899998381734,0.09876799999983632,0.10141939999812166,0.7452087000019674
RSVPLG03,md,20251118-092227,1.0.2,20251105-084826,744,Practice,Both,1,Automatic,main,13,20251118-092349,local,local,300,S,S,A,E,A-S.png,E-S.png,sS,sS,mask-4.png,mask-4.png,h,0,0.6620067000003473,h,0,0.2841085000000021,0.045698199999606004,0.04761489999873447,0.09797380000236444,0.09993570000006002,0.29770880000069155
RSVPLG03,md,20251118-092227,1.0.2,20251105-084826,744,Practice,Both,1,Automatic,main,14,20251118-092353,local,local,750,S,H,A,A,A-S.png,A-H.png,sS,hH,mask-4.png,mask-4.png,s,1,0.5599651000011363,h,1,0.18531639999855543,0.04870210000080988,0.0487040000007255,0.09991140000056475,0.10136449999845354,0.7477040000012494
RSVPLG03,md,20251118-092227,1.0.2,20251105-084826,744,Practice,Both,1,Automatic,main,15,20251118-092358,global,local,300,H,H,A,A,H-A.png,A-H.png,hH,hH,mask-2.png,mask-3.png,h,1,0.629260500001692,h,1,0.18423379999876488,0.04570229999808362,0.04669319999811705,0.09931979999964824,0.0999402999987069,0.29803610000089975
RSVPLG03,md,20251118-092227,1.0.2,20251105-084826,744,Practice,Both,1,Automatic,main,16,20251118-092402,global,global,750,H,S,E,A,H-E.png,S-A.png,hH,sS,mask-4.png,mask-3.png,h,1,0.41485280000051716,s,1,0.17288380000172765,0.04742889999761246,0.048596100001304876,0.10056479999911971,0.10058660000140662,0.7473347999984981
RSVPLG03,md,20251118-092441,1.0.2,20251105-084826,744,Practice,Both,1,Automatic,main,1,20251118-092456,local,global,300,H,S,A,A,A-H.png,S-A.png,hH,sS,mask-4.png,mask-1.png,h,1,0.7536392999973032,h,0,0.14425420000043232,0.04007110000020475,0.04725779999716906,0.0942367000025115,0.09865050000007614,0.29386150000209454
RSVPLG03,md,20251118-092441,1.0.2,20251105-084826,744,Practice,Both,1,Automatic,main,2,20251118-092500,local,global,750,H,H,A,A,A-H.png,H-A.png,hH,hH,mask-4.png,mask-2.png,h,1,0.7636858000005304,h,1,0.12119679999887012,0.04766139999992447,0.04668820000006235,0.10083859999940614,0.09987529999852995,0.750577599999815
RSVPLG03,md,20251118-092441,1.0.2,20251105-084826,744,Practice,Both,1,Automatic,main,3,20251118-092505,global,global,300,H,S,E,E,H-E.png,S-E.png,hH,sS,mask-1.png,mask-2.png,h,1,0.4646620999992592,s,1,0.12789210000119056,0.04698439999992843,0.04640619999918272,0.1002623999993375,0.09877419999975245,0.29975349999949685
RSVPLG03,md,20251118-092441,1.0.2,20251105-084826,744,Practice,Both,1,Automatic,main,4,20251118-092509,local,global,300,S,S,A,E,A-S.png,S-E.png,sS,sS,mask-2.png,mask-3.png,s,1,0.565401899999415,h,0,0.1462150000006659,0.04557350000322913,0.045765300001221476,0.09896740000112914,0.10003750000032596,0.2994104999997944
RSVPLG03,md,20251118-092441,1.0.2,20251105-084826,744,Practice,Both,1,Automatic,main,5,20251118-092514,global,local,750,H,S,A,A,H-A.png,A-S.png,hH,sS,mask-2.png,mask-3.png,h,1,0.6856958999997005,s,1,0.140305900000385,0.04550980000203708,0.047529200001008576,0.0985212000014144,0.10060860000157845,0.7483033999997133
RSVPLG03,md,20251118-092441,1.0.2,20251105-084826,744,Practice,Both,1,Automatic,main,6,20251118-092519,local,local,750,S,S,E,A,E-S.png,A-S.png,sS,sS,mask-2.png,mask-4.png,s,1,0.5351249999985157,s,1,0.10880720000204747,0.04737179999938235,0.0465409999997064,0.10032219999993686,0.0995809999985795,0.7491050999997242
RSVPLG03,md,20251118-092441,1.0.2,20251105-084826,744,Practice,Both,1,Automatic,main,7,20251118-092524,local,global,750,S,S,A,A,A-S.png,S-A.png,sS,sS,mask-3.png,mask-1.png,s,1,0.8179316000023391,s,1,0.06831590000001597,0.047316599997429876,0.04869950000284007,0.09951029999865568,0.09928600000057486,0.7479007999972964
RSVPLG03,md,20251118-092441,1.0.2,20251105-084826,744,Practice,Both,1,Automatic,main,8,20251118-092529,local,local,750,H,H,A,E,A-H.png,E-H.png,hH,hH,mask-4.png,mask-4.png,h,1,0.33098550000067917,h,1,0.15914800000246032,0.048838400001841364,0.04908179999983986,0.10004939999998896,0.09931689999939408,0.7496547000009741
RSVPLG03,md,20251118-092441,1.0.2,20251105-084826,744,Practice,Both,1,Automatic,main,9,20251118-092533,local,local,300,H,S,A,E,A-H.png,E-S.png,hH,sS,mask-4.png,mask-2.png,h,1,0.525961899998947,s,1,0.2757248999987496,0.04749140000058105,0.047531899999739835,0.10049390000131098,0.10053400000106194,0.2997343000024557
RSVPLG03,md,20251118-092441,1.0.2,20251105-084826,744,Practice,Both,1,Automatic,main,10,20251118-092538,global,local,300,H,H,A,A,H-A.png,A-H.png,hH,hH,mask-2.png,mask-3.png,h,1,0.5029257999995025,s,0,0.15512809999927413,0.04673030000049039,0.04668640000090818,0.09992090000014286,0.09987379999802215,0.29945990000123857
RSVPLG03,md,20251118-092441,1.0.2,20251105-084826,744,Practice,Both,1,Automatic,main,11,20251118-092542,global,global,750,H,S,A,E,H-A.png,S-E.png,hH,sS,mask-1.png,mask-2.png,h,1,0.3953709000015806,s,1,0.08314579999932903,0.04667179999887594,0.04769569999916712,0.10005339999770513,0.1009011999994982,0.7492625999984739
RSVPLG03,md,20251118-092441,1.0.2,20251105-084826,744,Practice,Both,1,Automatic,main,12,20251118-092547,global,local,300,H,S,A,E,H-A.png,E-S.png,hH,sS,mask-2.png,mask-3.png,h,1,0.3927858999995806,s,1,0.058569499997247476,0.0485220999980811,0.047607000000425614,0.10141260000091279,0.10153050000008079,0.2995564999982889
RSVPLG03,md,20251118-092441,1.0.2,20251105-084826,744,Practice,Both,1,Automatic,main,13,20251118-092551,local,local,300,H,S,E,A,E-H.png,A-S.png,hH,sS,mask-3.png,mask-4.png,h,1,0.45961499999975786,s,1,0.17374429999836138,0.04768980000153533,0.04747299999871757,0.09973750000062864,0.09971479999876465,0.29832840000017313
RSVPLG03,md,20251118-092441,1.0.2,20251105-084826,744,Practice,Both,1,Automatic,main,14,20251118-092555,global,local,750,H,S,E,A,H-E.png,A-S.png,hH,sS,mask-1.png,mask-4.png,h,1,0.625798200002464,s,1,0.12493890000041574,0.046660799998790026,0.048543000000790926,0.0998652000016591,0.09955260000060662,0.7492878000011842
RSVPLG03,md,20251118-092441,1.0.2,20251105-084826,744,Practice,Both,1,Automatic,main,15,20251118-092600,global,global,750,S,H,A,A,S-A.png,H-A.png,sS,hH,mask-3.png,mask-4.png,s,1,0.37272179999854416,h,1,0.15754740000193124,0.04538269999829936,0.047514900001260685,0.09946080000008806,0.10052540000106092,0.7476480000004813
RSVPLG03,md,20251118-092441,1.0.2,20251105-084826,744,Practice,Both,1,Automatic,main,16,20251118-092605,global,global,300,H,H,E,A,H-E.png,H-A.png,hH,hH,mask-1.png,mask-2.png,h,1,0.5089077999982692,h,1,0.08417470000131289,0.047531600001093466,0.047585000000253785,0.10179450000214274,0.09983410000131698,0.3003294000009191
RSVPLG03,md,20251118-092729,1.0.2,20251105-084826,744,Experiment,Both,1,Automatic,warmup,1,20251118-092751,local,local,300,H,S,E,E,E-H.png,E-S.png,hH,sS,mask-1.png,mask-3.png,h,1,0.5229165000018838,h,0,0.24604490000274382,0.04624109999713255,0.04856579999977839,0.09942690000025323,0.09958330000154092,0.2975412999985565
RSVPLG03,md,20251118-092729,1.0.2,20251105-084826,744,Experiment,Both,1,Automatic,warmup,2,20251118-092756,global,local,750,H,S,E,E,H-E.png,E-S.png,hH,sS,mask-3.png,mask-2.png,h,1,0.49195940000208793,s,1,0.09739129999798024,0.04756029999771272,0.047515000002022134,0.10067619999972521,0.0996104000005289,0.7477163999974437
RSVPLG03,md,20251118-092729,1.0.2,20251105-084826,744,Experiment,Both,1,Automatic,warmup,3,20251118-092801,local,local,750,S,H,A,E,A-S.png,E-H.png,sS,hH,mask-2.png,mask-3.png,s,1,0.4137007999997877,h,1,0.48588569999992615,0.04644879999978002,0.04675370000040857,0.0996082000019669,0.09804309999890393,0.7478245000020252
RSVPLG03,md,20251118-092729,1.0.2,20251105-084826,744,Experiment,Both,1,Automatic,warmup,4,20251118-092806,local,global,750,S,S,E,E,E-S.png,S-E.png,sS,sS,mask-4.png,mask-2.png,s,1,0.5161226999989594,s,1,0.10408889999962412,0.04751430000032997,0.047510399999737274,0.10052830000131507,0.09959940000044298,0.7471756000013556
RSVPLG03,md,20251118-092729,1.0.2,20251105-084826,744,Experiment,Both,1,Automatic,main,5,20251118-092810,local,local,300,H,H,A,A,A-H.png,A-H.png,hH,hH,mask-3.png,mask-2.png,h,1,0.45980580000104965,h,1,0.23427100000117207,0.046038999997108476,0.04652409999835072,0.09925109999676351,0.09969880000062403,0.29889969999931054
RSVPLG03,md,20251118-092729,1.0.2,20251105-084826,744,Experiment,Both,1,Automatic,main,6,20251118-092815,local,global,750,S,H,E,A,E-S.png,H-A.png,sS,hH,mask-2.png,mask-4.png,s,1,0.5357165000023087,h,1,0.8884236000012606,0.04756249999991269,0.046677900001668604,0.09965999999985797,0.098667000002024,0.7480371999990894
RSVPLG03,md,20251118-092729,1.0.2,20251105-084826,744,Experiment,Both,1,Automatic,main,7,20251118-092820,local,local,300,S,H,E,E,E-S.png,E-H.png,sS,hH,mask-4.png,mask-1.png,s,1,0.3755426999996416,h,1,0.2084967000009783,0.045903899997938424,0.048489999997400446,0.09896339999977499,0.0997003999982553,0.29793440000139526
RSVPLG03,md,20251118-092729,1.0.2,20251105-084826,744,Experiment,Both,1,Automatic,main,8,20251118-092825,local,local,750,H,H,A,E,A-H.png,E-H.png,hH,hH,mask-2.png,mask-4.png,h,1,0.3761071999979322,h,1,0.20041829999900074,0.04863320000004023,0.047704099997645244,0.10073579999880167,0.09978770000088844,0.7486312000000908
RSVPLG03,md,20251118-092729,1.0.2,20251105-084826,744,Experiment,Both,1,Automatic,main,9,20251118-092829,local,local,300,S,H,A,A,A-S.png,A-H.png,sS,hH,mask-4.png,mask-4.png,s,1,0.5227677000002586,h,1,0.13714649999747053,0.04752060000100755,0.04887320000125328,0.09876970000186702,0.1000620999984676,0.2975765000010142
RSVPLG03,md,20251118-092729,1.0.2,20251105-084826,744,Experiment,Both,1,Automatic,main,10,20251118-092834,local,global,750,S,S,A,E,A-S.png,S-E.png,sS,sS,mask-4.png,mask-1.png,s,1,0.6050859999995737,h,0,0.5657548000017414,0.04769479999959003,0.04888299999947776,0.09988220000013825,0.10111160000087693,0.7459837999995216
RSVPLG03,md,20251118-092729,1.0.2,20251105-084826,744,Experiment,Both,1,Automatic,main,11,20251118-092839,local,local,300,S,H,E,A,E-S.png,A-H.png,sS,hH,mask-2.png,mask-3.png,s,1,0.5602217000014207,s,0,0.3107773999981873,0.04664349999802653,0.046960700001363875,0.10000600000057602,0.09816390000196407,0.29964059999838355
RSVPLG03,md,20251118-092729,1.0.2,20251105-084826,744,Experiment,Both,1,Automatic,main,12,20251118-092844,local,global,300,S,S,A,A,A-S.png,S-A.png,sS,sS,mask-4.png,mask-3.png,s,1,0.6699766000019736,s,1,0.3604453000007197,0.04566239999985555,0.04750450000210549,0.0987131000001682,0.09961770000154502,0.29717819999859785
RSVPLG03,md,20251118-092729,1.0.2,20251105-084826,744,Experiment,Both,1,Automatic,main,13,20251118-092848,global,global,750,H,H,E,A,H-E.png,H-A.png,hH,hH,mask-4.png,mask-2.png,h,1,0.36661480000111624,h,1,0.11840549999760697,0.046699399998033186,0.04659850000098231,0.09788039999693865,0.09960579999824404,0.7460353999995277
RSVPLG03,md,20251118-092729,1.0.2,20251105-084826,744,Experiment,Both,1,Automatic,main,14,20251118-092853,local,global,300,H,H,E,A,E-H.png,H-A.png,hH,hH,mask-3.png,mask-1.png,h,1,0.6441395000001648,h,1,0.1655066999992414,0.046820699997624615,0.04603810000116937,0.10001850000116974,0.09825940000155242,0.29981209999823477
RSVPLG03,md,20251118-092729,1.0.2,20251105-084826,744,Experiment,Both,1,Automatic,main,15,20251118-092857,local,global,300,H,H,E,E,E-H.png,H-E.png,hH,hH,mask-3.png,mask-2.png,h,1,0.9232601999974577,h,1,0.1173244000019622,0.0467638000009174,0.04875779999929364,0.09998540000015055,0.09879449999789358,0.29837530000077095
RSVPLG03,md,20251118-092729,1.0.2,20251105-084826,744,Experiment,Both,1,Automatic,main,16,20251118-092902,global,local,750,S,H,E,E,S-E.png,E-H.png,sS,hH,mask-3.png,mask-4.png,s,1,0.5417952999996487,h,1,0.7271333999997296,0.04555689999688184,0.04673209999964456,0.09877199999755248,0.09794300000066869,0.7468926999972609
RSVPLG03,md,20251118-092729,1.0.2,20251105-084826,744,Experiment,Both,1,Automatic,main,17,20251118-092907,global,local,300,H,H,E,E,H-E.png,E-H.png,hH,hH,mask-1.png,mask-3.png,h,1,0.6570982000012009,h,1,0.9734797999990406,0.047693900000012945,0.047674500001448905,0.09977640000215615,0.09890010000162874,0.2993975999997929
RSVPLG03,md,20251118-092729,1.0.2,20251105-084826,744,Experiment,Both,1,Automatic,main,18,20251118-092913,local,global,300,H,H,A,E,A-H.png,H-E.png,hH,hH,mask-4.png,mask-4.png,h,1,0.5560698000008415,h,1,0.2035483999970893,0.047704000000521773,0.047667499999079155,0.09988289999819244,0.09986619999835966,0.2984842000005301
RSVPLG03,md,20251118-092729,1.0.2,20251105-084826,744,Experiment,Both,1,Automatic,main,19,20251118-092917,global,global,300,S,H,A,A,S-A.png,H-A.png,sS,hH,mask-2.png,mask-1.png,s,1,0.42649059999894234,h,1,0.21095079999940936,0.04753730000084033,0.04783859999952256,0.10059249999903841,0.10000659999786876,0.29838480000034906
RSVPLG03,md,20251118-092729,1.0.2,20251105-084826,744,Experiment,Both,1,Automatic,main,20,20251118-092921,global,global,750,H,H,E,A,H-E.png,H-A.png,hH,hH,mask-1.png,mask-2.png,h,1,0.38328099999853293,h,1,0.10218089999762014,0.04767119999814895,0.04773070000010193,0.09984709999844199,0.09998439999981201,0.7475310000008903
RSVPLG03,md,20251118-092729,1.0.2,20251105-084826,744,Experiment,Both,1,Automatic,main,21,20251118-092926,global,local,750,S,S,A,A,S-A.png,A-S.png,sS,sS,mask-2.png,mask-1.png,s,1,0.5661001999978907,s,1,0.8880092999970657,0.04770690000077593,0.047473400001763366,0.09990670000115642,0.09969460000138497,0.7464050999988103
RSVPLG03,md,20251118-092729,1.0.2,20251105-084826,744,Experiment,Both,1,Automatic,main,22,20251118-092932,global,global,750,S,S,A,E,S-A.png,S-E.png,sS,sS,mask-3.png,mask-1.png,s,1,0.35068630000023404,s,1,0.10829279999961727,0.04758100000253762,0.04854900000282214,0.09973140000147396,0.09996550000141724,0.7468967999993765
RSVPLG03,md,20251118-092729,1.0.2,20251105-084826,744,Experiment,Both,1,Automatic,main,23,20251118-092936,local,global,750,H,H,A,E,A-H.png,H-E.png,hH,hH,mask-4.png,mask-1.png,h,1,0.6064050000022689,h,1,0.2525702999992063,0.04551750000246102,0.04752809999990859,0.09831350000240491,0.09874309999941033,0.7461782000027597
RSVPLG03,md,20251118-092729,1.0.2,20251105-084826,744,Experiment,Both,1,Automatic,main,24,20251118-092941,global,global,300,S,H,E,E,S-E.png,H-E.png,sS,hH,mask-4.png,mask-2.png,s,1,0.347620000000461,h,1,0.25838239999939105,0.047514800000499235,0.04858260000037262,0.1005518000019947,0.10060449999946286,0.2991829000020516
RSVPLG03,md,20251118-092729,1.0.2,20251105-084826,744,Experiment,Both,1,Automatic,main,25,20251118-092946,local,local,750,H,S,A,A,A-H.png,A-S.png,hH,sS,mask-3.png,mask-4.png,h,1,0.4899998000000778,s,1,0.1710475999971095,0.04874800000106916,0.04745850000108476,0.10030180000103428,0.10006050000083633,0.7468155999995361
RSVPLG03,md,20251118-092729,1.0.2,20251105-084826,744,Experiment,Both,1,Automatic,main,26,20251118-092954,local,local,300,S,H,E,E,E-S.png,E-H.png,sS,hH,mask-3.png,mask-1.png,s,1,0.39654479999808245,h,1,0.11607530000037514,0.04680450000159908,0.04593799999929615,0.09900439999910304,0.09805249999772059,0.29861560000063037
RSVPLG03,md,20251118-092729,1.0.2,20251105-084826,744,Experiment,Both,1,Automatic,main,27,20251118-092959,local,global,750,S,S,E,A,E-S.png,S-A.png,sS,sS,mask-4.png,mask-3.png,s,1,0.5221769000017957,s,1,0.3567006000012043,0.04769750000195927,0.04766050000034738,0.10089890000017476,0.09968060000028345,0.7477132000021811
RSVPLG03,md,20251118-092729,1.0.2,20251105-084826,744,Experiment,Both,1,Automatic,main,28,20251118-093004,global,global,300,H,S,E,A,H-E.png,S-A.png,hH,sS,mask-3.png,mask-1.png,h,1,0.40251960000023246,s,1,0.2276538999976765,0.04872900000191294,0.045702699997491436,0.1006292999991274,0.09822609999901033,0.30010440000114613
RSVPLG03,md,20251118-092729,1.0.2,20251105-084826,744,Experiment,Both,1,Automatic,main,29,20251118-093008,local,global,750,S,H,A,A,A-S.png,H-A.png,sS,hH,mask-4.png,mask-1.png,s,1,0.5446201000013389,s,0,0.1072308000002522,0.04567030000180239,0.048671399999875575,0.0986497000012605,0.10087590000330238,0.7456287999993947
RSVPLG03,md,20251118-092729,1.0.2,20251105-084826,744,Experiment,Both,1,Automatic,main,30,20251118-093013,global,local,300,H,H,E,A,H-E.png,A-H.png,hH,hH,mask-4.png,mask-3.png,h,1,0.4943724000004295,h,1,0.16317569999955595,0.047483600003033644,0.04848560000027646,0.10164630000144825,0.09997060000023339,0.2983440000025439
RSVPLG03,md,20251118-092729,1.0.2,20251105-084826,744,Experiment,Both,1,Automatic,main,31,20251118-093017,global,local,300,S,S,E,E,S-E.png,E-S.png,sS,sS,mask-2.png,mask-3.png,s,1,0.5813153999988572,s,1,0.12867689999984577,0.04738129999896046,0.0469693000013649,0.09886919999917154,0.09883730000001378,0.2990706999989925
RSVPLG03,md,20251118-092729,1.0.2,20251105-084826,744,Experiment,Both,1,Automatic,main,32,20251118-093021,global,local,300,H,H,E,A,H-E.png,A-H.png,hH,hH,mask-3.png,mask-1.png,h,1,0.4764403000008315,s,0,0.35854829999880167,0.046655900001496775,0.047505000002274755,0.09966910000002827,0.10069579999981215,0.2973856999997224
RSVPLG03,md,20251118-092729,1.0.2,20251105-084826,744,Experiment,Both,1,Automatic,main,33,20251118-093026,global,local,750,H,H,A,A,H-A.png,A-H.png,hH,hH,mask-3.png,mask-3.png,h,1,1.041611799999373,h,1,0.12078209999890532,0.04853989999901387,0.04769760000272072,0.0997490999980073,0.09943010000279173,0.7477378999974462
RSVPLG03,md,20251118-092729,1.0.2,20251105-084826,744,Experiment,Both,1,Automatic,main,34,20251118-093031,local,local,300,S,S,A,A,A-S.png,A-S.png,sS,sS,mask-1.png,mask-4.png,h,0,0.5785204999992857,s,1,0.14039360000242596,0.048729300000559306,0.04670770000302582,0.10096590000102879,0.09982210000089253,0.2992837999991025
RSVPLG03,md,20251118-092729,1.0.2,20251105-084826,744,Experiment,Both,1,Automatic,main,35,20251118-093036,local,local,750,S,H,E,A,E-S.png,A-H.png,sS,hH,mask-4.png,mask-2.png,s,1,0.4878769999995711,h,1,0.12332800000149291,0.04570370000146795,0.04767789999823435,0.0990090000013879,0.09993290000056732,0.7463242000012542
RSVPLG03,md,20251118-092729,1.0.2,20251105-084826,744,Experiment,Both,1,Automatic,main,36,20251118-093040,global,global,750,S,H,A,A,S-A.png,H-A.png,sS,hH,mask-2.png,mask-1.png,s,1,0.4367988999983936,h,1,0.16400119999889284,0.04668110000056913,0.046554500000638654,0.099151599999459,0.0996569000017189,0.7483312000003934
RSVPLG03,md,20251118-092729,1.0.2,20251105-084826,744,Experiment,Both,1,Automatic,main,37,20251118-093045,local,global,300,H,H,E,A,E-H.png,H-A.png,hH,hH,mask-3.png,mask-1.png,h,1,0.5253475999998045,h,1,0.166567500000383,0.04831900000135647,0.04623649999848567,0.10037689999808208,0.09746610000001965,0.30004399999961606
RSVPLG03,md,20251118-092729,1.0.2,20251105-084826,744,Experiment,Both,1,Automatic,main,38,20251118-093049,local,local,300,S,S,A,E,A-S.png,E-S.png,sS,sS,mask-4.png,mask-2.png,s,1,0.4675911000013002,s,1,0.12439530000119703,0.04814950000218232,0.0475363000005018,0.10120970000207308,0.09953940000195871,0.2992954000001191
RSVPLG03,md,20251118-092729,1.0.2,20251105-084826,744,Experiment,Both,1,Automatic,main,39,20251118-093054,global,global,750,S,H,E,A,S-E.png,H-A.png,sS,hH,mask-1.png,mask-3.png,s,1,0.43604310000227997,h,1,0.21106689999942319,0.04699199999959092,0.04686849999779952,0.09931319999668631,0.09991819999777363,0.7464633999989019
RSVPLG03,md,20251118-092729,1.0.2,20251105-084826,744,Experiment,Both,1,Automatic,main,40,20251118-093058,global,global,300,H,H,E,E,H-E.png,H-E.png,hH,hH,mask-4.png,mask-1.png,h,1,0.4034014999997453,h,1,0.10481590000199503,0.047520000000076834,0.046467699998174794,0.10053189999962342,0.09916189999785274,0.29995250000138185
RSVPLG03,md,20251118-092729,1.0.2,20251105-084826,744,Experiment,Both,1,Automatic,main,41,20251118-093102,global,local,750,H,H,E,A,H-E.png,A-H.png,hH,hH,mask-1.png,mask-3.png,h,1,0.4490394999993441,h,1,0.17803129999811063,0.047735200001625344,0.04694599999857019,0.09794930000134627,0.10000329999820678,0.7468254000013985
RSVPLG03,md,20251118-092729,1.0.2,20251105-084826,744,Experiment,Both,1,Automatic,main,42,20251118-093107,global,global,300,S,S,A,A,S-A.png,S-A.png,sS,sS,mask-4.png,mask-3.png,s,1,0.4150982999999542,s,1,0.10404050000215648,0.045688499998504994,0.047694199998659315,0.09889969999858295,0.09966609999901266,0.29848649999985355
RSVPLG03,md,20251118-092729,1.0.2,20251105-084826,744,Experiment,Both,1,Automatic,main,43,20251118-093111,global,local,750,S,H,E,E,S-E.png,E-H.png,sS,hH,mask-2.png,mask-3.png,s,1,0.4512998999998672,s,0,0.09127409999928204,0.04766440000094008,0.047858899997663684,0.09984250000343309,0.10011309999754303,0.7478954000034719
RSVPLG03,md,20251118-092729,1.0.2,20251105-084826,744,Experiment,Both,1,Automatic,main,44,20251118-093116,local,local,300,H,H,A,E,A-H.png,E-H.png,hH,hH,mask-2.png,mask-2.png,s,0,1.054393300000811,s,0,0.13977300000260584,0.04769699999815202,0.047804900001210626,0.09987859999819193,0.09899460000087856,0.29890379999778816
RSVPLG03,md,20251118-092729,1.0.2,20251105-084826,744,Experiment,Both,1,Automatic,main,45,20251118-093121,global,local,750,H,S,A,E,H-A.png,E-S.png,hH,sS,mask-2.png,mask-2.png,h,1,0.5461083000009239,s,1,0.17916970000078436,0.047480799999902956,0.04753849999906379,0.09951700000237906,0.09970309999698657,0.7469287000021723
RSVPLG03,md,20251118-092729,1.0.2,20251105-084826,744,Experiment,Both,1,Automatic,main,46,20251118-093126,local,local,750,S,H,A,E,A-S.png,E-H.png,sS,hH,mask-3.png,mask-4.png,s,1,1.068811299999652,s,0,0.16593279999869992,0.045683699998335214,0.04765380000026198,0.09770949999801815,0.09984070000064094,0.7451168999978108
RSVPLG03,md,20251118-092729,1.0.2,20251105-084826,744,Experiment,Both,1,Automatic,main,47,20251118-093131,local,global,300,S,H,A,A,A-S.png,H-A.png,sS,hH,mask-1.png,mask-4.png,s,1,0.5280673000015668,h,1,0.021797600002173567,0.0476195999981428,0.04792209999868646,0.09973109999918961,0.0998345000007248,0.298084199999721
RSVPLG03,md,20251118-092729,1.0.2,20251105-084826,744,Experiment,Both,1,Automatic,main,48,20251118-093135,global,local,750,H,S,E,E,H-E.png,E-S.png,hH,sS,mask-1.png,mask-2.png,h,1,0.5645413999991433,s,1,0.0567715999968641,0.04570439999952214,0.047756899999512825,0.09891570000036154,0.09988850000081584,0.74621549999938
RSVPLG03,md,20251118-092729,1.0.2,20251105-084826,744,Experiment,Both,1,Automatic,main,49,20251118-093140,global,global,750,S,H,E,A,S-E.png,H-A.png,sS,hH,mask-1.png,mask-2.png,s,1,0.30083689999810304,h,1,0.06945590000032098,0.046646599999803584,0.045668700000533136,0.09987330000149086,0.10009830000126385,0.747389000000112
RSVPLG03,md,20251118-092729,1.0.2,20251105-084826,744,Experiment,Both,1,Automatic,main,50,20251118-093144,local,global,300,H,H,A,E,A-H.png,H-E.png,hH,hH,mask-2.png,mask-1.png,h,1,0.5759384000011778,s,0,0.5040110999980243,0.04788440000265837,0.046546199999284,0.1000999000025331,0.09961509999993723,0.29983500000162167
RSVPLG03,md,20251118-092729,1.0.2,20251105-084826,744,Experiment,Both,1,Automatic,main,51,20251118-093159,local,global,300,S,S,E,A,E-S.png,S-A.png,sS,sS,mask-2.png,mask-4.png,s,1,0.5266838999996253,s,1,0.07136869999885675,0.04771769999933895,0.047275699998863274,0.10073729999930947,0.09827080000104615,0.30014569999912055
RSVPLG03,md,20251118-092729,1.0.2,20251105-084826,744,Experiment,Both,1,Automatic,main,52,20251118-093203,global,global,750,S,H,E,A,S-E.png,H-A.png,sS,hH,mask-4.png,mask-2.png,s,1,0.3054448000002594,h,1,0.052198800000041956,0.046150399997713976,0.047497700001258636,0.10038259999782895,0.0988948000012897,0.7472964999979013
RSVPLG03,md,20251118-092729,1.0.2,20251105-084826,744,Experiment,Both,1,Automatic,main,53,20251118-093208,global,global,300,S,H,A,A,S-A.png,H-A.png,sS,hH,mask-3.png,mask-3.png,s,1,0.314687000001868,h,1,0.01856940000288887,0.04750960000092164,0.04770939999798429,0.09972960000231978,0.09909999999945285,0.29943700000148965
RSVPLG03,md,20251118-092729,1.0.2,20251105-084826,744,Experiment,Both,1,Automatic,main,54,20251118-093212,global,local,750,S,S,A,E,S-A.png,E-S.png,sS,sS,mask-3.png,mask-3.png,s,1,0.41723970000020927,s,1,0.10770569999658619,0.047241699998266995,0.04666219999853638,0.1002799000016239,0.09873349999907077,0.7477531000004092
RSVPLG03,md,20251118-092729,1.0.2,20251105-084826,744,Experiment,Both,1,Automatic,main,55,20251118-093216,local,local,300,H,H,A,E,A-H.png,E-H.png,hH,hH,mask-4.png,mask-2.png,h,1,0.34561179999946035,h,1,0.08832400000028429,0.047121600000537,0.04719140000088373,0.10011270000177319,0.09913550000055693,0.29915600000094855
RSVPLG03,md,20251118-092729,1.0.2,20251105-084826,744,Experiment,Both,1,Automatic,main,56,20251118-093220,local,global,750,S,H,E,E,E-S.png,H-E.png,sS,hH,mask-3.png,mask-4.png,s,1,0.5331241000021691,s,0,0.10936009999932139,0.04652139999961946,0.04806089999692631,0.09968389999994542,0.10028400000010151,0.7474967000016477
RSVPLG03,md,20251118-092729,1.0.2,20251105-084826,744,Experiment,Both,1,Automatic,main,57,20251118-093225,local,global,750,S,S,E,A,E-S.png,S-A.png,sS,sS,mask-3.png,mask-2.png,s,1,0.5591377000018838,h,0,0.05883979999998701,0.04751589999796124,0.04750720000083675,0.10051999999996042,0.1005245999986073,0.7477882999992289
RSVPLG03,md,20251118-092729,1.0.2,20251105-084826,744,Experiment,Both,1,Automatic,main,58,20251118-093230,local,global,750,S,S,A,E,A-S.png,S-E.png,sS,sS,mask-1.png,mask-1.png,s,1,0.4998396999981196,s,1,0.05429490000096848,0.04667709999921499,0.04780659999960335,0.09936069999821484,0.10003769999821088,0.7471093999993172
RSVPLG03,md,20251118-092729,1.0.2,20251105-084826,744,Experiment,Both,1,Automatic,main,59,20251118-093234,global,global,300,H,S,A,A,H-A.png,S-A.png,hH,sS,mask-3.png,mask-4.png,h,1,0.5398337000005995,s,1,0.2034630999987712,0.046491600001900224,0.04652379999970435,0.0994250000003376,0.09958670000196435,0.29886289999922155
RSVPLG03,md,20251118-092729,1.0.2,20251105-084826,744,Experiment,Both,1,Automatic,main,60,20251118-093239,local,global,300,H,S,E,E,E-H.png,S-E.png,hH,sS,mask-3.png,mask-2.png,h,1,0.48069960000066203,s,1,0.13911039999948116,0.04656080000131624,0.04812119999769493,0.09853930000099353,0.10071879999668454,0.29750780000176746
RSVPLG03,md,20251118-092729,1.0.2,20251105-084826,744,Experiment,Both,1,Automatic,main,61,20251118-093243,global,global,300,H,S,E,E,H-E.png,S-E.png,hH,sS,mask-3.png,mask-2.png,h,1,0.3389243000019633,s,1,0.19715849999920465,0.04652610000266577,0.04697170000144979,0.09967090000282042,0.10000209999998333,0.2979797000007238
RSVPLG03,md,20251118-092729,1.0.2,20251105-084826,744,Experiment,Both,1,Automatic,main,62,20251118-093247,local,local,300,S,S,E,A,E-S.png,A-S.png,sS,sS,mask-4.png,mask-2.png,s,1,0.3664859999989858,s,1,0.09041099999740254,0.04752039999948465,0.046515699999872595,0.10056139999869629,0.09952609999891138,0.2991770999979053
RSVPLG03,md,20251118-092729,1.0.2,20251105-084826,744,Experiment,Both,1,Automatic,main,63,20251118-093252,global,global,750,H,H,A,A,H-A.png,H-A.png,hH,hH,mask-3.png,mask-2.png,h,1,0.3496259999992617,h,1,0.08615300000019488,0.047313899998698616,0.04771279999840772,0.09924379999938537,0.09997129999828758,0.7459123000007821
RSVPLG03,md,20251118-092729,1.0.2,20251105-084826,744,Experiment,Both,1,Automatic,main,64,20251118-093256,local,global,300,S,S,A,E,A-S.png,S-E.png,sS,sS,mask-4.png,mask-3.png,s,1,0.44799849999981234,s,1,0.07446479999998701,0.04571179999766173,0.04869630000030156,0.0987539999987348,0.09998769999947399,0.29739169999811566
RSVPLG03,md,20251118-092729,1.0.2,20251105-084826,744,Experiment,Both,1,Automatic,main,65,20251118-093300,global,global,750,S,H,A,A,S-A.png,H-A.png,sS,hH,mask-4.png,mask-4.png,s,1,0.593107600001531,h,1,0.07600449999881675,0.0477656000002753,0.04768889999832027,0.10000940000099945,0.09988679999878514,0.7475463000009768
RSVPLG03,md,20251118-092729,1.0.2,20251105-084826,744,Experiment,Both,1,Automatic,main,66,20251118-093305,global,local,750,S,S,E,A,S-E.png,A-S.png,sS,sS,mask-3.png,mask-4.png,s,1,0.3786878999999317,s,1,0.07501120000233641,0.04774089999773423,0.046745700001338264,0.10096259999772883,0.09897170000112965,0.7475041999969108
RSVPLG03,md,20251118-092729,1.0.2,20251105-084826,744,Experiment,Both,1,Automatic,main,67,20251118-093310,local,local,750,H,H,A,E,A-H.png,E-H.png,hH,hH,mask-3.png,mask-2.png,h,1,0.3481802999995125,h,1,0.07020140000167885,0.047362299999804236,0.04569619999892893,0.09856120000040391,0.09890400000222144,0.747670199998538
RSVPLG03,md,20251118-092729,1.0.2,20251105-084826,744,Experiment,Both,1,Automatic,main,68,20251118-093314,global,local,300,H,S,A,A,H-A.png,A-S.png,hH,sS,mask-4.png,mask-4.png,h,1,0.4672035999974469,s,1,0.10895690000324976,0.04571699999723933,0.046643800000310875,0.09983139999894775,0.09791150000091875,0.29851269999926444
RSVPLG03,md,20251118-092729,1.0.2,20251105-084826,744,Experiment,Both,1,Automatic,main,69,20251118-093318,global,local,750,H,H,A,E,H-A.png,E-H.png,hH,hH,mask-3.png,mask-1.png,h,1,0.44664859999829787,s,0,0.058666000000812346,0.0476611000012781,0.04654329999902984,0.09983890000148676,0.09925499999735621,0.7478660000015225
RSVPLG03,md,20251118-092729,1.0.2,20251105-084826,744,Experiment,Both,1,Automatic,main,70,20251118-093323,global,global,300,H,S,A,E,H-A.png,S-E.png,hH,sS,mask-3.png,mask-2.png,h,1,0.45012970000243513,s,1,0.14867840000079013,0.04646830000274349,0.047355099999549566,0.09951510000246344,0.09959370000069612,0.29859330000181217
RSVPLG03,md,20251118-092729,1.0.2,20251105-084826,744,Experiment,Both,1,Automatic,main,71,20251118-093327,local,local,750,S,S,E,E,E-S.png,E-S.png,sS,sS,mask-1.png,mask-3.png,s,1,0.33679489999849466,s,1,0.10596630000145524,0.04769300000043586,0.04868390000046929,0.09912489999987883,0.10007709999990766,0.7466082999999344
RSVPLG03,md,20251118-092729,1.0.2,20251105-084826,744,Experiment,Both,1,Automatic,main,72,20251118-093332,global,local,750,S,H,E,A,S-E.png,A-H.png,sS,hH,mask-1.png,mask-4.png,s,1,0.5672009999980219,s,0,0.07651279999845428,0.047716099998069694,0.048647399999026675,0.09994619999997667,0.09969319999800064,0.7466163999997661
RSVPLG03,md,20251118-092729,1.0.2,20251105-084826,744,Experiment,Both,1,Automatic,main,73,20251118-093337,global,global,300,S,S,A,E,S-A.png,S-E.png,sS,sS,mask-4.png,mask-4.png,s,1,0.36835570000039297,s,1,0.07562239999970188,0.047568599999067374,0.04555830000026617,0.09959259999959613,0.09855210000023362,0.2999192999996012
RSVPLG03,md,20251118-092729,1.0.2,20251105-084826,744,Experiment,Both,1,Automatic,main,74,20251118-093341,local,local,750,S,S,A,A,A-S.png,A-S.png,sS,sS,mask-1.png,mask-4.png,s,1,0.2901243999986036,s,1,0.07766800000172225,0.04579590000139433,0.04774530000213417,0.09894590000112657,0.09993310000209021,0.7454899000003934
RSVPLG03,md,20251118-092729,1.0.2,20251105-084826,744,Experiment,Both,1,Automatic,main,75,20251118-093345,global,local,300,S,S,A,A,S-A.png,A-S.png,sS,sS,mask-3.png,mask-4.png,s,1,0.33880109999881824,h,0,0.3937103999996907,0.047461699999985285,0.047539000002871035,0.0996631999987585,0.10056980000081239,0.2990810999981477
RSVPLG03,md,20251118-092729,1.0.2,20251105-084826,744,Experiment,Both,1,Automatic,main,76,20251118-093352,local,global,750,H,S,A,A,A-H.png,S-A.png,hH,sS,mask-2.png,mask-3.png,h,1,0.5985838999986299,s,1,0.06868269999904442,0.046537300000636606,0.04751329999999143,0.0985541000009107,0.10051949999979115,0.7462900999998965
RSVPLG03,md,20251118-092729,1.0.2,20251105-084826,744,Experiment,Both,1,Automatic,main,77,20251118-093356,global,local,300,S,S,A,A,S-A.png,A-S.png,sS,sS,mask-1.png,mask-4.png,s,1,0.4000146999969729,h,0,0.0786513000020932,0.046542699998099124,0.047529200001008576,0.09897499999715365,0.09863670000049751,0.2993890999969153
RSVPLG03,md,20251118-092729,1.0.2,20251105-084826,744,Experiment,Both,1,Automatic,main,78,20251118-093401,local,local,300,S,H,E,A,E-S.png,A-H.png,sS,hH,mask-1.png,mask-3.png,s,1,0.45902899999782676,s,0,0.0751827999993111,0.047561100000166334,0.047527299997454975,0.09858119999989867,0.10051059999750578,0.2978244000005361
RSVPLG03,md,20251118-092729,1.0.2,20251105-084826,744,Experiment,Both,1,Automatic,main,79,20251118-093405,local,local,750,H,S,A,A,A-H.png,A-S.png,hH,sS,mask-4.png,mask-4.png,h,1,0.4409930000001623,s,1,0.10031349999917438,0.047480799999902956,0.04655070000080741,0.09953410000161966,0.09940859999915119,0.7480345000003581
RSVPLG03,md,20251118-092729,1.0.2,20251105-084826,744,Experiment,Both,1,Automatic,main,80,20251118-093409,global,local,750,S,S,A,E,S-A.png,E-S.png,sS,sS,mask-3.png,mask-3.png,s,1,0.40638160000162316,s,1,0.10694499999954132,0.04742610000175773,0.04535499999838066,0.09934160000193515,0.0983118000003742,0.7476380000007339
RSVPLG03,md,20251118-092729,1.0.2,20251105-084826,744,Experiment,Both,1,Automatic,main,81,20251118-093414,local,global,750,S,H,E,E,E-S.png,H-E.png,sS,hH,mask-1.png,mask-4.png,s,1,0.39973770000142395,h,1,0.03649859999859473,0.047534299999824725,0.04844709999815677,0.09965069999816478,0.10043410000071162,0.7464266999995743
RSVPLG03,md,20251118-092729,1.0.2,20251105-084826,744,Experiment,Both,1,Automatic,main,82,20251118-093418,global,global,750,H,H,E,E,H-E.png,H-E.png,hH,hH,mask-3.png,mask-1.png,h,1,0.3242011000002094,h,1,0.07644069999878411,0.04729159999988042,0.047565799999574665,0.10043560000121943,0.09967189999952097,0.7468317000020761
RSVPLG03,md,20251118-092729,1.0.2,20251105-084826,744,Experiment,Both,1,Automatic,main,83,20251118-093423,local,local,750,S,H,E,A,E-S.png,A-H.png,sS,hH,mask-4.png,mask-2.png,s,1,0.4247646000003442,h,1,0.07275690000096802,0.0465511999973387,0.04654809999919962,0.09858339999846066,0.09848249999777181,0.7475861999992048
RSVPLG03,md,20251118-092729,1.0.2,20251105-084826,744,Experiment,Both,1,Automatic,main,84,20251118-093428,local,local,750,S,H,A,E,A-S.png,E-H.png,sS,hH,mask-3.png,mask-4.png,s,1,0.4666661999981443,h,1,0.02763319999939995,0.04752800000278512,0.047543900000164285,0.10157430000253953,0.09948790000271401,0.7482479999998759
RSVPLG03,md,20251118-092729,1.0.2,20251105-084826,744,Experiment,Both,1,Automatic,main,85,20251118-093432,local,local,750,S,S,A,A,A-S.png,A-S.png,sS,sS,mask-4.png,mask-2.png,s,1,0.34817739999925834,s,1,0.061748500000248896,0.04754459999821847,0.047599999998055864,0.09956320000128471,0.09971690000020317,0.7476677000013296
RSVPLG03,md,20251118-092729,1.0.2,20251105-084826,744,Experiment,Both,1,Automatic,main,86,20251118-093437,local,global,300,S,H,E,A,E-S.png,H-A.png,sS,hH,mask-1.png,mask-3.png,s,1,0.4491450999994413,s,0,0.0580991000024369,0.04672949999803677,0.04751319999922998,0.0996564999986731,0.10052799999903073,0.29798160000063945
RSVPLG03,md,20251118-092729,1.0.2,20251105-084826,744,Experiment,Both,1,Automatic,main,87,20251118-093441,local,global,750,S,H,A,E,A-S.png,H-E.png,sS,hH,mask-4.png,mask-1.png,s,1,0.4677463000007265,s,0,0.10906999999861,0.04643270000087796,0.04767419999916456,0.09953580000001239,0.09976549999919371,0.7467443000023195
RSVPLG03,md,20251118-092729,1.0.2,20251105-084826,744,Experiment,Both,1,Automatic,main,88,20251118-093445,global,local,300,S,S,E,A,S-E.png,A-S.png,sS,sS,mask-4.png,mask-4.png,s,1,0.4525699000005261,h,0,0.5821361000016623,0.047497999999905005,0.04674840000006952,0.0994682999989891,0.09994130000268342,0.29897759999948903
RSVPLG03,md,20251118-092729,1.0.2,20251105-084826,744,Experiment,Both,1,Automatic,main,89,20251118-093450,global,global,300,H,H,A,E,H-A.png,H-E.png,hH,hH,mask-4.png,mask-2.png,h,1,0.3792915999983961,h,1,0.06219269999928656,0.04811949999930221,0.045763099999021506,0.10016120000000228,0.09987840000030701,0.2998683000005258
RSVPLG03,md,20251118-092729,1.0.2,20251105-084826,744,Experiment,Both,1,Automatic,main,90,20251118-093454,local,local,300,S,H,A,E,A-S.png,E-H.png,sS,hH,mask-1.png,mask-1.png,s,1,0.49237340000036056,h,1,0.0225659000025189,0.04752359999838518,0.04499950000172248,0.09958519999781856,0.09827290000248468,0.29975419999755104
RSVPLG03,md,20251118-092729,1.0.2,20251105-084826,744,Experiment,Both,1,Automatic,main,91,20251118-093458,local,local,750,S,S,E,A,E-S.png,A-S.png,sS,sS,mask-3.png,mask-1.png,s,1,0.368575200001942,s,1,0.05230410000149277,0.045690899998589884,0.0477539000021352,0.09893089999968652,0.1008233000029577,0.7459420999985014
RSVPLG03,md,20251118-092729,1.0.2,20251105-084826,744,Experiment,Both,1,Automatic,main,92,20251118-093503,global,local,300,S,H,A,A,S-A.png,A-H.png,sS,hH,mask-2.png,mask-2.png,s,1,0.4155912999995053,s,0,0.3941807000010158,0.04771650000111549,0.04699110000001383,0.09953500000119675,0.09943919999932405,0.29820069999914267
RSVPLG03,md,20251118-092729,1.0.2,20251105-084826,744,Experiment,Both,1,Automatic,main,93,20251118-093507,local,global,750,S,H,E,A,E-S.png,H-A.png,sS,hH,mask-4.png,mask-3.png,s,1,0.45020230000227457,h,1,0.02124320000075386,0.04766449999806355,0.04671109999981127,0.09992209999836632,0.09999599999719067,0.7481345000014699
RSVPLG03,md,20251118-092729,1.0.2,20251105-084826,744,Experiment,Both,1,Automatic,main,94,20251118-093512,global,global,750,H,H,A,A,H-A.png,H-A.png,hH,hH,mask-3.png,mask-1.png,h,1,0.2985776999994414,h,1,0.06864110000242363,0.04651210000156425,0.04844039999807137,0.09849269999904209,0.10048729999834904,0.7461665000009816
RSVPLG03,md,20251118-092729,1.0.2,20251105-084826,744,Experiment,Both,1,Automatic,main,95,20251118-093516,global,local,300,H,H,E,A,H-E.png,A-H.png,hH,hH,mask-1.png,mask-1.png,h,1,0.4191270000010263,h,1,0.12415099999998347,0.04758380000203033,0.04753310000160127,0.09966450000138138,0.09866890000193962,0.30008359999919776
RSVPLG03,md,20251118-092729,1.0.2,20251105-084826,744,Experiment,Both,1,Automatic,main,96,20251118-093521,local,global,300,S,H,A,E,A-S.png,H-E.png,sS,hH,mask-2.png,mask-4.png,s,1,0.46527119999882416,h,1,0.08724319999964791,0.04755949999889708,0.04670880000048783,0.10059800000090036,0.09878729999763891,0.299191800000699
RSVPLG03,md,20251118-092729,1.0.2,20251105-084826,744,Experiment,Both,1,Automatic,main,97,20251118-093525,global,local,300,H,H,E,A,H-E.png,A-H.png,hH,hH,mask-2.png,mask-2.png,h,1,0.6706966999990982,h,1,0.16611349999948288,0.04759840000042459,0.04753250000067055,0.09966530000019702,0.09956619999866234,0.29906530000153
RSVPLG03,md,20251118-092729,1.0.2,20251105-084826,744,Experiment,Both,1,Automatic,main,98,20251118-093529,global,global,300,S,H,A,E,S-A.png,H-E.png,sS,hH,mask-1.png,mask-4.png,s,1,0.37754359999962617,h,1,0.07555309999952442,0.04754010000033304,0.04675420000057784,0.09867880000092555,0.10077259999889066,0.29801270000098157
RSVPLG03,md,20251118-092729,1.0.2,20251105-084826,744,Experiment,Both,1,Automatic,main,99,20251118-093534,global,global,750,S,H,E,E,S-E.png,H-E.png,sS,hH,mask-1.png,mask-2.png,s,1,0.39649789999748464,h,1,0.06653929999811226,0.04750979999880656,0.04846059999908903,0.10053880000123172,0.09966250000070431,0.7460006000001158
RSVPLG03,md,20251118-092729,1.0.2,20251105-084826,744,Experiment,Both,1,Automatic,main,100,20251118-093538,global,local,300,H,S,E,E,H-E.png,E-S.png,hH,sS,mask-1.png,mask-3.png,h,1,0.40262109999821405,s,1,0.10641700000269338,0.04668570000285399,0.047686500001873355,0.09989240000140853,0.09988840000005439,0.29810770000040065
RSVPLG03,md,20251118-093628,1.0.2,20251105-084826,744,Experiment,Both,1,Automatic,warmup,1,20251118-093650,local,global,750,S,H,A,E,A-S.png,H-E.png,sS,hH,mask-3.png,mask-1.png,s,1,0.4555949000023247,s,0,0.05228559999886784,0.039245300002221484,0.048809400002937764,0.09114100000078906,0.10004800000024261,0.7426837999992131
RSVPLG03,md,20251118-093628,1.0.2,20251105-084826,744,Experiment,Both,1,Automatic,warmup,2,20251118-093654,local,global,300,S,S,E,A,E-S.png,S-A.png,sS,sS,mask-1.png,mask-4.png,s,1,0.8747612999977719,h,0,0.09205899999869871,0.047737299999425886,0.04769749999832129,0.09994459999870742,0.0998966000006476,0.2996544999987236
RSVPLG03,md,20251118-093628,1.0.2,20251105-084826,744,Experiment,Both,1,Automatic,warmup,3,20251118-093659,local,local,300,S,H,A,E,A-S.png,E-H.png,sS,hH,mask-3.png,mask-2.png,s,1,0.3852489000018977,h,1,0.07009449999895878,0.04778190000070026,0.047062300000106916,0.10004460000345716,0.10036350000154926,0.2997436000005109
RSVPLG03,md,20251118-093628,1.0.2,20251105-084826,744,Experiment,Both,1,Automatic,warmup,4,20251118-093703,global,global,300,S,S,A,A,S-A.png,S-A.png,sS,sS,mask-1.png,mask-4.png,s,1,0.317827999999281,s,1,0.038173000000824686,0.04768250000051921,0.046709300000657095,0.099915200000396,0.09993709999980638,0.30039210000177263
RSVPLG03,md,20251118-093628,1.0.2,20251105-084826,744,Experiment,Both,1,Automatic,main,5,20251118-093707,global,local,750,H,S,E,A,H-E.png,A-S.png,hH,sS,mask-1.png,mask-2.png,h,1,0.9834832000015012,s,1,0.423930000000837,0.04866599999877508,0.04765150000093854,0.10005789999922854,0.09983110000030138,0.7515889999995125
RSVPLG03,md,20251118-093628,1.0.2,20251105-084826,744,Experiment,Both,1,Automatic,main,6,20251118-093713,global,local,300,S,S,E,E,S-E.png,E-S.png,sS,sS,mask-2.png,mask-2.png,s,1,0.3109539999968547,s,1,0.03902630000084173,0.047722899998916546,0.04767899999933434,0.0991080999992846,0.09987729999920703,0.29979090000051656
RSVPLG03,md,20251118-093628,1.0.2,20251105-084826,744,Experiment,Both,1,Automatic,main,7,20251118-093717,local,global,750,S,H,A,E,A-S.png,H-E.png,sS,hH,mask-4.png,mask-1.png,s,1,0.616404500000499,s,0,0.4400034999998752,0.04760829999941052,0.04752540000117733,0.10047689999919385,0.10089750000042841,0.7498528999967675
RSVPLG03,md,20251118-093628,1.0.2,20251105-084826,744,Experiment,Both,1,Automatic,main,8,20251118-093722,local,global,300,S,H,E,A,E-S.png,H-A.png,sS,hH,mask-1.png,mask-1.png,s,1,0.489480200001708,s,0,0.093032900000253,0.048403100001451094,0.0475323999999091,0.10042640000028769,0.09987879999971483,0.30070749999867985
RSVPLG03,md,20251118-093628,1.0.2,20251105-084826,744,Experiment,Both,1,Automatic,main,9,20251118-093726,global,global,300,H,S,A,E,H-A.png,S-E.png,hH,sS,mask-1.png,mask-1.png,h,1,0.35939289999805624,s,1,0.15528120000089984,0.04754269999830285,0.04753530000016326,0.09889929999917513,0.10056870000335039,0.2999753999974928
RSVPLG03,md,20251118-093628,1.0.2,20251105-084826,744,Experiment,Both,1,Automatic,main,10,20251118-093730,global,local,300,S,S,A,A,S-A.png,A-S.png,sS,sS,mask-3.png,mask-4.png,s,1,0.2983343000014429,s,1,0.08638300000166055,0.04748430000108783,0.048780599998281104,0.10070760000235168,0.1008174999988114,0.2995187000014994
RSVPLG03,md,20251118-093628,1.0.2,20251105-084826,744,Experiment,Both,1,Automatic,main,11,20251118-093734,local,local,300,S,S,E,E,E-S.png,E-S.png,sS,sS,mask-3.png,mask-2.png,s,1,0.2838134999983595,s,1,0.08644619999904535,0.04775510000035865,0.04858379999859608,0.10008469999957015,0.10082279999915045,0.29981129999941913
RSVPLG03,md,20251118-093628,1.0.2,20251105-084826,744,Experiment,Both,1,Automatic,main,12,20251118-093738,global,local,300,H,S,A,A,H-A.png,A-S.png,hH,sS,mask-4.png,mask-1.png,h,1,0.42734289999862085,s,1,0.14130870000008144,0.04671310000048834,0.047751899997820146,0.09998049999921932,0.10090019999915967,0.2996509000004153
RSVPLG03,md,20251118-093628,1.0.2,20251105-084826,744,Experiment,Both,1,Automatic,main,13,20251118-093743,global,global,750,S,H,A,A,S-A.png,H-A.png,sS,hH,mask-3.png,mask-2.png,s,1,0.28263239999796497,h,1,0.1534919000005175,0.047664900001109345,0.046559099999285536,0.09926389999964158,0.0985088999987056,0.7513881000013498
RSVPLG03,md,20251118-093628,1.0.2,20251105-084826,744,Experiment,Both,1,Automatic,main,14,20251118-093747,global,local,300,S,H,A,E,S-A.png,E-H.png,sS,hH,mask-4.png,mask-4.png,s,1,0.36916480000218144,s,0,0.08477399999901536,0.047074599999177735,0.048071300003357464,0.10054809999928693,0.10033040000053006,0.2999960999986797
RSVPLG03,md,20251118-093628,1.0.2,20251105-084826,744,Experiment,Both,1,Automatic,main,15,20251118-093751,global,global,300,S,H,A,A,S-A.png,H-A.png,sS,hH,mask-4.png,mask-2.png,s,1,0.3160368999997445,h,1,0.05110910000075819,0.047669999999925494,0.04768809999950463,0.09985799999776646,0.09987729999920703,0.30033739999998943
RSVPLG03,md,20251118-093628,1.0.2,20251105-084826,744,Experiment,Both,1,Automatic,main,16,20251118-093755,global,local,300,S,S,E,E,S-E.png,E-S.png,sS,sS,mask-1.png,mask-2.png,s,1,0.4192820999996911,s,1,0.07279700000071898,0.04772640000010142,0.047737600001710234,0.09993830000166781,0.09993240000039805,0.29996849999952246
RSVPLG03,md,20251118-093628,1.0.2,20251105-084826,744,Experiment,Both,1,Automatic,main,17,20251118-093759,local,global,300,S,S,E,E,E-S.png,S-E.png,sS,sS,mask-1.png,mask-4.png,s,1,0.4450759999999718,h,0,0.07130010000037146,0.0475153000006685,0.04681600000185426,0.10052409999843803,0.09971940000104951,0.29953919999752543
RSVPLG03,md,20251118-093628,1.0.2,20251105-084826,744,Experiment,Both,1,Automatic,main,18,20251118-093804,global,global,750,S,H,A,A,S-A.png,H-A.png,sS,hH,mask-1.png,mask-1.png,s,1,0.35285360000125365,h,1,0.10789560000193887,0.04760760000135633,0.048661500000889646,0.09969869999986258,0.09979139999995823,0.7505065000004834
RSVPLG03,md,20251118-093628,1.0.2,20251105-084826,744,Experiment,Both,1,Automatic,main,19,20251118-093808,local,local,300,S,H,A,E,A-S.png,E-H.png,sS,hH,mask-1.png,mask-3.png,s,1,0.3805945999993128,h,1,0.05657680000149412,0.047503399997367524,0.04653939999843715,0.09951749999891035,0.09855559999778052,0.3008131999995385
RSVPLG03,md,20251118-093628,1.0.2,20251105-084826,744,Experiment,Both,1,Automatic,main,20,20251118-093812,global,global,300,S,S,A,A,S-A.png,S-A.png,sS,sS,mask-1.png,mask-1.png,s,1,0.4390419000010297,s,1,0.06666979999863543,0.0487037999992026,0.047635799997806316,0.10092209999857005,0.09946929999932763,0.30153380000047036
RSVPLG03,md,20251118-093628,1.0.2,20251105-084826,744,Experiment,Both,1,Automatic,main,21,20251118-093817,global,local,300,S,H,A,A,S-A.png,A-H.png,sS,hH,mask-2.png,mask-4.png,s,1,0.3633847000019159,h,1,0.15900160000092,0.04768479999984265,0.04756930000075954,0.10122840000258293,0.09956650000094669,0.30028870000023744
RSVPLG03,md,20251118-093628,1.0.2,20251105-084826,744,Experiment,Both,1,Automatic,main,22,20251118-093821,global,local,300,H,S,E,E,H-E.png,E-S.png,hH,sS,mask-1.png,mask-2.png,h,1,0.3786509000019578,s,1,0.05265339999823482,0.04767809999975725,0.046875,0.09908770000038203,0.09907170000224141,0.3006643000007898
RSVPLG03,md,20251118-093628,1.0.2,20251105-084826,744,Experiment,Both,1,Automatic,main,23,20251118-093825,global,global,750,H,H,E,A,H-E.png,H-A.png,hH,hH,mask-1.png,mask-2.png,h,1,0.332339000000502,h,1,0.058088100002350984,0.04693709999992279,0.04853130000265082,0.10018130000025849,0.10187700000096811,0.7496835999991163
RSVPLG03,md,20251118-093628,1.0.2,20251105-084826,744,Experiment,Both,1,Automatic,main,24,20251118-093829,global,local,300,H,H,A,E,H-A.png,E-H.png,hH,hH,mask-2.png,mask-3.png,h,1,0.47328230000130134,s,0,0.8225649000014528,0.047718199999508215,0.047759400000359165,0.09980390000055195,0.1002135000017006,0.30040899999949033
RSVPLG03,md,20251118-093628,1.0.2,20251105-084826,744,Experiment,Both,1,Automatic,main,25,20251118-093834,local,global,300,S,S,E,A,E-S.png,S-A.png,sS,sS,mask-3.png,mask-2.png,s,1,1.0502444000012474,h,0,0.32663440000033006,0.048707800000556745,0.04672289999871282,0.10055239999928745,0.09998949999862816,0.3012506000013673
RSVPLG03,md,20251118-093628,1.0.2,20251105-084826,744,Experiment,Both,1,Automatic,main,26,20251118-093845,local,global,300,H,S,E,E,E-H.png,S-E.png,hH,sS,mask-4.png,mask-1.png,h,1,0.37361559999772,h,0,0.08059309999953257,0.047694100001535844,0.04517940000005183,0.09889450000264333,0.09930009999879985,0.3006096000026446
RSVPLG03,md,20251118-093628,1.0.2,20251105-084826,744,Experiment,Both,1,Automatic,main,27,20251118-093849,local,global,750,S,S,A,E,A-S.png,S-E.png,sS,sS,mask-4.png,mask-2.png,s,1,0.587279800001852,s,1,0.2210802000008698,0.047507999999652384,0.047517599999991944,0.09952440000051865,0.09859370000049239,0.7514910999998392
RSVPLG03,md,20251118-093628,1.0.2,20251105-084826,744,Experiment,Both,1,Automatic,main,28,20251118-093854,global,global,300,S,H,E,A,S-E.png,H-A.png,sS,hH,mask-3.png,mask-4.png,s,1,0.3346273999995901,h,1,0.17188380000152392,0.0475192000012612,0.04751169999872218,0.09951420000288635,0.09959859999798937,0.3004147000028752
RSVPLG03,md,20251118-093628,1.0.2,20251105-084826,744,Experiment,Both,1,Automatic,main,29,20251118-093858,global,global,750,S,S,A,A,S-A.png,S-A.png,sS,sS,mask-1.png,mask-2.png,h,0,2.0585404000012204,h,0,0.12242440000045463,0.04752509999889298,0.04755429999931948,0.09978319999936502,0.10149129999990691,0.7499611999992339
RSVPLG03,md,20251118-093628,1.0.2,20251105-084826,744,Experiment,Both,1,Automatic,main,30,20251118-093905,local,local,750,H,H,A,E,A-H.png,E-H.png,hH,hH,mask-1.png,mask-2.png,h,1,0.2612879000007524,h,1,0.08784889999878942,0.047558499998558545,0.04750929999863729,0.09965839999858872,0.1005773999968369,0.7516684000001987
RSVPLG03,md,20251118-093628,1.0.2,20251105-084826,744,Experiment,Both,1,Automatic,main,31,20251118-093909,global,local,300,H,H,A,E,H-A.png,E-H.png,hH,hH,mask-1.png,mask-2.png,h,1,0.504187999998976,s,0,0.04119600000194623,0.047492800000327406,0.0465360000016517,0.10047889999987092,0.09956439999950817,0.30098069999803556
RSVPLG03,md,20251118-093628,1.0.2,20251105-084826,744,Experiment,Both,1,Automatic,main,32,20251118-093914,global,global,750,S,S,A,A,S-A.png,S-A.png,sS,sS,mask-1.png,mask-1.png,s,1,0.32580500000040047,s,1,0.08587030000126106,0.04682739999771002,0.04753479999999399,0.10010159999728785,0.09834929999851738,0.7514965999980632
RSVPLG03,md,20251118-093628,1.0.2,20251105-084826,744,Experiment,Both,1,Automatic,main,33,20251118-093918,local,local,300,S,H,E,A,E-S.png,A-H.png,sS,hH,mask-2.png,mask-3.png,s,1,0.3497845999991114,h,1,0.027256399996986147,0.047628500000428176,0.04764650000288384,0.09965270000247983,0.10161169999992126,0.30021839999972144
RSVPLG03,md,20251118-093628,1.0.2,20251105-084826,744,Experiment,Both,1,Automatic,main,34,20251118-093922,global,global,300,H,H,E,A,H-E.png,H-A.png,hH,hH,mask-4.png,mask-4.png,h,1,0.39340879999872413,s,0,0.21761809999952675,0.04855739999766229,0.04755499999737367,0.10164519999671029,0.09959170000001905,0.30094180000014603
RSVPLG03,md,20251118-093628,1.0.2,20251105-084826,744,Experiment,Both,1,Automatic,main,35,20251118-093927,global,local,300,H,S,A,E,H-A.png,E-S.png,hH,sS,mask-3.png,mask-2.png,h,1,0.6206000999991375,h,0,0.509390600000188,0.04878710000048159,0.04772589999993215,0.10048280000046361,0.09994670000014594,0.3012367000010272
RSVPLG03,md,20251118-093628,1.0.2,20251105-084826,744,Experiment,Both,1,Automatic,main,36,20251118-093932,local,global,750,S,H,E,A,E-S.png,H-A.png,sS,hH,mask-1.png,mask-4.png,s,1,0.4774805000015476,h,1,0.5061152999987826,0.045712699997238815,0.045961399999214336,0.09851629999684519,0.09924229999887757,0.7504623999993782
RSVPLG03,md,20251118-093628,1.0.2,20251105-084826,744,Experiment,Both,1,Automatic,main,37,20251118-093937,local,global,750,S,H,E,E,E-S.png,H-E.png,sS,hH,mask-2.png,mask-1.png,s,1,0.44077570000081323,s,0,0.38132559999939986,0.048741599999630125,0.047689299997728085,0.10080649999872549,0.09988879999946221,0.7518980000022566
RSVPLG03,md,20251118-093628,1.0.2,20251105-084826,744,Experiment,Both,1,Automatic,main,38,20251118-093942,local,local,300,H,H,E,E,E-H.png,E-H.png,hH,hH,mask-3.png,mask-4.png,h,1,0.34711349999997765,h,1,0.07535940000161645,0.046542500000214204,0.04669049999938579,0.10060819999853265,0.09971710000172607,0.30057379999925615
RSVPLG03,md,20251118-093628,1.0.2,20251105-084826,744,Experiment,Both,1,Automatic,main,39,20251118-093946,global,global,750,S,H,A,E,S-A.png,H-E.png,sS,hH,mask-3.png,mask-1.png,s,1,0.5720570000012231,h,1,0.2358892999982345,0.047667200000432786,0.04768070000136504,0.09985960000267369,0.09988169999996899,0.7519775000000664
RSVPLG03,md,20251118-093628,1.0.2,20251105-084826,744,Experiment,Both,1,Automatic,main,40,20251118-093951,global,local,750,H,H,A,E,H-A.png,E-H.png,hH,hH,mask-3.png,mask-4.png,h,1,0.48307890000069165,s,0,0.13786489999984042,0.04871089999869582,0.0475274000018544,0.10139630000048783,0.10146330000134185,0.7508885999995982
RSVPLG03,md,20251118-093628,1.0.2,20251105-084826,744,Experiment,Both,1,Automatic,main,41,20251118-093956,local,local,750,H,H,E,E,E-H.png,E-H.png,hH,hH,mask-2.png,mask-1.png,h,1,0.2041103999981715,h,1,0.054393200000049546,0.04760360000000219,0.049377500003174646,0.10052499999801512,0.10045570000147563,0.7498519999971904
RSVPLG03,md,20251118-093628,1.0.2,20251105-084826,744,Experiment,Both,1,Automatic,main,42,20251118-094000,global,global,750,H,H,E,A,H-E.png,H-A.png,hH,hH,mask-1.png,mask-1.png,h,1,0.40535910000107833,h,1,0.07668910000211326,0.04773669999849517,0.04851470000357949,0.101832899999863,0.10053460000199266,0.7509827999965637
RSVPLG03,md,20251118-093628,1.0.2,20251105-084826,744,Experiment,Both,1,Automatic,main,43,20251118-094005,global,global,750,S,H,E,A,S-E.png,H-A.png,sS,hH,mask-4.png,mask-2.png,s,1,0.2260972000003676,h,1,0.012777699997968739,0.04840909999984433,0.04749430000083521,0.1002662999999302,0.09933169999931124,0.752342799998587
RSVPLG03,md,20251118-093628,1.0.2,20251105-084826,744,Experiment,Both,1,Automatic,main,44,20251118-094009,global,local,750,H,S,E,E,H-E.png,E-S.png,hH,sS,mask-3.png,mask-2.png,h,1,0.3724324000031629,s,1,0.11960270000054152,0.047718199999508215,0.04769959999975981,0.09890720000112196,0.10191649999978836,0.7497432000018307
RSVPLG03,md,20251118-093628,1.0.2,20251105-084826,744,Experiment,Both,1,Automatic,main,45,20251118-094014,local,global,750,S,S,A,E,A-S.png,S-E.png,sS,sS,mask-1.png,mask-3.png,s,1,0.36950200000137556,s,1,0.09199939999962226,0.04640839999774471,0.047493099998973776,0.09924929999760934,0.1001189999988128,0.7504861999987043
RSVPLG03,md,20251118-093628,1.0.2,20251105-084826,744,Experiment,Both,1,Automatic,main,46,20251118-094018,local,local,300,S,H,E,A,E-S.png,A-H.png,sS,hH,mask-2.png,mask-4.png,s,1,0.4037062999996124,h,1,0.03835860000253888,0.04840920000060578,0.04834399999890593,0.10122409999894444,0.10130099999878439,0.3003874999994878
RSVPLG03,md,20251118-093628,1.0.2,20251105-084826,744,Experiment,Both,1,Automatic,main,47,20251118-094022,global,global,300,S,H,A,A,S-A.png,H-A.png,sS,hH,mask-3.png,mask-2.png,s,1,0.3359786000000895,h,1,0.06316689999948721,0.04702009999891743,0.04658919999928912,0.09932309999931022,0.099656700000196,0.30060909999883734
RSVPLG03,md,20251118-093628,1.0.2,20251105-084826,744,Experiment,Both,1,Automatic,main,48,20251118-094027,global,local,750,S,H,A,E,S-A.png,E-H.png,sS,hH,mask-2.png,mask-3.png,s,1,0.31684129999848665,s,0,0.09072000000014668,0.04762060000211932,0.047689699997135904,0.10070080000150483,0.09989849999692524,0.7502549000018917
RSVPLG03,md,20251118-093628,1.0.2,20251105-084826,744,Experiment,Both,1,Automatic,main,49,20251118-094031,local,local,750,H,S,E,A,E-H.png,A-S.png,hH,sS,mask-4.png,mask-3.png,h,1,0.2554698999992979,s,1,0.07339700000011362,0.04751830000168411,0.0475187999982154,0.09852999999930034,0.10052189999987604,0.7499056000015116
RSVPLG03,md,20251118-093628,1.0.2,20251105-084826,744,Experiment,Both,1,Automatic,main,50,20251118-094036,global,local,300,H,H,A,E,H-A.png,E-H.png,hH,hH,mask-1.png,mask-1.png,h,1,0.4380874999988009,s,0,0.04615610000109882,0.047514899997622706,0.04751820000092266,0.10051929999826825,0.10051849999945262,0.29985189999933937
RSVPLG03,md,20251118-093628,1.0.2,20251105-084826,744,Experiment,Both,1,Automatic,main,51,20251118-094047,local,local,750,S,H,A,A,A-S.png,A-H.png,sS,hH,mask-1.png,mask-3.png,s,1,0.5915362000014284,h,1,0.09297160000278382,0.047536599999148166,0.04842650000136928,0.10058109999954468,0.10125020000123186,0.7503928000005544
RSVPLG03,md,20251118-093628,1.0.2,20251105-084826,744,Experiment,Both,1,Automatic,main,52,20251118-094052,local,local,750,S,H,E,E,E-S.png,E-H.png,sS,hH,mask-2.png,mask-1.png,s,1,0.30630030000247643,h,1,0.023521200000686804,0.04688510000050883,0.04775259999951231,0.10001909999846248,0.10047640000266256,0.7508008999975573
RSVPLG03,md,20251118-093628,1.0.2,20251105-084826,744,Experiment,Both,1,Automatic,main,53,20251118-094057,local,local,300,H,H,E,E,E-H.png,E-H.png,hH,hH,mask-3.png,mask-1.png,h,1,0.30422879999969155,h,1,0.07138679999843589,0.04656020000038552,0.047529700001177844,0.10070860000269022,0.09954260000085924,0.299994400000287
RSVPLG03,md,20251118-093628,1.0.2,20251105-084826,744,Experiment,Both,1,Automatic,main,54,20251118-094101,local,global,300,S,H,A,E,A-S.png,H-E.png,sS,hH,mask-3.png,mask-3.png,s,1,0.284544599999208,s,0,0.055000799999106675,0.04854370000248309,0.04656229999818606,0.1015785000017786,0.099692399999185,0.3020319000024756
RSVPLG03,md,20251118-093628,1.0.2,20251105-084826,744,Experiment,Both,1,Automatic,main,55,20251118-094105,global,global,300,S,S,E,E,S-E.png,S-E.png,sS,sS,mask-3.png,mask-2.png,s,1,0.37227749999874504,s,1,0.07649190000302042,0.047578399997291854,0.04684550000092713,0.09959279999748105,0.09976489999826299,0.299840799998492
RSVPLG03,md,20251118-093628,1.0.2,20251105-084826,744,Experiment,Both,1,Automatic,main,56,20251118-094109,global,global,300,H,H,A,A,H-A.png,H-A.png,hH,hH,mask-1.png,mask-2.png,h,1,0.2671277999979793,h,1,0.09136170000056154,0.04753220000202418,0.04755669999940437,0.09862640000210376,0.10057379999852856,0.29988460000095074
RSVPLG03,md,20251118-093628,1.0.2,20251105-084826,744,Experiment,Both,1,Automatic,main,57,20251118-094113,local,global,750,H,H,A,E,A-H.png,H-E.png,hH,hH,mask-1.png,mask-3.png,h,1,0.35855289999744855,s,0,0.13690929999938817,0.04875660000107018,0.047548900001856964,0.10166670000035083,0.10147440000218921,0.751228799999808
RSVPLG03,md,20251118-093628,1.0.2,20251105-084826,744,Experiment,Both,1,Automatic,main,58,20251118-094118,global,local,750,H,H,E,E,H-E.png,E-H.png,hH,hH,mask-1.png,mask-4.png,h,1,0.5729401999997208,s,0,0.16434429999935674,0.047372000000905246,0.0472105000008014,0.09874959999797284,0.09964330000002519,0.750185099997907
RSVPLG03,md,20251118-093628,1.0.2,20251105-084826,744,Experiment,Both,1,Automatic,main,59,20251118-094123,local,global,750,S,S,E,A,E-S.png,S-A.png,sS,sS,mask-1.png,mask-1.png,s,1,0.485974700000952,h,0,0.012270800001715543,0.04651750000266475,0.048524000001634704,0.09952680000060354,0.09956620000230032,0.7500283000008494
RSVPLG03,md,20251118-093628,1.0.2,20251105-084826,744,Experiment,Both,1,Automatic,main,60,20251118-094127,global,local,750,S,S,E,A,S-E.png,A-S.png,sS,sS,mask-2.png,mask-3.png,s,1,0.6803336999983003,h,0,0.5729214999992109,0.047543700002279365,0.04854490000070655,0.10060420000081649,0.10085220000109985,0.7503450000003795
RSVPLG03,md,20251118-093628,1.0.2,20251105-084826,744,Experiment,Both,1,Automatic,main,61,20251118-094133,local,global,750,S,H,E,E,E-S.png,H-E.png,sS,hH,mask-1.png,mask-3.png,s,1,0.4088685999995505,h,1,0.07841820000248845,0.04867559999911464,0.04772249999950873,0.1008283000010124,0.09991149999768822,0.7518716000013228
RSVPLG03,md,20251118-093628,1.0.2,20251105-084826,744,Experiment,Both,1,Automatic,main,62,20251118-094137,local,global,300,S,S,E,A,E-S.png,S-A.png,sS,sS,mask-2.png,mask-1.png,s,1,0.36181109999961336,h,0,0.9980249000000185,0.04656529999920167,0.047515199999907054,0.09857689999989816,0.1005568000000494,0.29883630000040284
RSVPLG03,md,20251118-093628,1.0.2,20251105-084826,744,Experiment,Both,1,Automatic,main,63,20251118-094143,local,global,300,H,S,A,A,A-H.png,S-A.png,hH,sS,mask-2.png,mask-1.png,h,1,0.8544373000004271,h,0,0.0868929999996908,0.04856379999910132,0.046551799998269416,0.10058019999996759,0.10032549999959883,0.3013195000021369
RSVPLG03,md,20251118-093628,1.0.2,20251105-084826,744,Experiment,Both,1,Automatic,main,64,20251118-094147,local,local,750,H,H,A,E,A-H.png,E-H.png,hH,hH,mask-1.png,mask-3.png,h,1,0.42381980000209296,h,1,0.09026580000136164,0.048507199997402495,0.047503000001597684,0.10032900000078371,0.09973280000122031,0.7516637999979139
RSVPLG03,md,20251118-093628,1.0.2,20251105-084826,744,Experiment,Both,1,Automatic,main,65,20251118-094152,local,local,750,H,S,E,A,E-H.png,A-S.png,hH,sS,mask-1.png,mask-4.png,h,1,0.3594023000005109,s,1,0.1172885000014503,0.047686699999758275,0.04769239999950514,0.09992869999769027,0.09994179999921471,0.7500379999983124
RSVPLG03,md,20251118-093628,1.0.2,20251105-084826,744,Experiment,Both,1,Automatic,main,66,20251118-094157,local,global,300,H,H,A,E,A-H.png,H-E.png,hH,hH,mask-2.png,mask-1.png,h,1,0.5223505000030855,h,1,0.0852043999984744,0.04775140000128886,0.04772180000145454,0.09998769999947399,0.10126660000241827,0.29970659999889904
RSVPLG03,md,20251118-093628,1.0.2,20251105-084826,744,Experiment,Both,1,Automatic,main,67,20251118-094201,global,global,300,S,S,A,A,S-A.png,S-A.png,sS,sS,mask-4.png,mask-1.png,s,1,0.41684389999863924,s,1,0.07703780000156257,0.04821850000007544,0.04636840000239317,0.10109709999960614,0.09925440000006347,0.30216199999995297
RSVPLG03,md,20251118-093628,1.0.2,20251105-084826,744,Experiment,Both,1,Automatic,main,68,20251118-094205,global,local,750,S,S,E,A,S-E.png,A-S.png,sS,sS,mask-3.png,mask-2.png,s,1,0.41269690000262926,h,0,0.06484389999968698,0.04758340000262251,0.048388200000772486,0.09969640000053914,0.1002985000013723,0.75009080000018
RSVPLG03,md,20251118-093628,1.0.2,20251105-084826,744,Experiment,Both,1,Automatic,main,69,20251118-094210,global,local,750,S,S,E,E,S-E.png,E-S.png,sS,sS,mask-1.png,mask-1.png,s,1,0.5047138999980234,s,1,0.24586090000229888,0.047507499999483116,0.04739450000124634,0.09957439999925555,0.10030340000230353,0.7514813999987382
RSVPLG03,md,20251118-093628,1.0.2,20251105-084826,744,Experiment,Both,1,Automatic,main,70,20251118-094215,local,local,750,H,H,A,A,A-H.png,A-H.png,hH,hH,mask-2.png,mask-1.png,h,1,0.47087180000016815,h,1,0.05167309999887948,0.047742300001118565,0.04767770000034943,0.1002453000000969,0.09987050000199815,0.751451600001019
RSVPLG03,md,20251118-093628,1.0.2,20251105-084826,744,Experiment,Both,1,Automatic,main,71,20251118-094219,local,local,300,S,H,A,A,A-S.png,A-H.png,sS,hH,mask-1.png,mask-2.png,s,1,0.5875882000000274,s,0,0.21503149999989546,0.04773430000204826,0.04752540000117733,0.09869480000270414,0.10050960000080522,0.30020409999997355
RSVPLG03,md,20251118-093628,1.0.2,20251105-084826,744,Experiment,Both,1,Automatic,main,72,20251118-094224,local,local,300,H,H,A,A,A-H.png,A-H.png,hH,hH,mask-2.png,mask-2.png,h,1,0.39364170000044396,h,1,0.09167770000203745,0.047522199998638825,0.046984999997221166,0.09889750000002095,0.09935359999872162,0.30052340000111144
RSVPLG03,md,20251118-093628,1.0.2,20251105-084826,744,Experiment,Both,1,Automatic,main,73,20251118-094228,global,global,300,S,H,E,A,S-E.png,H-A.png,sS,hH,mask-1.png,mask-4.png,s,1,0.4637446999986423,s,0,0.05252219999965746,0.04769250000026659,0.046740499998122687,0.09888180000052671,0.09995100000014645,0.30052079999950365
RSVPLG03,md,20251118-093628,1.0.2,20251105-084826,744,Experiment,Both,1,Automatic,main,74,20251118-094232,local,global,300,H,S,E,E,E-H.png,S-E.png,hH,sS,mask-4.png,mask-2.png,h,1,0.3480325999989873,h,0,0.08235889999923529,0.04771510000136914,0.046515499998349696,0.09992459999921266,0.09825389999969047,0.30057640000086394
RSVPLG03,md,20251118-093628,1.0.2,20251105-084826,744,Experiment,Both,1,Automatic,main,75,20251118-094236,global,global,750,H,S,E,A,H-E.png,S-A.png,hH,sS,mask-1.png,mask-4.png,h,1,0.9185276999996859,s,1,0.10222829999838723,0.048722600000473903,0.04772680000314722,0.10111200000028475,0.1019190000006347,0.7510086999973282
RSVPLG03,md,20251118-093628,1.0.2,20251105-084826,744,Experiment,Both,1,Automatic,main,76,20251118-094316,local,local,750,S,H,E,A,E-S.png,A-H.png,sS,hH,mask-2.png,mask-4.png,s,1,0.337592300002143,h,1,0.17450040000039735,0.047582800001691794,0.04759299999932409,0.09966420000273502,0.1015689999985625,0.7500972000016191
RSVPLG03,md,20251118-093628,1.0.2,20251105-084826,744,Experiment,Both,1,Automatic,main,77,20251118-094320,local,global,750,H,S,E,A,E-H.png,S-A.png,hH,sS,mask-2.png,mask-4.png,h,1,0.3137767999978678,h,0,0.07662320000235923,0.0468116000010923,0.0475192000012612,0.09945650000008754,0.10077280000041355,0.7511993999978586
RSVPLG03,md,20251118-093628,1.0.2,20251105-084826,744,Experiment,Both,1,Automatic,main,78,20251118-094325,global,local,750,H,S,E,E,H-E.png,E-S.png,hH,sS,mask-1.png,mask-4.png,h,1,0.3083025000014459,s,1,0.08935030000066035,0.048683400000300026,0.04680419999931473,0.1015899999983958,0.09987390000242158,0.7529231999978947
RSVPLG03,md,20251118-093628,1.0.2,20251105-084826,744,Experiment,Both,1,Automatic,main,79,20251118-094329,global,global,750,S,H,E,E,S-E.png,H-E.png,sS,hH,mask-2.png,mask-1.png,s,1,0.2990124999996624,h,1,0.06686189999891212,0.046719199999643024,0.047553800002788194,0.09986669999852893,0.1004376000018965,0.7501051999970514
RSVPLG03,md,20251118-093628,1.0.2,20251105-084826,744,Experiment,Both,1,Automatic,main,80,20251118-094334,local,local,300,S,H,E,E,E-S.png,E-H.png,sS,hH,mask-4.png,mask-3.png,s,1,0.34326470000087284,s,0,0.04097180000098888,0.04775569999765139,0.04742439999972703,0.10020649999933084,0.10033019999900716,0.30051389999789535
RSVPLG03,md,20251118-093628,1.0.2,20251105-084826,744,Experiment,Both,1,Automatic,main,81,20251118-094338,local,local,750,H,S,E,A,E-H.png,A-S.png,hH,sS,mask-2.png,mask-4.png,h,1,0.26505679999900167,s,1,0.12178259999927832,0.0466883000008238,0.047708799997053575,0.09985530000267318,0.0991595999985293,0.7513969000028737
RSVPLG03,md,20251118-093628,1.0.2,20251105-084826,744,Experiment,Both,1,Automatic,main,82,20251118-094342,local,global,300,H,S,E,E,E-H.png,S-E.png,hH,sS,mask-4.png,mask-2.png,h,1,0.30052900000009686,h,0,0.08664710000084597,0.04763200000161305,0.04701280000153929,0.09988370000064606,0.09995519999938551,0.2994147999997949
RSVPLG03,md,20251118-093628,1.0.2,20251105-084826,744,Experiment,Both,1,Automatic,main,83,20251118-094346,local,local,300,S,S,A,A,A-S.png,A-S.png,sS,sS,mask-1.png,mask-4.png,s,1,0.29832640000313404,s,1,0.01694879999922705,0.047786099999939324,0.04761440000220318,0.10087650000059512,0.10177879999901052,0.2997786999985692
RSVPLG03,md,20251118-093628,1.0.2,20251105-084826,744,Experiment,Both,1,Automatic,main,84,20251118-094350,local,global,300,H,S,E,A,E-H.png,S-A.png,hH,sS,mask-3.png,mask-3.png,h,1,0.39775730000110343,h,0,0.11476810000021942,0.047720499998831656,0.04771460000119987,0.10094430000026478,0.0999139000014111,0.3006153999995149
RSVPLG03,md,20251118-093628,1.0.2,20251105-084826,744,Experiment,Both,1,Automatic,main,85,20251118-094355,local,global,300,S,S,E,A,E-S.png,S-A.png,sS,sS,mask-1.png,mask-1.png,s,1,0.36751120000189985,h,0,0.060875699997268384,0.04773200000272482,0.04745529999854625,0.1004166000020632,0.10061230000064825,0.2992364000019734
RSVPLG03,md,20251118-093628,1.0.2,20251105-084826,744,Experiment,Both,1,Automatic,main,86,20251118-094359,global,global,750,S,H,E,A,S-E.png,H-A.png,sS,hH,mask-4.png,mask-4.png,s,1,0.36115090000021155,h,1,0.0686939999977767,0.047921500001393724,0.047676900001533795,0.10151870000117924,0.10087330000169459,0.7515425999990839
RSVPLG03,md,20251118-093628,1.0.2,20251105-084826,744,Experiment,Both,1,Automatic,main,87,20251118-094403,local,local,300,S,H,E,A,E-S.png,A-H.png,sS,hH,mask-1.png,mask-3.png,s,1,0.3162019000010332,h,1,0.04810569999972358,0.04779899999994086,0.04677620000074967,0.09999550000065938,0.09894429999985732,0.3016500999983691
RSVPLG03,md,20251118-093628,1.0.2,20251105-084826,744,Experiment,Both,1,Automatic,main,88,20251118-094407,global,local,750,S,H,A,A,S-A.png,A-H.png,sS,hH,mask-1.png,mask-2.png,s,1,0.329217399998015,h,1,0.027467500000057044,0.04813590000048862,0.04672760000175913,0.10034989999985555,0.09996310000133235,0.7524440999986837
RSVPLG03,md,20251118-093628,1.0.2,20251105-084826,744,Experiment,Both,1,Automatic,main,89,20251118-094412,local,local,750,H,S,E,E,E-H.png,E-S.png,hH,sS,mask-4.png,mask-4.png,h,1,0.29862599999978556,s,1,0.13817030000063824,0.04747029999998631,0.04951549999896088,0.09954069999730564,0.10154809999949066,0.7503171999996994
RSVPLG03,md,20251118-093628,1.0.2,20251105-084826,744,Experiment,Both,1,Automatic,main,90,20251118-094416,local,global,750,H,S,A,E,A-H.png,S-E.png,hH,sS,mask-4.png,mask-4.png,h,1,0.47526680000009947,s,1,0.1683831000009377,0.04773159999967902,0.046733600000152364,0.1015466999997443,0.10010759999931906,0.7520101000009163
RSVPLG03,md,20251118-093628,1.0.2,20251105-084826,744,Experiment,Both,1,Automatic,main,91,20251118-094421,global,local,300,S,S,E,A,S-E.png,A-S.png,sS,sS,mask-1.png,mask-3.png,s,1,0.34153710000100546,h,0,0.016276799997285707,0.047449899997445755,0.04759829999966314,0.1005312999986927,0.09997809999913443,0.3008345999987796
RSVPLG03,md,20251118-093628,1.0.2,20251105-084826,744,Experiment,Both,1,Automatic,main,92,20251118-094425,local,global,750,S,S,A,A,A-S.png,S-A.png,sS,sS,mask-4.png,mask-4.png,s,1,0.3927581999996619,s,1,0.057342500000231666,0.047831600000790786,0.047717900000861846,0.09999840000091353,0.09985640000013518,0.7516138999999384
RSVPLG03,md,20251118-093628,1.0.2,20251105-084826,744,Experiment,Both,1,Automatic,main,93,20251118-094430,global,global,300,H,H,E,A,H-E.png,H-A.png,hH,hH,mask-3.png,mask-1.png,h,1,0.3255961000031675,h,1,0.08844540000063716,0.04892169999948237,0.04773550000027171,0.10206330000073649,0.10084479999932228,0.30142310000155703
RSVPLG03,md,20251118-093628,1.0.2,20251105-084826,744,Experiment,Both,1,Automatic,main,94,20251118-094434,local,global,750,H,S,E,E,E-H.png,S-E.png,hH,sS,mask-2.png,mask-4.png,h,1,0.3385550000020885,h,0,0.08683919999748468,0.04694039999958477,0.04746510000040871,0.09996309999769437,0.0992800999993051,0.7506997999989835
RSVPLG03,md,20251118-093628,1.0.2,20251105-084826,744,Experiment,Both,1,Automatic,main,95,20251118-094438,local,local,750,S,S,A,E,A-S.png,E-S.png,sS,sS,mask-2.png,mask-4.png,s,1,0.31871549999777926,s,1,0.061625199999980396,0.0472087999987707,0.04711500000121305,0.10003090000100201,0.10048409999944852,0.7502764999990177
RSVPLG03,md,20251118-093628,1.0.2,20251105-084826,744,Experiment,Both,1,Automatic,main,96,20251118-094443,global,local,750,S,S,A,E,S-A.png,E-S.png,sS,sS,mask-3.png,mask-2.png,s,1,0.2952149000011559,s,1,0.05946559999938472,0.04767590000119526,0.04876710000098683,0.0998552999990352,0.09955679999984568,0.750847999999678
RSVPLG03,md,20251118-093628,1.0.2,20251105-084826,744,Experiment,Both,1,Automatic,main,97,20251118-094447,global,global,300,H,H,E,A,H-E.png,H-A.png,hH,hH,mask-1.png,mask-3.png,h,1,0.384411099999852,h,1,0.07661949999965145,0.04819599999973434,0.04802159999962896,0.100245099998574,0.10007449999829987,0.30014890000165906
RSVPLG03,md,20251118-093628,1.0.2,20251105-084826,744,Experiment,Both,1,Automatic,main,98,20251118-094451,global,global,750,S,H,A,A,S-A.png,H-A.png,sS,hH,mask-4.png,mask-2.png,s,1,0.28172519999861834,h,1,0.08972089999952004,0.047522299999400275,0.0465459999977611,0.09952509999857284,0.09782999999879394,0.7516577999995206
RSVPLG03,md,20251118-093628,1.0.2,20251105-084826,744,Experiment,Both,1,Automatic,main,99,20251118-094456,global,local,750,S,S,E,A,S-E.png,A-S.png,sS,sS,mask-1.png,mask-3.png,s,1,0.5697710000022198,h,0,0.026279500001692213,0.048495099999854574,0.04749110000193468,0.10052690000156872,0.10058150000259047,0.7508801000003587
RSVPLG03,md,20251118-093628,1.0.2,20251105-084826,744,Experiment,Both,1,Automatic,main,100,20251118-094501,local,local,300,H,H,A,E,A-H.png,E-H.png,hH,hH,mask-4.png,mask-2.png,s,0,1.1804412999990745,s,0,0.056433599998854334,0.04592349999802536,0.046278100002382416,0.09990420000031008,0.09920229999988806,0.3004661999984819
