exp,exp_initials,runtime,ver,modtime,sub,blocktype,targets,cuetype,mode,trialtype,trial,trialtime,t1_level,t2_level,t2_lag,t1,t2,distractor1,distractor2,stimfile1,stimfile2,t1_corr,t2_corr,maskfile1,maskfile2,t1_resp,t1_acc,t1_rt,t2_resp,t2_acc,t2_rt,t1_dur,t2_dur,t1mask_soa,t2mask_soa,t1t2_soa
RSVPLG03,km,20251030-101313,1.0.1,20251023-100704,724,Introduction,T1,1,Automatic,main,1,20251030-101346,local,local,750,S,H,A,A,A-S.png,A-H.png,sS,hH,mask-3.png,mask-4.png,s,1,2.3819911000318825,none,-5,0,0.08792060008272529,0.09974559990223497,0.18842220003716648,0.19998059992212802,0.7385128000751138
RSVPLG03,km,20251030-101313,1.0.1,20251023-100704,724,Introduction,T1,1,Automatic,main,2,20251030-101352,global,global,750,H,S,E,E,H-E.png,S-E.png,hH,sS,mask-4.png,mask-1.png,h,1,1.0880935000022873,none,-5,0,0.10017420002259314,0.10082880000118166,0.19976210000459105,0.20100959995761514,0.7494552000425756
RSVPLG03,km,20251030-101313,1.0.1,20251023-100704,724,Introduction,T1,1,Automatic,main,3,20251030-101358,local,global,750,H,S,E,E,E-H.png,S-E.png,hH,sS,mask-1.png,mask-4.png,h,1,3.836315599968657,none,-5,0,0.09915580006781965,0.10043510003015399,0.1987937999656424,0.20264329994097352,0.7480317000299692
RSVPLG03,km,20251030-101313,1.0.1,20251023-100704,724,Introduction,T1,1,Automatic,main,4,20251030-101406,global,global,750,S,H,A,A,S-A.png,H-A.png,sS,hH,mask-2.png,mask-3.png,s,1,0.3438486000522971,none,-5,0,0.09940359997563064,0.10062919999472797,0.20054079999681562,0.2018578000133857,0.749676899984479
RSVPLG03,km,20251030-101313,1.0.1,20251023-100704,724,Introduction,T1,1,Automatic,main,5,20251030-101410,local,local,750,S,H,A,E,A-S.png,E-H.png,sS,hH,mask-4.png,mask-4.png,s,1,1.2042303000343964,none,-5,0,0.10057590005453676,0.0998417999362573,0.2012825000565499,0.2006315999897197,0.7507740000728518
RSVPLG03,km,20251030-101313,1.0.1,20251023-100704,724,Introduction,T1,1,Automatic,main,6,20251030-101416,local,global,750,S,H,A,E,A-S.png,H-E.png,sS,hH,mask-4.png,mask-4.png,s,1,0.5251614999724552,none,-5,0,0.09849490004125983,0.10033139993902296,0.1995640000095591,0.1982061000308022,0.7499132000375539
RSVPLG03,km,20251030-101313,1.0.1,20251023-100704,724,Introduction,T1,1,Automatic,main,7,20251030-101420,global,global,750,S,S,A,E,S-A.png,S-E.png,sS,sS,mask-4.png,mask-1.png,s,1,0.3590583000332117,none,-5,0,0.09906650008633733,0.10028740006964654,0.19954210007563233,0.20075630000792444,0.7483932999894023
RSVPLG03,km,20251030-101313,1.0.1,20251023-100704,724,Introduction,T1,1,Automatic,main,8,20251030-101425,global,local,750,H,S,E,A,H-E.png,A-S.png,hH,sS,mask-3.png,mask-2.png,h,1,0.4579901999095455,none,-5,0,0.09987749997526407,0.0991484000114724,0.198638700065203,0.20012990001123399,0.750249500037171
RSVPLG03,km,20251030-101313,1.0.1,20251023-100704,724,Introduction,T1,1,Automatic,main,9,20251030-101429,global,local,750,H,H,E,A,H-E.png,A-H.png,hH,hH,mask-4.png,mask-3.png,h,1,0.6314603999489918,none,-5,0,0.09997139999177307,0.10043809993658215,0.1992579000070691,0.19948139996267855,0.7498159999959171
RSVPLG03,km,20251030-101313,1.0.1,20251023-100704,724,Introduction,T1,1,Automatic,main,10,20251030-101434,local,global,750,S,H,A,A,A-S.png,H-A.png,sS,hH,mask-4.png,mask-4.png,s,1,0.8454647000180557,none,-5,0,0.09887950005941093,0.09914339997339994,0.19928689999505877,0.19910029997117817,0.7512329000746831
RSVPLG03,km,20251030-101313,1.0.1,20251023-100704,724,Introduction,T1,1,Automatic,main,11,20251030-101439,local,global,750,S,H,A,A,A-S.png,H-A.png,sS,hH,mask-3.png,mask-1.png,s,1,0.4567983999149874,none,-5,0,0.0993777000112459,0.1009738000575453,0.20062880008481443,0.20218430005479604,0.7488137000473216
RSVPLG03,km,20251030-101313,1.0.1,20251023-100704,724,Introduction,T1,1,Automatic,main,12,20251030-101444,global,global,750,H,S,E,A,H-E.png,S-A.png,hH,sS,mask-4.png,mask-3.png,h,1,0.431369400001131,none,-5,0,0.10038929991424084,0.0994919000659138,0.20172549993731081,0.19933710002806038,0.7504908998962492
RSVPLG03,km,20251030-101313,1.0.1,20251023-100704,724,Introduction,T1,1,Automatic,main,13,20251030-101448,global,local,750,S,H,E,A,S-E.png,A-H.png,sS,hH,mask-3.png,mask-1.png,s,1,0.441445600008592,none,-5,0,0.10031420004088432,0.10170210001524538,0.20158330001868308,0.20111380005255342,0.7500699999509379
RSVPLG03,km,20251030-101313,1.0.1,20251023-100704,724,Introduction,T1,1,Automatic,main,14,20251030-101453,global,local,750,H,H,E,A,H-E.png,A-H.png,hH,hH,mask-2.png,mask-3.png,h,1,1.2404758000047877,none,-5,0,0.09875400003511459,0.09907939995173365,0.19866170000750571,0.19997919991146773,0.7505285000661388
RSVPLG03,km,20251030-101313,1.0.1,20251023-100704,724,Introduction,T1,1,Automatic,main,15,20251030-101458,local,local,750,H,H,A,E,A-H.png,E-H.png,hH,hH,mask-4.png,mask-4.png,h,1,0.47093109996058047,none,-5,0,0.09971510001923889,0.0988369999686256,0.20101029996294528,0.19960519997403026,0.7512957999715582
RSVPLG03,km,20251030-101313,1.0.1,20251023-100704,724,Introduction,T1,1,Automatic,main,16,20251030-101503,local,local,750,S,S,A,E,A-S.png,E-S.png,sS,sS,mask-2.png,mask-2.png,h,0,1.1148687000386417,none,-5,0,0.09899590001441538,0.09894990001339465,0.20011269999668002,0.1990163999143988,0.7519454000284895
RSVPLG03,km,20251030-101527,1.0.1,20251023-100704,724,Practice,T1,1,Automatic,main,1,20251030-101550,local,local,300,S,S,E,A,E-S.png,A-S.png,sS,sS,mask-2.png,mask-3.png,s,1,0.036420100019313395,none,-5,0,0.05018809996545315,0.05132259998936206,0.10018710000440478,0.10033119993750006,0.2998021000530571
RSVPLG03,km,20251030-101527,1.0.1,20251023-100704,724,Practice,T1,1,Automatic,main,2,20251030-101553,global,global,300,S,S,E,A,S-E.png,S-A.png,sS,sS,mask-1.png,mask-1.png,s,1,0.34425439999904484,none,-5,0,0.04990929993800819,0.04894470004364848,0.09997809992637485,0.10025200003292412,0.3014997999416664
RSVPLG03,km,20251030-101527,1.0.1,20251023-100704,724,Practice,T1,1,Automatic,main,3,20251030-101557,local,global,750,H,H,E,A,E-H.png,H-A.png,hH,hH,mask-3.png,mask-3.png,h,1,0.6215034000342712,none,-5,0,0.048800499993376434,0.05096599995158613,0.09998449997510761,0.10004149994347245,0.7507215000223368
RSVPLG03,km,20251030-101527,1.0.1,20251023-100704,724,Practice,T1,1,Automatic,main,4,20251030-101602,local,global,750,H,H,A,A,A-H.png,H-A.png,hH,hH,mask-3.png,mask-1.png,h,1,0.9833599000703543,none,-5,0,0.05027549993246794,0.04989999998360872,0.1006135999923572,0.10071040003094822,0.7518306999700144
RSVPLG03,km,20251030-101527,1.0.1,20251023-100704,724,Practice,T1,1,Automatic,main,5,20251030-101607,global,global,750,H,S,A,A,H-A.png,S-A.png,hH,sS,mask-3.png,mask-2.png,h,1,0.8615804000291973,none,-5,0,0.04988119995687157,0.050255200010724366,0.10096369998063892,0.10141090000979602,0.7516650999896228
RSVPLG03,km,20251030-101527,1.0.1,20251023-100704,724,Practice,T1,1,Automatic,main,6,20251030-101612,global,local,750,H,H,A,E,H-A.png,E-H.png,hH,hH,mask-4.png,mask-3.png,h,1,0.6955891000106931,none,-5,0,0.05101759999524802,0.05110889999195933,0.10118660004809499,0.10161160002462566,0.7505743000656366
RSVPLG03,km,20251030-101527,1.0.1,20251023-100704,724,Practice,T1,1,Automatic,main,7,20251030-101616,global,local,300,S,H,A,A,S-A.png,A-H.png,sS,hH,mask-3.png,mask-4.png,s,1,0.3582629000302404,none,-5,0,0.050255500013008714,0.04997040005400777,0.10130649991333485,0.09955100005026907,0.3013171999482438
RSVPLG03,km,20251030-101527,1.0.1,20251023-100704,724,Practice,T1,1,Automatic,main,8,20251030-101620,local,global,300,S,H,A,A,A-S.png,H-A.png,sS,hH,mask-1.png,mask-3.png,s,1,0.3640647000866011,none,-5,0,0.049841700005345047,0.04869890003465116,0.10118249990046024,0.09872450004331768,0.3019101999234408
RSVPLG03,km,20251030-101527,1.0.1,20251023-100704,724,Practice,T1,1,Automatic,main,9,20251030-101624,global,global,750,S,H,A,A,S-A.png,H-A.png,sS,hH,mask-2.png,mask-4.png,s,1,0.5566114999819547,none,-5,0,0.05193160008639097,0.048400199972093105,0.10200160008389503,0.10020690003875643,0.7533356000203639
RSVPLG03,km,20251030-101527,1.0.1,20251023-100704,724,Practice,T1,1,Automatic,main,10,20251030-101629,global,global,300,S,S,A,A,S-A.png,S-A.png,sS,sS,mask-4.png,mask-1.png,s,1,0.3592964999843389,none,-5,0,0.049680700059980154,0.050600500078871846,0.10043440002482384,0.1022475000936538,0.29997749999165535
RSVPLG03,km,20251030-101527,1.0.1,20251023-100704,724,Practice,T1,1,Automatic,main,11,20251030-101633,local,global,300,H,S,A,A,A-H.png,S-A.png,hH,sS,mask-3.png,mask-2.png,h,1,0.3336356000509113,none,-5,0,0.05111650004982948,0.0497365000192076,0.10148349998053163,0.1001174000557512,0.30109790002461523
RSVPLG03,km,20251030-101527,1.0.1,20251023-100704,724,Practice,T1,1,Automatic,main,12,20251030-101637,global,local,750,S,H,A,E,S-A.png,E-H.png,sS,hH,mask-1.png,mask-3.png,s,1,0.5900268000550568,none,-5,0,0.05137740005739033,0.05160239990800619,0.10157709999475628,0.10161489993333817,0.7511689000530168
RSVPLG03,km,20251030-101527,1.0.1,20251023-100704,724,Practice,T1,1,Automatic,main,13,20251030-101641,local,local,300,S,S,E,A,E-S.png,A-S.png,sS,sS,mask-2.png,mask-1.png,s,1,0.3053195000393316,none,-5,0,0.050650799996219575,0.051051000016741455,0.10100439994130284,0.10134730010759085,0.2992159998975694
RSVPLG03,km,20251030-101527,1.0.1,20251023-100704,724,Practice,T1,1,Automatic,main,14,20251030-101645,local,local,750,S,S,A,A,A-S.png,A-S.png,sS,sS,mask-1.png,mask-3.png,s,1,0.4578795999987051,none,-5,0,0.049707000027410686,0.05002070008777082,0.0996389000210911,0.09975460008718073,0.7520874999463558
RSVPLG03,km,20251030-101527,1.0.1,20251023-100704,724,Practice,T1,1,Automatic,main,15,20251030-101650,local,local,750,S,S,E,E,E-S.png,E-S.png,sS,sS,mask-3.png,mask-1.png,s,1,0.10476560005918145,none,-5,0,0.0487435000250116,0.05194539995864034,0.1001298000337556,0.10177609999664128,0.7510333000682294
RSVPLG03,km,20251030-101527,1.0.1,20251023-100704,724,Practice,T1,1,Automatic,main,16,20251030-101654,global,local,300,H,S,E,A,H-E.png,A-S.png,hH,sS,mask-3.png,mask-2.png,h,1,0.4000371000729501,none,-5,0,0.049412399996072054,0.050816699978895485,0.10025580006185919,0.1016625000629574,0.2997937999898568
RSVPLG03,km,20251030-101718,1.0.1,20251023-100704,724,Introduction,Both,1,Automatic,main,1,20251030-101805,local,global,750,S,H,A,E,A-S.png,H-E.png,sS,hH,mask-4.png,mask-4.png,s,1,1.249394900049083,h,1,1.7898697999771684,0.09127069998066872,0.10043150000274181,0.19077500002458692,0.20032119995448738,0.7412657000822946
RSVPLG03,km,20251030-101718,1.0.1,20251023-100704,724,Introduction,Both,1,Automatic,main,2,20251030-101813,local,local,750,S,S,A,A,A-S.png,A-S.png,sS,sS,mask-1.png,mask-3.png,s,1,0.36537909996695817,s,1,0.3678935000207275,0.10059899999760091,0.1002149999840185,0.20129949995316565,0.2009083000011742,0.7510881000198424
RSVPLG03,km,20251030-101718,1.0.1,20251023-100704,724,Introduction,Both,1,Automatic,main,3,20251030-101818,global,global,750,H,S,E,E,H-E.png,S-E.png,hH,sS,mask-1.png,mask-2.png,h,1,1.2765183999435976,s,1,0.07740489998832345,0.09971049998421222,0.09974490001332015,0.20075839990749955,0.20076789997983724,0.7520593999652192
RSVPLG03,km,20251030-101718,1.0.1,20251023-100704,724,Introduction,Both,1,Automatic,main,4,20251030-101823,global,local,750,H,S,E,A,H-E.png,A-S.png,hH,sS,mask-1.png,mask-1.png,h,1,4.0960947999265045,h,0,0.638478200067766,0.09973350004293025,0.09871879999991506,0.1996132000349462,0.19985029997769743,0.7513267999747768
RSVPLG03,km,20251030-101718,1.0.1,20251023-100704,724,Introduction,Both,1,Automatic,main,5,20251030-101832,global,global,750,S,S,A,A,S-A.png,S-A.png,sS,sS,mask-2.png,mask-3.png,s,1,0.3945174999535084,s,1,0.29025479999836534,0.09966780000831932,0.10032079997472465,0.2004887000657618,0.2020012999419123,0.7494239000370726
RSVPLG03,km,20251030-101718,1.0.1,20251023-100704,724,Introduction,Both,1,Automatic,main,6,20251030-101837,local,local,750,H,S,E,E,E-H.png,E-S.png,hH,sS,mask-2.png,mask-3.png,h,1,1.4270908000180498,s,1,0.10924089991021901,0.09979719994589686,0.09937690000515431,0.19938669994007796,0.1994942999444902,0.7521257000043988
RSVPLG03,km,20251030-101718,1.0.1,20251023-100704,724,Introduction,Both,1,Automatic,main,7,20251030-101843,global,local,750,S,S,A,A,S-A.png,A-S.png,sS,sS,mask-1.png,mask-3.png,s,1,2.6247056999709457,s,1,2.429452099953778,0.10069230000954121,0.09969890001229942,0.20009300007950515,0.201537000015378,0.7515320000238717
RSVPLG03,km,20251030-101718,1.0.1,20251023-100704,724,Introduction,Both,1,Automatic,main,8,20251030-101853,local,global,750,S,S,A,A,A-S.png,S-A.png,sS,sS,mask-2.png,mask-4.png,s,1,0.7195541999535635,s,1,0.3357309000566602,0.10071260004770011,0.10092070000246167,0.20152760006021708,0.20111309993080795,0.7512326000723988
RSVPLG03,km,20251030-101718,1.0.1,20251023-100704,724,Introduction,Both,1,Automatic,main,9,20251030-101858,global,local,750,S,S,E,A,S-E.png,A-S.png,sS,sS,mask-4.png,mask-3.png,s,1,1.0621602999744937,h,0,0.3989068999653682,0.10003209998831153,0.09903499996289611,0.20139619999099523,0.1991834999062121,0.7524246000684798
RSVPLG03,km,20251030-101718,1.0.1,20251023-100704,724,Introduction,Both,1,Automatic,main,10,20251030-101904,local,local,750,S,H,A,E,A-S.png,E-H.png,sS,hH,mask-3.png,mask-4.png,s,1,0.40508029994089156,h,1,0.15595670009497553,0.09981139993760735,0.0975171000463888,0.19984529993962497,0.20024550007656217,0.7514387998962775
RSVPLG03,km,20251030-101718,1.0.1,20251023-100704,724,Introduction,Both,1,Automatic,main,11,20251030-101909,global,global,750,S,S,A,E,S-A.png,S-E.png,sS,sS,mask-1.png,mask-1.png,s,1,0.3618045999901369,s,1,0.238803599961102,0.09939839993603528,0.10090129997115582,0.19975899998098612,0.2007556000025943,0.7516009999671951
RSVPLG03,km,20251030-101718,1.0.1,20251023-100704,724,Introduction,Both,1,Automatic,main,12,20251030-101914,local,local,750,H,S,A,A,A-H.png,A-S.png,hH,sS,mask-4.png,mask-3.png,h,1,0.2841458999319002,s,1,0.14351169997826219,0.1010331999277696,0.09885880001820624,0.19973329990170896,0.19907029997557402,0.7520592999644578
RSVPLG03,km,20251030-101718,1.0.1,20251023-100704,724,Introduction,Both,1,Automatic,main,13,20251030-101919,local,global,750,S,S,E,A,E-S.png,S-A.png,sS,sS,mask-2.png,mask-1.png,s,1,1.2411931999959052,s,1,0.12856700003612787,0.09996320004574955,0.10074640007223934,0.19975749996956438,0.2007794000674039,0.7496886999579147
RSVPLG03,km,20251030-101718,1.0.1,20251023-100704,724,Introduction,Both,1,Automatic,main,14,20251030-101924,global,global,750,S,S,E,E,S-E.png,S-E.png,sS,sS,mask-3.png,mask-2.png,s,1,0.26360190007835627,s,1,0.14375290006864816,0.10032339999452233,0.09795990004204214,0.20091200002934784,0.1995185000123456,0.7537804000312462
RSVPLG03,km,20251030-101718,1.0.1,20251023-100704,724,Introduction,Both,1,Automatic,main,15,20251030-101929,global,local,750,H,S,E,E,H-E.png,E-S.png,hH,sS,mask-2.png,mask-4.png,h,1,0.4753363999770954,s,1,0.14341269992291927,0.09972989989910275,0.09922159998677671,0.20070689998101443,0.19967120001092553,0.7517767999088392
RSVPLG03,km,20251030-101718,1.0.1,20251023-100704,724,Introduction,Both,1,Automatic,main,16,20251030-101934,local,global,750,S,H,A,E,A-S.png,H-E.png,sS,hH,mask-2.png,mask-2.png,h,0,2.0948023999808356,s,0,0.14409610000438988,0.09953619993757457,0.09854599996469915,0.20011900004465133,0.19918339990545064,0.7514866000274196
RSVPLG03,km,20251030-102003,1.0.1,20251023-100704,724,Practice,Both,1,Automatic,main,1,20251030-102023,local,global,300,H,S,E,A,E-H.png,S-A.png,hH,sS,mask-4.png,mask-3.png,s,0,2.4355608000187203,h,0,2.547648699954152,0.03911320003680885,0.05118190008215606,0.08944700006395578,0.1000123000703752,0.28877310000825673
RSVPLG03,km,20251030-102003,1.0.1,20251023-100704,724,Practice,Both,1,Automatic,main,2,20251030-102029,local,global,300,S,H,A,E,A-S.png,H-E.png,sS,hH,mask-3.png,mask-2.png,s,1,2.531541600008495,h,1,0.7498306999914348,0.049706999910995364,0.04971469996962696,0.09952920000068843,0.0987245999276638,0.2993965999921784
RSVPLG03,km,20251030-102003,1.0.1,20251023-100704,724,Practice,Both,1,Automatic,main,3,20251030-102036,global,global,750,H,H,E,E,H-E.png,H-E.png,hH,hH,mask-1.png,mask-1.png,h,1,0.7946362999500707,h,1,0.1467936000553891,0.05081459996290505,0.050524699967354536,0.09980689990334213,0.09915779996663332,0.7491292000049725
RSVPLG03,km,20251030-102003,1.0.1,20251023-100704,724,Practice,Both,1,Automatic,main,4,20251030-102041,local,local,750,H,S,E,E,E-H.png,E-S.png,hH,sS,mask-1.png,mask-1.png,h,1,0.7281049001030624,s,1,0.08262010000180453,0.04992649995256215,0.04870799998752773,0.10052980005275458,0.09941479994449764,0.7496242000488564
RSVPLG03,km,20251030-102003,1.0.1,20251023-100704,724,Practice,Both,1,Automatic,main,5,20251030-102046,local,local,300,H,H,E,A,E-H.png,A-H.png,hH,hH,mask-3.png,mask-2.png,s,0,1.2285068000201136,h,1,1.0055118000600487,0.049353100010193884,0.04937210003845394,0.10059430007822812,0.09986770001705736,0.3001508000306785
RSVPLG03,km,20251030-102003,1.0.1,20251023-100704,724,Practice,Both,1,Automatic,main,6,20251030-102052,global,global,300,H,H,E,E,H-E.png,H-E.png,hH,hH,mask-1.png,mask-2.png,h,1,2.0677341000409797,s,0,0.01435939990915358,0.04972560005262494,0.049619499943219125,0.09854470007121563,0.09938399994280189,0.2983449000166729
RSVPLG03,km,20251030-102003,1.0.1,20251023-100704,724,Practice,Both,1,Automatic,main,7,20251030-102058,global,global,750,H,S,A,A,H-A.png,S-A.png,hH,sS,mask-1.png,mask-4.png,h,1,0.47259520005900413,s,1,0.06154780008364469,0.05057760002091527,0.04931650008074939,0.09995100006926805,0.09988260001409799,0.749951499979943
RSVPLG03,km,20251030-102003,1.0.1,20251023-100704,724,Practice,Both,1,Automatic,main,8,20251030-102103,global,global,300,H,H,E,E,H-E.png,H-E.png,hH,hH,mask-2.png,mask-2.png,h,1,0.5138089000247419,h,1,0.14398589998017997,0.04995700006838888,0.05090949998702854,0.09993010002654046,0.10088119993451983,0.2994836000725627
RSVPLG03,km,20251030-102003,1.0.1,20251023-100704,724,Practice,Both,1,Automatic,main,9,20251030-102107,local,global,750,H,H,A,A,A-H.png,H-A.png,hH,hH,mask-4.png,mask-3.png,h,1,0.7292249000165612,h,1,0.12715219997335225,0.049614899908192456,0.05085490003693849,0.1005743999266997,0.10081029997672886,0.7475507999770343
RSVPLG03,km,20251030-102003,1.0.1,20251023-100704,724,Practice,Both,1,Automatic,main,10,20251030-102112,global,local,300,S,S,E,A,S-E.png,A-S.png,sS,sS,mask-3.png,mask-3.png,s,1,1.1782226000213996,s,1,0.41649649990722537,0.050655199913308024,0.0501644000178203,0.10031000000890344,0.1007439000532031,0.29902539995964617
RSVPLG03,km,20251030-102003,1.0.1,20251023-100704,724,Practice,Both,1,Automatic,main,11,20251030-102117,global,local,300,S,S,E,A,S-E.png,A-S.png,sS,sS,mask-1.png,mask-2.png,h,0,0.9000427999999374,s,1,0.04729620006401092,0.04987480002455413,0.050778300035744905,0.09976990008726716,0.09949500008951873,0.2993212000001222
RSVPLG03,km,20251030-102003,1.0.1,20251023-100704,724,Practice,Both,1,Automatic,main,12,20251030-102122,local,local,750,S,S,E,A,E-S.png,A-S.png,sS,sS,mask-3.png,mask-3.png,s,1,0.4087139000184834,s,1,0.1106156000168994,0.04968870000448078,0.05072009994182736,0.09992159996181726,0.10049789992626756,0.7492678000126034
RSVPLG03,km,20251030-102003,1.0.1,20251023-100704,724,Practice,Both,1,Automatic,main,13,20251030-102126,local,global,750,H,H,E,A,E-H.png,H-A.png,hH,hH,mask-4.png,mask-3.png,h,1,2.0000469000078738,h,1,0.33655230002477765,0.049730599974282086,0.050130599993281066,0.1005467000650242,0.10024059994611889,0.748588600079529
RSVPLG03,km,20251030-102003,1.0.1,20251023-100704,724,Practice,Both,1,Automatic,main,14,20251030-102133,global,local,750,H,H,E,A,H-E.png,A-H.png,hH,hH,mask-3.png,mask-4.png,h,1,0.48761920002289116,h,1,0.2885043000569567,0.048609500052407384,0.04988150007557124,0.09984630008693784,0.10156440001446754,0.7482902000192553
RSVPLG03,km,20251030-102003,1.0.1,20251023-100704,724,Practice,Both,1,Automatic,main,15,20251030-102138,local,local,300,S,H,A,E,A-S.png,E-H.png,sS,hH,mask-4.png,mask-2.png,s,1,0.6920293000293896,s,0,0.09439250000286847,0.05016920005436987,0.050344400107860565,0.09896520001348108,0.10071930009871721,0.2983828999567777
RSVPLG03,km,20251030-102003,1.0.1,20251023-100704,724,Practice,Both,1,Automatic,main,16,20251030-102142,global,local,750,H,H,E,A,H-E.png,A-H.png,hH,hH,mask-1.png,mask-2.png,h,1,0.7808064999990165,s,0,0.07954369997605681,0.049534999998286366,0.04969130002427846,0.10019620007369667,0.10013610008172691,0.7500562999630347
RSVPLG03,km,20251030-102238,1.0.1,20251023-100704,724,Experiment,Both,1,Automatic,warmup,1,20251030-102310,global,global,750,H,S,E,E,H-E.png,S-E.png,hH,sS,mask-3.png,mask-3.png,s,0,1.1046149999601766,h,0,1.2647155999438837,0.048830099985934794,0.04985860001761466,0.09864899993408471,0.09991059999447316,0.7504678999539465
RSVPLG03,km,20251030-102238,1.0.1,20251023-100704,724,Experiment,Both,1,Automatic,warmup,2,20251030-102316,local,local,750,S,H,A,E,A-S.png,E-H.png,sS,hH,mask-3.png,mask-1.png,s,1,0.6392439999617636,s,0,0.12739879998844117,0.050166400033049285,0.04991549998521805,0.09838410001248121,0.10026689991354942,0.749763400061056
RSVPLG03,km,20251030-102238,1.0.1,20251023-100704,724,Experiment,Both,1,Automatic,warmup,3,20251030-102321,global,local,750,S,S,A,A,S-A.png,A-S.png,sS,sS,mask-1.png,mask-1.png,s,1,0.38060200004838407,s,1,0.11472720000892878,0.05013580003287643,0.05088300001807511,0.1025481999386102,0.1004151999950409,0.751384999952279
RSVPLG03,km,20251030-102238,1.0.1,20251023-100704,724,Experiment,Both,1,Automatic,warmup,4,20251030-102325,global,local,300,S,H,A,E,S-A.png,E-H.png,sS,hH,mask-1.png,mask-1.png,s,1,0.40941229998134077,h,1,0.06197249994147569,0.04887800000142306,0.04825940006412566,0.09922779991757125,0.1007571000372991,0.2997856999281794
RSVPLG03,km,20251030-102238,1.0.1,20251023-100704,724,Experiment,Both,1,Automatic,warmup,5,20251030-102329,global,global,300,H,H,A,A,H-A.png,H-A.png,hH,hH,mask-3.png,mask-2.png,h,1,0.5735085000051185,h,1,0.07958520005922765,0.049345600069500506,0.049711499945260584,0.09919410001020879,0.09954059997107834,0.29985160008072853
RSVPLG03,km,20251030-102238,1.0.1,20251023-100704,724,Experiment,Both,1,Automatic,main,6,20251030-102334,local,local,300,H,H,A,E,A-H.png,E-H.png,hH,hH,mask-4.png,mask-4.png,h,1,0.7573335999622941,h,1,0.08151670009829104,0.050475999945774674,0.04992349992971867,0.10031839995644987,0.10150200000498444,0.2983572999946773
RSVPLG03,km,20251030-102238,1.0.1,20251023-100704,724,Experiment,Both,1,Automatic,main,7,20251030-102338,local,local,750,H,S,A,A,A-H.png,A-S.png,hH,sS,mask-3.png,mask-4.png,h,1,0.43596030003391206,s,1,0.06360080000013113,0.04970309999771416,0.050598899950273335,0.09851679997518659,0.09896249999292195,0.7491640000371262
RSVPLG03,km,20251030-102238,1.0.1,20251023-100704,724,Experiment,Both,1,Automatic,main,8,20251030-102343,local,global,300,S,H,A,E,A-S.png,H-E.png,sS,hH,mask-4.png,mask-1.png,s,1,1.8788865000242367,h,1,0.8318076999858022,0.05056110001169145,0.04870769998524338,0.1005884000333026,0.0997561999829486,0.3006824000040069
RSVPLG03,km,20251030-102238,1.0.1,20251023-100704,724,Experiment,Both,1,Automatic,main,9,20251030-102349,local,local,300,H,H,E,E,E-H.png,E-H.png,hH,hH,mask-3.png,mask-1.png,h,1,1.6366672000149265,s,0,0.061456299968995154,0.04831810004543513,0.04966520005837083,0.09832360001746565,0.09991049999371171,0.2984025999903679
RSVPLG03,km,20251030-102238,1.0.1,20251023-100704,724,Experiment,Both,1,Automatic,main,10,20251030-102355,global,local,300,H,S,A,A,H-A.png,A-S.png,hH,sS,mask-4.png,mask-1.png,s,0,0.9302501999773085,h,0,0.01467840000987053,0.050632999977096915,0.04985569999553263,0.10058969992678612,0.09953029989264905,0.30026819999329746
RSVPLG03,km,20251030-102238,1.0.1,20251023-100704,724,Experiment,Both,1,Automatic,main,11,20251030-102359,global,global,300,H,H,A,E,H-A.png,H-E.png,hH,hH,mask-1.png,mask-1.png,h,1,0.863439500099048,s,0,0.11135060002561659,0.04987950006034225,0.04945309995673597,0.09949729999061674,0.1007687000092119,0.2995869000442326
RSVPLG03,km,20251030-102238,1.0.1,20251023-100704,724,Experiment,Both,1,Automatic,main,12,20251030-102404,global,local,750,S,S,E,E,S-E.png,E-S.png,sS,sS,mask-3.png,mask-4.png,s,1,0.3339415999362245,s,1,0.09488530003000051,0.048998999991454184,0.05048079998232424,0.09906440007034689,0.10152600007131696,0.7498635000083596
RSVPLG03,km,20251030-102238,1.0.1,20251023-100704,724,Experiment,Both,1,Automatic,main,13,20251030-102408,local,global,750,S,S,E,E,E-S.png,S-E.png,sS,sS,mask-2.png,mask-3.png,s,1,0.8837358000455424,s,1,0.10990250005852431,0.04971920000389218,0.04971769999247044,0.0995466000167653,0.09744429995771497,0.7512250000145286
RSVPLG03,km,20251030-102238,1.0.1,20251023-100704,724,Experiment,Both,1,Automatic,main,14,20251030-102414,global,global,750,H,S,E,E,H-E.png,S-E.png,hH,sS,mask-1.png,mask-4.png,h,1,0.7235685000196099,s,1,0.0914737000130117,0.04971130006015301,0.05181019997689873,0.09952809999231249,0.10173610004130751,0.7487610999960452
RSVPLG03,km,20251030-102238,1.0.1,20251023-100704,724,Experiment,Both,1,Automatic,main,15,20251030-102419,global,local,750,H,S,A,E,H-A.png,E-S.png,hH,sS,mask-1.png,mask-4.png,h,1,0.5685832999879494,s,1,0.09549860004335642,0.04959169996436685,0.05027959996368736,0.1002271999605,0.10081239999271929,0.7504913000157103
RSVPLG03,km,20251030-102238,1.0.1,20251023-100704,724,Experiment,Both,1,Automatic,main,16,20251030-102423,local,local,750,S,S,E,E,E-S.png,E-S.png,sS,sS,mask-4.png,mask-4.png,s,1,0.42415930004790425,s,1,0.11342190008144826,0.04970739991404116,0.04993460001423955,0.10161379992496222,0.09995990002062172,0.7520695999264717
RSVPLG03,km,20251030-102238,1.0.1,20251023-100704,724,Experiment,Both,1,Automatic,main,17,20251030-102428,global,local,300,S,H,A,E,S-A.png,E-H.png,sS,hH,mask-2.png,mask-2.png,s,1,1.677148700109683,s,0,0.09373119997326285,0.050221300101839006,0.04856230004224926,0.10089280002284795,0.09962200000882149,0.30115670000668615
RSVPLG03,km,20251030-102238,1.0.1,20251023-100704,724,Experiment,Both,1,Automatic,main,18,20251030-102433,local,local,300,H,S,E,E,E-H.png,E-S.png,hH,sS,mask-1.png,mask-1.png,s,0,1.8916924999793991,h,0,0.11141999997198582,0.0492340000346303,0.050501199904829264,0.10016709996853024,0.10009490000084043,0.2998331000562757
RSVPLG03,km,20251030-102238,1.0.1,20251023-100704,724,Experiment,Both,1,Automatic,main,19,20251030-102439,global,local,750,H,H,E,E,H-E.png,E-H.png,hH,hH,mask-3.png,mask-1.png,h,1,0.4428409000393003,h,1,0.11009390000253916,0.04986160004045814,0.04870530008338392,0.09966700000222772,0.10057330003473908,0.7511930000036955
RSVPLG03,km,20251030-102238,1.0.1,20251023-100704,724,Experiment,Both,1,Automatic,main,20,20251030-102444,global,local,750,H,S,A,A,H-A.png,A-S.png,hH,sS,mask-1.png,mask-4.png,h,1,0.7408961999462917,h,0,0.11162540002260357,0.04973620001692325,0.048884799936786294,0.10012580000329763,0.09943059994839132,0.7507386000361294
RSVPLG03,km,20251030-102238,1.0.1,20251023-100704,724,Experiment,Both,1,Automatic,main,21,20251030-102449,local,global,750,H,S,A,A,A-H.png,S-A.png,hH,sS,mask-1.png,mask-4.png,h,1,0.584923499962315,s,1,0.10820640006568283,0.05006190005224198,0.04940080002415925,0.09990599995944649,0.10058039997238666,0.7498688000487164
RSVPLG03,km,20251030-102238,1.0.1,20251023-100704,724,Experiment,Both,1,Automatic,main,22,20251030-102454,global,global,300,H,S,E,E,H-E.png,S-E.png,hH,sS,mask-3.png,mask-1.png,h,1,0.8961269999854267,s,1,0.11150140000972897,0.05019029998220503,0.05057490000035614,0.10105890000704676,0.10136790003161877,0.29853220004588366
RSVPLG03,km,20251030-102238,1.0.1,20251023-100704,724,Experiment,Both,1,Automatic,main,23,20251030-102458,global,local,300,S,S,E,A,S-E.png,A-S.png,sS,sS,mask-4.png,mask-3.png,h,0,1.1446206000400707,h,0,2.0959344999864697,0.04944600001908839,0.04979000007733703,0.09993499994743615,0.10025320004206151,0.2998980999691412
RSVPLG03,km,20251030-102238,1.0.1,20251023-100704,724,Experiment,Both,1,Automatic,main,24,20251030-102505,local,local,750,S,H,A,A,A-S.png,A-H.png,sS,hH,mask-3.png,mask-1.png,s,1,0.3229414999950677,h,1,0.04753440001513809,0.04964099999051541,0.049603300052694976,0.10096029995474964,0.10057480004616082,0.7502777999034151
RSVPLG03,km,20251030-102238,1.0.1,20251023-100704,724,Experiment,Both,1,Automatic,main,25,20251030-102510,local,global,750,H,H,A,E,A-H.png,H-E.png,hH,hH,mask-3.png,mask-4.png,s,0,1.6647047000005841,h,1,0.6233791999984533,0.05096170003525913,0.04972000000998378,0.09974670002702624,0.09959589992649853,0.7497489000670612
RSVPLG03,km,20251030-102238,1.0.1,20251023-100704,724,Experiment,Both,1,Automatic,main,26,20251030-102521,local,local,750,H,H,E,E,E-H.png,E-H.png,hH,hH,mask-2.png,mask-4.png,h,1,0.7686105000320822,s,0,0.17699009994976223,0.04849029995966703,0.049636000068858266,0.09905739990063012,0.10139299998991191,0.7487987999338657
RSVPLG03,km,20251030-102238,1.0.1,20251023-100704,724,Experiment,Both,1,Automatic,main,27,20251030-102526,global,local,300,S,H,A,E,S-A.png,E-H.png,sS,hH,mask-4.png,mask-2.png,s,1,0.34782739996444434,h,1,0.11062160006258637,0.049569500028155744,0.05037559999618679,0.10106110002379864,0.09971320000477135,0.3007422999944538
RSVPLG03,km,20251030-102238,1.0.1,20251023-100704,724,Experiment,Both,1,Automatic,main,28,20251030-102530,local,global,300,S,H,E,E,E-S.png,H-E.png,sS,hH,mask-1.png,mask-2.png,s,1,0.43055050005204976,h,1,0.06152360001578927,0.04993590002413839,0.0499153999844566,0.1000056000193581,0.09996839996892959,0.30012970010284334
RSVPLG03,km,20251030-102238,1.0.1,20251023-100704,724,Experiment,Both,1,Automatic,main,29,20251030-102535,local,local,300,H,S,E,E,E-H.png,E-S.png,hH,sS,mask-4.png,mask-2.png,h,1,0.30340089998207986,s,1,0.0780699000461027,0.04932600003667176,0.050207499996759,0.09978530008811504,0.10050429997500032,0.2995883000548929
RSVPLG03,km,20251030-102238,1.0.1,20251023-100704,724,Experiment,Both,1,Automatic,main,30,20251030-102539,local,global,750,S,S,E,A,E-S.png,S-A.png,sS,sS,mask-4.png,mask-1.png,s,1,0.3665402999613434,s,1,0.09385900001507252,0.04974669998046011,0.049347200081683695,0.10024449997581542,0.10048740007914603,0.7499836999922991
RSVPLG03,km,20251030-102238,1.0.1,20251023-100704,724,Experiment,Both,1,Automatic,main,31,20251030-102543,global,global,300,H,H,E,A,H-E.png,H-A.png,hH,hH,mask-3.png,mask-4.png,h,1,0.36875990009866655,h,1,0.127524699899368,0.04967960005160421,0.04969309992156923,0.0998498999979347,0.10051879996899515,0.2984313000924885
RSVPLG03,km,20251030-102238,1.0.1,20251023-100704,724,Experiment,Both,1,Automatic,main,32,20251030-102548,local,global,750,S,S,E,A,E-S.png,S-A.png,sS,sS,mask-2.png,mask-3.png,s,1,0.540616299957037,s,1,0.09206980001181364,0.04971110005863011,0.049576799967326224,0.09956720005720854,0.10032179998233914,0.7499113000230864
RSVPLG03,km,20251030-102238,1.0.1,20251023-100704,724,Experiment,Both,1,Automatic,main,33,20251030-102552,global,global,750,H,S,A,E,H-A.png,S-E.png,hH,sS,mask-3.png,mask-1.png,h,1,0.613816500059329,s,1,0.13068369997199625,0.049213799997232854,0.04983089992310852,0.1009782999753952,0.10065689997281879,0.7511814000317827
RSVPLG03,km,20251030-102238,1.0.1,20251023-100704,724,Experiment,Both,1,Automatic,main,34,20251030-102557,local,global,750,S,H,A,E,A-S.png,H-E.png,sS,hH,mask-1.png,mask-3.png,s,1,0.7687671999447048,h,1,0.06168339995201677,0.04984889994375408,0.04935549991205335,0.10054260003380477,0.09942599991336465,0.7501273000380024
RSVPLG03,km,20251030-102238,1.0.1,20251023-100704,724,Experiment,Both,1,Automatic,main,35,20251030-102602,local,global,750,H,H,E,E,E-H.png,H-E.png,hH,hH,mask-4.png,mask-4.png,h,1,0.8205491000553593,s,0,0.06213639990892261,0.049680499942041934,0.050927800009958446,0.09871819999534637,0.10098519991151989,0.748458500020206
RSVPLG03,km,20251030-102238,1.0.1,20251023-100704,724,Experiment,Both,1,Automatic,main,36,20251030-102607,global,local,750,S,H,A,E,S-A.png,E-H.png,sS,hH,mask-2.png,mask-4.png,s,1,1.5722389000002295,h,1,0.0939788999967277,0.050301300012506545,0.04879669996444136,0.10029179998673499,0.0986499999416992,0.751274700043723
RSVPLG03,km,20251030-102238,1.0.1,20251023-100704,724,Experiment,Both,1,Automatic,main,37,20251030-102613,local,global,300,H,S,A,E,A-H.png,S-E.png,hH,sS,mask-2.png,mask-1.png,h,1,0.9946639999980107,s,1,0.028785099973902106,0.051722300006076694,0.05071790004149079,0.10163070005364716,0.10052259999793023,0.30015539994928986
RSVPLG03,km,20251030-102238,1.0.1,20251023-100704,724,Experiment,Both,1,Automatic,main,38,20251030-102618,local,global,750,S,H,A,A,A-S.png,H-A.png,sS,hH,mask-3.png,mask-4.png,s,1,1.4244159000227228,h,1,0.10969499999191612,0.05053899995982647,0.048846099991351366,0.10018019995186478,0.09943029994610697,0.7513298999983817
RSVPLG03,km,20251030-102238,1.0.1,20251023-100704,724,Experiment,Both,1,Automatic,main,39,20251030-102624,global,local,750,H,S,E,E,H-E.png,E-S.png,hH,sS,mask-1.png,mask-2.png,h,1,0.3735455999849364,s,1,0.3182147000916302,0.04979820002336055,0.050147200003266335,0.0992337999632582,0.09989159996621311,0.7492061000084504
RSVPLG03,km,20251030-102238,1.0.1,20251023-100704,724,Experiment,Both,1,Automatic,main,40,20251030-102629,global,local,750,H,H,A,E,H-A.png,E-H.png,hH,hH,mask-2.png,mask-4.png,h,1,1.308617000002414,h,1,0.1115167000098154,0.04940809996332973,0.050841799937188625,0.09986499999649823,0.10077689995523542,0.7498941000085324
RSVPLG03,km,20251030-102238,1.0.1,20251023-100704,724,Experiment,Both,1,Automatic,main,41,20251030-102634,global,global,300,S,H,E,A,S-E.png,H-A.png,sS,hH,mask-4.png,mask-4.png,h,0,0.7505208000075072,h,1,1.0062200999818742,0.04759079997893423,0.05063960002735257,0.09797550004441291,0.10081080009695143,0.29855199996382
RSVPLG03,km,20251030-102238,1.0.1,20251023-100704,724,Experiment,Both,1,Automatic,main,42,20251030-102639,global,local,300,S,H,A,E,S-A.png,E-H.png,sS,hH,mask-4.png,mask-1.png,s,1,0.5736202000407502,h,1,0.044517099973745644,0.04946039989590645,0.05122410005424172,0.09839339996688068,0.10178030002862215,0.29796669993083924
RSVPLG03,km,20251030-102238,1.0.1,20251023-100704,724,Experiment,Both,1,Automatic,main,43,20251030-102644,global,global,750,H,S,E,A,H-E.png,S-A.png,hH,sS,mask-3.png,mask-4.png,h,1,0.42363320000004023,s,1,0.1435700999572873,0.04966800007969141,0.050504099926911294,0.09981520008295774,0.10030980000738055,0.7490602000616491
RSVPLG03,km,20251030-102238,1.0.1,20251023-100704,724,Experiment,Both,1,Automatic,main,44,20251030-102648,local,local,300,S,S,A,A,A-S.png,A-S.png,sS,sS,mask-2.png,mask-1.png,s,1,1.1580333000747487,h,0,0.07860399992205203,0.051732299965806305,0.050505299936048687,0.10156879993155599,0.10104859992861748,0.3003919000038877
RSVPLG03,km,20251030-102238,1.0.1,20251023-100704,724,Experiment,Both,1,Automatic,main,45,20251030-102653,local,local,300,H,S,A,A,A-H.png,A-S.png,hH,sS,mask-1.png,mask-2.png,h,1,1.6469795000739396,s,1,0.09515130007639527,0.04986230004578829,0.0497050000121817,0.09987769997678697,0.1004131999798119,0.29955180000979453
RSVPLG03,km,20251030-102238,1.0.1,20251023-100704,724,Experiment,Both,1,Automatic,main,46,20251030-102659,global,global,300,H,S,A,A,H-A.png,S-A.png,hH,sS,mask-2.png,mask-4.png,h,1,0.8393976999213919,s,1,0.044895999948494136,0.04965619998984039,0.04938059998676181,0.09991590003482997,0.09825110004749149,0.30020779999904335
RSVPLG03,km,20251030-102238,1.0.1,20251023-100704,724,Experiment,Both,1,Automatic,main,47,20251030-102703,global,local,300,S,H,E,E,S-E.png,E-H.png,sS,hH,mask-4.png,mask-4.png,h,0,1.3844189000083134,s,0,0.01485770009458065,0.04882380005437881,0.05138469999656081,0.09875380003359169,0.1000161999836564,0.29858199995942414
RSVPLG03,km,20251030-102238,1.0.1,20251023-100704,724,Experiment,Both,1,Automatic,main,48,20251030-102709,local,global,300,H,S,E,A,E-H.png,S-A.png,hH,sS,mask-3.png,mask-3.png,h,1,2.10657100006938,s,1,0.07951270008925349,0.050738500081934035,0.04844080004841089,0.0996466000797227,0.0998062000144273,0.30108050000853837
RSVPLG03,km,20251030-102238,1.0.1,20251023-100704,724,Experiment,Both,1,Automatic,main,49,20251030-102714,global,global,750,S,H,E,A,S-E.png,H-A.png,sS,hH,mask-4.png,mask-2.png,h,0,0.6612049000104889,s,0,0.127368799992837,0.04970319999847561,0.051696899929083884,0.09955499996431172,0.10154029994737357,0.7485175000037998
RSVPLG03,km,20251030-102238,1.0.1,20251023-100704,724,Experiment,Both,1,Automatic,main,50,20251030-102719,global,global,300,H,H,E,E,H-E.png,H-E.png,hH,hH,mask-4.png,mask-4.png,s,0,0.5535112000070512,h,1,0.0924266999354586,0.04972320003435016,0.04969350004103035,0.10051380004733801,0.10159710003063083,0.2998430000152439
RSVPLG03,km,20251030-102238,1.0.1,20251023-100704,724,Experiment,Both,1,Automatic,main,51,20251030-102727,global,local,750,H,H,A,A,H-A.png,A-H.png,hH,hH,mask-2.png,mask-4.png,h,1,1.0582841000286862,h,1,0.1267618000274524,0.04941860004328191,0.04951570008415729,0.09901440003886819,0.10022990009747446,0.7491839999565855
RSVPLG03,km,20251030-102238,1.0.1,20251023-100704,724,Experiment,Both,1,Automatic,main,52,20251030-102732,global,global,750,S,S,A,E,S-A.png,S-E.png,sS,sS,mask-4.png,mask-1.png,s,1,0.5482128999428824,s,1,0.11175979999825358,0.050859900075010955,0.05008079996332526,0.10073490010108799,0.10020470002200454,0.7511709000682458
RSVPLG03,km,20251030-102238,1.0.1,20251023-100704,724,Experiment,Both,1,Automatic,main,53,20251030-102737,global,global,300,S,S,E,E,S-E.png,S-E.png,sS,sS,mask-3.png,mask-1.png,s,1,0.45693160011433065,s,1,0.07896610000170767,0.04982309998013079,0.04938189999666065,0.0998498999979347,0.09977400000207126,0.3000812999671325
RSVPLG03,km,20251030-102238,1.0.1,20251023-100704,724,Experiment,Both,1,Automatic,main,54,20251030-102741,local,local,300,S,S,A,A,A-S.png,A-S.png,sS,sS,mask-1.png,mask-1.png,s,1,0.6501728999428451,s,1,0.09534190001431853,0.049828600022010505,0.049828700022771955,0.10183970001526177,0.09932319994550198,0.30013099999632686
RSVPLG03,km,20251030-102238,1.0.1,20251023-100704,724,Experiment,Both,1,Automatic,main,55,20251030-102745,global,local,750,S,S,A,E,S-A.png,E-S.png,sS,sS,mask-3.png,mask-1.png,s,1,0.3990347000071779,s,1,0.09453460003715008,0.049687699996866286,0.04854970006272197,0.0998377000214532,0.09943370008841157,0.7523796999594197
RSVPLG03,km,20251030-102238,1.0.1,20251023-100704,724,Experiment,Both,1,Automatic,main,56,20251030-102750,global,global,750,S,H,E,E,S-E.png,H-E.png,sS,hH,mask-3.png,mask-3.png,s,1,0.783178300014697,h,1,0.06622230005450547,0.051816899911500514,0.05171000002883375,0.10090739990118891,0.10153490002267063,0.7500847999472171
RSVPLG03,km,20251030-102238,1.0.1,20251023-100704,724,Experiment,Both,1,Automatic,main,57,20251030-102755,local,global,300,S,H,A,A,A-S.png,H-A.png,sS,hH,mask-4.png,mask-2.png,s,1,0.8166623000288382,h,1,0.07708379998803139,0.050522100063972175,0.05126749991904944,0.09841149998828769,0.10157199995592237,0.2988846000516787
RSVPLG03,km,20251030-102238,1.0.1,20251023-100704,724,Experiment,Both,1,Automatic,main,58,20251030-102759,local,local,750,H,H,E,E,E-H.png,E-H.png,hH,hH,mask-4.png,mask-3.png,h,1,0.7671373999910429,s,0,0.07952450006268919,0.04891570005565882,0.04990690003614873,0.100685799960047,0.09994410001672804,0.7497484999476001
RSVPLG03,km,20251030-102238,1.0.1,20251023-100704,724,Experiment,Both,1,Automatic,main,59,20251030-102804,local,global,750,H,H,E,A,E-H.png,H-A.png,hH,hH,mask-4.png,mask-1.png,h,1,0.6169839999638498,h,1,0.09517029998824,0.05038649996276945,0.050536900060251355,0.10094849998131394,0.1007264000363648,0.7508018999360502
RSVPLG03,km,20251030-102238,1.0.1,20251023-100704,724,Experiment,Both,1,Automatic,main,60,20251030-102809,local,local,750,S,S,A,E,A-S.png,E-S.png,sS,sS,mask-1.png,mask-1.png,s,1,0.47549280000384897,s,1,0.22269710002001375,0.04992269992362708,0.05032540007960051,0.09883099992293864,0.10043380002025515,0.7490111999213696
RSVPLG03,km,20251030-102238,1.0.1,20251023-100704,724,Experiment,Both,1,Automatic,main,61,20251030-102814,global,global,750,H,S,E,A,H-E.png,S-A.png,hH,sS,mask-4.png,mask-2.png,h,1,0.606439399998635,s,1,0.11002260004170239,0.05168449995107949,0.049949900014325976,0.09948049997910857,0.0999041999457404,0.7505785999819636
RSVPLG03,km,20251030-102238,1.0.1,20251023-100704,724,Experiment,Both,1,Automatic,main,62,20251030-102819,local,local,750,H,H,A,E,A-H.png,E-H.png,hH,hH,mask-3.png,mask-4.png,h,1,0.37898409995250404,s,0,0.06406010000500828,0.04900070000439882,0.050271700019948184,0.09993789996951818,0.10077040002215654,0.7484913999214768
RSVPLG03,km,20251030-102238,1.0.1,20251023-100704,724,Experiment,Both,1,Automatic,main,63,20251030-102824,global,global,300,S,H,E,A,S-E.png,H-A.png,sS,hH,mask-3.png,mask-3.png,s,1,1.2556893000146374,h,1,0.7655859999358654,0.049717600108124316,0.05014619999565184,0.09921940008644015,0.10028380004223436,0.2985660000704229
RSVPLG03,km,20251030-102238,1.0.1,20251023-100704,724,Experiment,Both,1,Automatic,main,64,20251030-102829,local,local,750,S,H,A,A,A-S.png,A-H.png,sS,hH,mask-2.png,mask-4.png,h,0,0.9008345999754965,s,0,0.07645739999134094,0.049956100061535835,0.04891720006708056,0.10009960003662854,0.09901580004952848,0.7514402000233531
RSVPLG03,km,20251030-102238,1.0.1,20251023-100704,724,Experiment,Both,1,Automatic,main,65,20251030-102835,local,global,300,H,H,E,E,E-H.png,H-E.png,hH,hH,mask-2.png,mask-3.png,h,1,1.8805610000854358,s,0,0.015080099925398827,0.04945399996358901,0.05036839994136244,0.1004572999663651,0.10058399999979883,0.29914160002954304
RSVPLG03,km,20251030-102238,1.0.1,20251023-100704,724,Experiment,Both,1,Automatic,main,66,20251030-102840,local,global,300,S,S,E,E,E-S.png,S-E.png,sS,sS,mask-1.png,mask-4.png,s,1,0.4416211999487132,h,0,0.09561140008736402,0.05040680000092834,0.04990780004300177,0.10043019999284297,0.09997270000167191,0.3004238000139594
RSVPLG03,km,20251030-102238,1.0.1,20251023-100704,724,Experiment,Both,1,Automatic,main,67,20251030-102845,global,local,750,S,H,E,E,S-E.png,E-H.png,sS,hH,mask-1.png,mask-1.png,s,1,0.6086266000056639,h,1,0.23592779994942248,0.048767899977974594,0.04976219998206943,0.10067259997595102,0.09958669997286052,0.7501074000028893
RSVPLG03,km,20251030-102238,1.0.1,20251023-100704,724,Experiment,Both,1,Automatic,main,68,20251030-102850,global,global,750,S,H,E,A,S-E.png,H-A.png,sS,hH,mask-1.png,mask-4.png,s,1,0.4445803000126034,h,1,0.22090570000000298,0.04972860007546842,0.05104120005853474,0.09965520002879202,0.10119610000401735,0.7487654000287876
RSVPLG03,km,20251030-102238,1.0.1,20251023-100704,724,Experiment,Both,1,Automatic,main,69,20251030-102855,global,global,300,S,H,E,E,S-E.png,H-E.png,sS,hH,mask-3.png,mask-2.png,s,1,0.5774579999269918,h,1,0.1589555999962613,0.049401599913835526,0.04912999994121492,0.09927250002510846,0.09914009994827211,0.3008216000162065
RSVPLG03,km,20251030-102238,1.0.1,20251023-100704,724,Experiment,Both,1,Automatic,main,70,20251030-102859,local,local,300,S,S,E,E,E-S.png,E-S.png,sS,sS,mask-4.png,mask-2.png,s,1,0.9324886000249535,h,0,0.09950030001346022,0.04974799999035895,0.0509510999545455,0.10171700001228601,0.10093730001244694,0.29928190005011857
RSVPLG03,km,20251030-102238,1.0.1,20251023-100704,724,Experiment,Both,1,Automatic,main,71,20251030-102904,local,global,750,H,H,E,A,E-H.png,H-A.png,hH,hH,mask-1.png,mask-1.png,h,1,0.5483136000111699,h,1,0.11139990005176514,0.04998929996509105,0.05049029993824661,0.10000529990065843,0.10054419992957264,0.7497403000015765
RSVPLG03,km,20251030-102238,1.0.1,20251023-100704,724,Experiment,Both,1,Automatic,main,72,20251030-102909,local,global,750,H,S,E,E,E-H.png,S-E.png,hH,sS,mask-4.png,mask-1.png,h,1,0.2901077000424266,h,0,0.12302159995306283,0.04980549996253103,0.04980320006143302,0.09977830003481358,0.09975530009251088,0.7500584999797866
RSVPLG03,km,20251030-102238,1.0.1,20251023-100704,724,Experiment,Both,1,Automatic,main,73,20251030-102913,local,global,300,S,H,A,A,A-S.png,H-A.png,sS,hH,mask-3.png,mask-2.png,s,1,0.3875650999834761,h,1,0.14076779992319643,0.04973480000626296,0.049723600037395954,0.10023769992403686,0.10048060002736747,0.29907389997970313
RSVPLG03,km,20251030-102238,1.0.1,20251023-100704,724,Experiment,Both,1,Automatic,main,74,20251030-102917,global,global,300,S,S,E,E,S-E.png,S-E.png,sS,sS,mask-2.png,mask-2.png,s,1,0.46056010003667325,s,1,0.09484569996129721,0.05099329992663115,0.0475716000655666,0.1017736999783665,0.09796300006564707,0.30304189992602915
RSVPLG03,km,20251030-102238,1.0.1,20251023-100704,724,Experiment,Both,1,Automatic,main,75,20251030-102922,global,local,300,S,S,E,A,S-E.png,A-S.png,sS,sS,mask-1.png,mask-4.png,s,1,0.4709409000352025,h,0,0.11049099999945611,0.049760500085540116,0.051608300069347024,0.1007681000046432,0.1005142000503838,0.2994621000252664
RSVPLG03,km,20251030-102238,1.0.1,20251023-100704,724,Experiment,Both,1,Automatic,main,76,20251030-102928,global,global,300,H,H,E,E,H-E.png,H-E.png,hH,hH,mask-2.png,mask-1.png,h,1,2.2785662999376655,s,0,0.6878596999449655,0.050901099923066795,0.049866000073961914,0.09958839998580515,0.09924450004473329,0.3006130999419838
RSVPLG03,km,20251030-102238,1.0.1,20251023-100704,724,Experiment,Both,1,Automatic,main,77,20251030-102935,global,local,750,H,H,A,A,H-A.png,A-H.png,hH,hH,mask-3.png,mask-3.png,h,1,0.5409210999496281,h,1,0.26880880002863705,0.049422399955801666,0.04914339992683381,0.10072959994431585,0.09939829993527383,0.7491034000413492
RSVPLG03,km,20251030-102238,1.0.1,20251023-100704,724,Experiment,Both,1,Automatic,main,78,20251030-102940,global,global,750,S,H,A,E,S-A.png,H-E.png,sS,hH,mask-2.png,mask-1.png,s,1,0.684381700004451,h,1,0.11128029995597899,0.05016069998964667,0.04971960000693798,0.1005245998967439,0.09965699992608279,0.7504410999827087
RSVPLG03,km,20251030-102238,1.0.1,20251023-100704,724,Experiment,Both,1,Automatic,main,79,20251030-102945,global,local,750,H,H,A,E,H-A.png,E-H.png,hH,hH,mask-1.png,mask-2.png,h,1,0.9041298000374809,h,1,0.10970279993489385,0.05025470000691712,0.049722000025212765,0.10039939999114722,0.10057100001722574,0.750988099956885
RSVPLG03,km,20251030-102238,1.0.1,20251023-100704,724,Experiment,Both,1,Automatic,main,80,20251030-102950,local,global,300,H,S,E,A,E-H.png,S-A.png,hH,sS,mask-2.png,mask-1.png,h,1,1.0745498000178486,h,0,0.23988240002654493,0.049714599968865514,0.05127520009409636,0.10065719997510314,0.10000990005210042,0.29906849993858486
RSVPLG03,km,20251030-102238,1.0.1,20251023-100704,724,Experiment,Both,1,Automatic,main,81,20251030-102955,local,local,300,H,S,E,E,E-H.png,E-S.png,hH,sS,mask-4.png,mask-2.png,h,1,0.8771610999247059,s,1,0.02951680007390678,0.048604600015096366,0.049238699954003096,0.1004640000173822,0.09971600002609193,0.2999627999961376
RSVPLG03,km,20251030-102238,1.0.1,20251023-100704,724,Experiment,Both,1,Automatic,main,82,20251030-103000,global,local,300,S,H,E,E,S-E.png,E-H.png,sS,hH,mask-1.png,mask-1.png,h,0,1.1259324999991804,h,1,0.07969050004612654,0.04970990004949272,0.04972279991488904,0.10059270006604493,0.10001509997528046,0.3002333000767976
RSVPLG03,km,20251030-102238,1.0.1,20251023-100704,724,Experiment,Both,1,Automatic,main,83,20251030-103004,global,global,300,H,H,E,A,H-E.png,H-A.png,hH,hH,mask-2.png,mask-4.png,h,1,0.45227300003170967,h,1,0.10936740005854517,0.04981869994662702,0.04852369998116046,0.10121989995241165,0.10016589995939285,0.3013836999889463
RSVPLG03,km,20251030-102238,1.0.1,20251023-100704,724,Experiment,Both,1,Automatic,main,84,20251030-103009,global,local,750,H,S,A,A,H-A.png,A-S.png,hH,sS,mask-1.png,mask-4.png,h,1,0.4772944999858737,s,1,0.07832309999503195,0.049844900029711425,0.05113179993350059,0.0996828000061214,0.10097759997006506,0.7486333000706509
RSVPLG03,km,20251030-102238,1.0.1,20251023-100704,724,Experiment,Both,1,Automatic,main,85,20251030-103013,global,global,750,S,H,E,E,S-E.png,H-E.png,sS,hH,mask-4.png,mask-3.png,h,0,0.7248920999700204,h,1,0.7020178999518976,0.05070610006805509,0.05082050000783056,0.1016950000775978,0.10070579999592155,0.7507815000135452
RSVPLG03,km,20251030-102238,1.0.1,20251023-100704,724,Experiment,Both,1,Automatic,main,86,20251030-103019,local,global,300,H,H,E,A,E-H.png,H-A.png,hH,hH,mask-1.png,mask-3.png,s,0,1.1252476000227034,h,1,0.030524399946443737,0.0497909999685362,0.049712699954397976,0.09957620000932366,0.0993955999147147,0.29990290000569075
RSVPLG03,km,20251030-102238,1.0.1,20251023-100704,724,Experiment,Both,1,Automatic,main,87,20251030-103024,global,global,750,H,H,E,A,H-E.png,H-A.png,hH,hH,mask-3.png,mask-1.png,h,1,0.3224479000782594,h,1,0.10998099995777011,0.05172600003425032,0.04980849998537451,0.10158869996666908,0.10167040000669658,0.7501945999683812
RSVPLG03,km,20251030-102238,1.0.1,20251023-100704,724,Experiment,Both,1,Automatic,main,88,20251030-103029,local,local,750,S,S,E,E,E-S.png,E-S.png,sS,sS,mask-3.png,mask-1.png,s,1,0.3935487000271678,s,1,0.0765804999973625,0.050683600013144314,0.0497676000231877,0.10063899995293468,0.09961379994638264,0.7503539000172168
RSVPLG03,km,20251030-102238,1.0.1,20251023-100704,724,Experiment,Both,1,Automatic,main,89,20251030-103033,global,local,300,H,H,E,E,H-E.png,E-H.png,hH,hH,mask-3.png,mask-3.png,h,1,0.7792772999964654,s,0,0.09586270002182573,0.049858200014568865,0.04975100001320243,0.10050329996738583,0.10084590001497418,0.29909710003994405
RSVPLG03,km,20251030-102238,1.0.1,20251023-100704,724,Experiment,Both,1,Automatic,main,90,20251030-103038,local,local,750,S,H,A,E,A-S.png,E-H.png,sS,hH,mask-1.png,mask-4.png,s,1,0.8600415999535471,h,1,0.12557419994845986,0.05063980002887547,0.04976159997750074,0.10024659999180585,0.09959819994401187,0.7509578000754118
RSVPLG03,km,20251030-102238,1.0.1,20251023-100704,724,Experiment,Both,1,Automatic,main,91,20251030-103043,local,local,300,H,H,A,A,A-H.png,A-H.png,hH,hH,mask-4.png,mask-3.png,h,1,0.3371666999300942,h,1,0.10972229996696115,0.049325100029818714,0.05020540009718388,0.09962550003547221,0.10045770008582622,0.2991051999852061
RSVPLG03,km,20251030-102238,1.0.1,20251023-100704,724,Experiment,Both,1,Automatic,main,92,20251030-103047,local,local,750,H,S,A,E,A-H.png,E-S.png,hH,sS,mask-3.png,mask-2.png,h,1,0.6020608000690117,s,1,0.0449322999920696,0.05030599993187934,0.0487237999914214,0.10075129999313504,0.09955079993233085,0.751390999997966
RSVPLG03,km,20251030-102238,1.0.1,20251023-100704,724,Experiment,Both,1,Automatic,main,93,20251030-103052,global,global,750,S,H,E,A,S-E.png,H-A.png,sS,hH,mask-1.png,mask-3.png,h,0,1.114885300048627,s,0,0.047351300017908216,0.049689300009049475,0.04875650000758469,0.09994810004718602,0.09867950004991144,0.7512699000071734
RSVPLG03,km,20251030-102238,1.0.1,20251023-100704,724,Experiment,Both,1,Automatic,main,94,20251030-103057,local,global,300,S,S,E,A,E-S.png,S-A.png,sS,sS,mask-1.png,mask-4.png,s,1,0.3985391999594867,h,0,0.0646528999786824,0.04980549996253103,0.05102400004398078,0.09989810001570731,0.10136790003161877,0.29828889993950725
RSVPLG03,km,20251030-102238,1.0.1,20251023-100704,724,Experiment,Both,1,Automatic,main,95,20251030-103101,global,global,750,S,H,E,E,S-E.png,H-E.png,sS,hH,mask-2.png,mask-3.png,s,1,0.6277598000597209,s,0,0.6064579000230879,0.0492844000691548,0.04908979998435825,0.09962280001491308,0.0999364999588579,0.7517769000260159
RSVPLG03,km,20251030-102238,1.0.1,20251023-100704,724,Experiment,Both,1,Automatic,main,96,20251030-103107,global,local,300,S,H,A,E,S-A.png,E-H.png,sS,hH,mask-4.png,mask-2.png,h,0,2.110587199917063,s,0,0.06275769998319447,0.048878900008276105,0.04887200007215142,0.0998614999698475,0.09987090004142374,0.30013829993549734
RSVPLG03,km,20251030-102238,1.0.1,20251023-100704,724,Experiment,Both,1,Automatic,main,97,20251030-103113,global,local,300,S,S,E,E,S-E.png,E-S.png,sS,sS,mask-2.png,mask-2.png,s,1,2.0624681999906898,h,0,0.23974029999226332,0.05008379998616874,0.048223900026641786,0.09984790009912103,0.09957399999257177,0.3013095000060275
RSVPLG03,km,20251030-102238,1.0.1,20251023-100704,724,Experiment,Both,1,Automatic,main,98,20251030-103119,global,global,300,S,S,A,A,S-A.png,S-A.png,sS,sS,mask-2.png,mask-4.png,s,1,0.6829375999514014,s,1,0.11030930001288652,0.050046600052155554,0.05016690003685653,0.09955040004570037,0.0997082000831142,0.29962599999271333
RSVPLG03,km,20251030-102238,1.0.1,20251023-100704,724,Experiment,Both,1,Automatic,main,99,20251030-103123,local,global,750,H,S,A,A,A-H.png,S-A.png,hH,sS,mask-4.png,mask-4.png,h,1,0.8937123999930918,s,1,0.04836310003884137,0.048317099921405315,0.04969549993984401,0.09872609993908554,0.09853849990759045,0.7504771000239998
RSVPLG03,km,20251030-102238,1.0.1,20251023-100704,724,Experiment,Both,1,Automatic,main,100,20251030-103128,local,global,300,S,H,A,E,A-S.png,H-E.png,sS,hH,mask-1.png,mask-1.png,s,1,1.7089125999482349,h,1,0.04650599998421967,0.04886029998306185,0.05041270004585385,0.09817879996262491,0.09993400005623698,0.29944539989810437
RSVPLG03,km,20251030-102238,1.0.1,20251023-100704,724,Experiment,Both,1,Automatic,main,101,20251030-103136,global,local,300,H,S,A,A,H-A.png,A-S.png,hH,sS,mask-1.png,mask-3.png,h,1,1.3801866999128833,s,1,0.06300790002569556,0.05022030009422451,0.0508022999856621,0.1000921999802813,0.1003525999840349,0.2993688000133261
RSVPLG03,km,20251030-102238,1.0.1,20251023-100704,724,Experiment,Both,1,Automatic,main,102,20251030-103142,local,local,300,S,S,E,A,E-S.png,A-S.png,sS,sS,mask-2.png,mask-3.png,s,1,0.749027399928309,s,1,0.09575689991470426,0.04975280002690852,0.04906069999560714,0.09930880006868392,0.10013819998130202,0.298474800074473
RSVPLG03,km,20251030-102238,1.0.1,20251023-100704,724,Experiment,Both,1,Automatic,main,103,20251030-103146,local,global,750,H,H,A,E,A-H.png,H-E.png,hH,hH,mask-3.png,mask-1.png,h,1,0.7972768000327051,h,1,0.0794086999958381,0.049720500013791025,0.04961650003679097,0.09855270001571625,0.09957189997658134,0.7497361999703571
RSVPLG03,km,20251030-102238,1.0.1,20251023-100704,724,Experiment,Both,1,Automatic,main,104,20251030-103151,local,global,750,H,H,E,E,E-H.png,H-E.png,hH,hH,mask-1.png,mask-3.png,h,1,0.45780269999522716,h,1,0.0953890000237152,0.049229900003410876,0.04999110009521246,0.0998328001005575,0.09991330001503229,0.7501841000048444
RSVPLG03,km,20251030-102238,1.0.1,20251023-100704,724,Experiment,Both,1,Automatic,main,105,20251030-103156,local,global,300,S,H,E,E,E-S.png,H-E.png,sS,hH,mask-3.png,mask-4.png,s,1,0.7651575000490993,h,1,0.061593799968250096,0.05006739997770637,0.049487999989651144,0.09840499993879348,0.0994030999718234,0.29849989991635084
RSVPLG03,km,20251030-102238,1.0.1,20251023-100704,724,Experiment,Both,1,Automatic,main,106,20251030-103200,local,local,300,H,H,E,E,E-H.png,E-H.png,hH,hH,mask-4.png,mask-2.png,h,1,0.3656832000706345,h,1,0.09612860006745905,0.04943539993837476,0.050582699943333864,0.09982449992094189,0.1009347999934107,0.29954599996563047
RSVPLG03,km,20251030-102238,1.0.1,20251023-100704,724,Experiment,Both,1,Automatic,main,107,20251030-103204,local,global,300,S,H,E,A,E-S.png,H-A.png,sS,hH,mask-2.png,mask-2.png,s,1,0.3945577999111265,h,1,0.02589969988912344,0.050554499961435795,0.049766300013288856,0.10015449998900294,0.10113120009191334,0.30082699994090945
RSVPLG03,km,20251030-102238,1.0.1,20251023-100704,724,Experiment,Both,1,Automatic,main,108,20251030-103209,local,local,750,H,S,E,A,E-H.png,A-S.png,hH,sS,mask-2.png,mask-3.png,h,1,0.19663749996107072,s,1,0.07737529999576509,0.04972280003130436,0.050933499936945736,0.09952560008969158,0.09873359999619424,0.7499176000710577
RSVPLG03,km,20251030-102238,1.0.1,20251023-100704,724,Experiment,Both,1,Automatic,main,109,20251030-103213,local,local,300,S,H,A,A,A-S.png,A-H.png,sS,hH,mask-1.png,mask-4.png,s,1,0.40707840002141893,h,1,0.044681399944238365,0.04847769998013973,0.048773800022900105,0.10032790002878755,0.10062769998330623,0.2998735000146553
RSVPLG03,km,20251030-102238,1.0.1,20251023-100704,724,Experiment,Both,1,Automatic,main,110,20251030-103217,global,local,750,H,S,A,A,H-A.png,A-S.png,hH,sS,mask-2.png,mask-4.png,h,1,0.4346664999611676,h,0,0.09273959998972714,0.05049950000829995,0.049711600062437356,0.10015850001946092,0.10122760001104325,0.7505249999230728
RSVPLG03,km,20251030-102238,1.0.1,20251023-100704,724,Experiment,Both,1,Automatic,main,111,20251030-103222,local,local,750,H,H,E,E,E-H.png,E-H.png,hH,hH,mask-2.png,mask-2.png,h,1,0.5659618000499904,s,0,0.6224557999521494,0.051299800048582256,0.04833580006379634,0.10202630003914237,0.09979170002043247,0.7517121999990195
RSVPLG03,km,20251030-102238,1.0.1,20251023-100704,724,Experiment,Both,1,Automatic,main,112,20251030-103227,local,global,300,S,H,A,A,A-S.png,H-A.png,sS,hH,mask-1.png,mask-3.png,s,1,0.445444899960421,h,1,0.19107920001260936,0.050729300011880696,0.04974220006261021,0.09976210002787411,0.09877340006642044,0.30078729998786
RSVPLG03,km,20251030-102238,1.0.1,20251023-100704,724,Experiment,Both,1,Automatic,main,113,20251030-103232,local,local,750,H,H,A,A,A-H.png,A-H.png,hH,hH,mask-4.png,mask-1.png,s,0,0.37527840002439916,h,1,0.12626689998432994,0.050634599989280105,0.04873259994201362,0.10093019995838404,0.09966860001441091,0.7520479999948293
RSVPLG03,km,20251030-102238,1.0.1,20251023-100704,724,Experiment,Both,1,Automatic,main,114,20251030-103236,global,global,750,H,H,A,E,H-A.png,H-E.png,hH,hH,mask-2.png,mask-2.png,h,1,0.5038517999928445,h,1,0.09640390006825328,0.04956549999769777,0.04959329997655004,0.10016359994187951,0.09906459995545447,0.7512326999567449
RSVPLG03,km,20251030-102238,1.0.1,20251023-100704,724,Experiment,Both,1,Automatic,main,115,20251030-103241,local,local,750,S,H,E,A,E-S.png,A-H.png,sS,hH,mask-1.png,mask-3.png,s,1,0.46409650007262826,h,1,0.14243870007339865,0.049603500054217875,0.048489200067706406,0.09992639999836683,0.09930080000776798,0.7514976999955252
RSVPLG03,km,20251030-102238,1.0.1,20251023-100704,724,Experiment,Both,1,Automatic,main,116,20251030-103246,global,local,750,S,H,E,A,S-E.png,A-H.png,sS,hH,mask-1.png,mask-4.png,s,1,1.0452267000218853,h,1,0.11029189999680966,0.0486069000326097,0.05072589998599142,0.09862050006631762,0.10046530002728105,0.7487177000148222
RSVPLG03,km,20251030-102238,1.0.1,20251023-100704,724,Experiment,Both,1,Automatic,main,117,20251030-103251,global,local,300,S,S,E,E,S-E.png,E-S.png,sS,sS,mask-3.png,mask-2.png,h,0,1.548868800047785,s,1,0.11104869993869215,0.04970660002436489,0.04972959996666759,0.10058029997162521,0.09933040000032634,0.30016089999116957
RSVPLG03,km,20251030-102238,1.0.1,20251023-100704,724,Experiment,Both,1,Automatic,main,118,20251030-103257,global,global,300,H,H,A,A,H-A.png,H-A.png,hH,hH,mask-2.png,mask-3.png,h,1,0.3340633000480011,h,1,0.11143409996293485,0.04972869995981455,0.05173730000387877,0.10160409996751696,0.10133309999946505,0.29989009990822524
RSVPLG03,km,20251030-102238,1.0.1,20251023-100704,724,Experiment,Both,1,Automatic,main,119,20251030-103301,global,local,300,S,S,A,A,S-A.png,A-S.png,sS,sS,mask-4.png,mask-1.png,s,1,0.4601721001090482,h,0,0.10963239998091012,0.049363199970684946,0.0507911000167951,0.09980899991933256,0.10121310001704842,0.29833649995271116
RSVPLG03,km,20251030-102238,1.0.1,20251023-100704,724,Experiment,Both,1,Automatic,main,120,20251030-103305,global,local,300,S,H,E,E,S-E.png,E-H.png,sS,hH,mask-1.png,mask-4.png,h,0,1.1161575999576598,s,0,0.11223329999484122,0.05083720001857728,0.04982919991016388,0.10079679999034852,0.10017789993435144,0.3006150000728667
RSVPLG03,km,20251030-102238,1.0.1,20251023-100704,724,Experiment,Both,1,Automatic,main,121,20251030-103310,local,local,300,S,H,A,E,A-S.png,E-H.png,sS,hH,mask-3.png,mask-1.png,h,0,0.5724359999876469,s,0,0.07913029997143894,0.049912799964658916,0.049836000078357756,0.09939929994288832,0.10160350007936358,0.29851999995298684
RSVPLG03,km,20251030-102238,1.0.1,20251023-100704,724,Experiment,Both,1,Automatic,main,122,20251030-103314,local,local,300,H,H,E,A,E-H.png,A-H.png,hH,hH,mask-3.png,mask-4.png,h,1,0.9414622999029234,s,0,0.07963789999485016,0.049618300050497055,0.050542699988000095,0.0998330001020804,0.0996826000045985,0.3008431000635028
RSVPLG03,km,20251030-102238,1.0.1,20251023-100704,724,Experiment,Both,1,Automatic,main,123,20251030-103319,local,global,750,H,H,A,E,A-H.png,H-E.png,hH,hH,mask-4.png,mask-2.png,h,1,0.6530800999607891,h,1,0.07865890010725707,0.04975030000787228,0.04854290001094341,0.1013443999690935,0.10029360000044107,0.7510822999756783
RSVPLG03,km,20251030-102238,1.0.1,20251023-100704,724,Experiment,Both,1,Automatic,main,124,20251030-103324,global,global,300,H,H,A,A,H-A.png,H-A.png,hH,hH,mask-3.png,mask-3.png,h,1,0.39363379997666925,h,1,0.12644010002259165,0.049689200008288026,0.04971469996962696,0.09991029999218881,0.10293569997884333,0.29947440000250936
RSVPLG03,km,20251030-102238,1.0.1,20251023-100704,724,Experiment,Both,1,Automatic,main,125,20251030-103328,global,global,750,S,H,A,E,S-A.png,H-E.png,sS,hH,mask-3.png,mask-2.png,s,1,0.6025951999472454,h,1,0.23855989996809512,0.04976550000719726,0.04906990006566048,0.10064889991190284,0.09874889999628067,0.7506328999297693
RSVPLG03,km,20251030-103405,1.0.1,20251023-100704,724,Experiment,Both,1,Automatic,warmup,1,20251030-103427,local,global,300,S,S,A,E,A-S.png,S-E.png,sS,sS,mask-3.png,mask-3.png,s,1,0.9604432999622077,s,1,0.060956900008022785,0.040083999978378415,0.049146899953484535,0.08918539993464947,0.1004379999358207,0.28970840002875775
RSVPLG03,km,20251030-103405,1.0.1,20251023-100704,724,Experiment,Both,1,Automatic,warmup,2,20251030-103432,local,local,750,S,S,E,A,E-S.png,A-S.png,sS,sS,mask-4.png,mask-1.png,s,1,0.252983900019899,s,1,0.07531639991793782,0.0482178000966087,0.04952659993432462,0.09856950002722442,0.1002153999870643,0.7504835000727326
RSVPLG03,km,20251030-103405,1.0.1,20251023-100704,724,Experiment,Both,1,Automatic,warmup,3,20251030-103437,global,local,300,S,H,E,A,S-E.png,A-H.png,sS,hH,mask-4.png,mask-4.png,s,1,0.5858704999554902,s,0,0.07755589997395873,0.04979110008571297,0.048351800069212914,0.09960519999731332,0.09870370000135154,0.30013440002221614
RSVPLG03,km,20251030-103405,1.0.1,20251023-100704,724,Experiment,Both,1,Automatic,warmup,4,20251030-103441,local,global,750,S,S,E,E,E-S.png,S-E.png,sS,sS,mask-4.png,mask-3.png,s,1,0.3464797999477014,s,1,0.11233079992234707,0.051170899998396635,0.0497592999599874,0.10014430002775043,0.10032409999985248,0.7515832000644878
RSVPLG03,km,20251030-103405,1.0.1,20251023-100704,724,Experiment,Both,1,Automatic,warmup,5,20251030-103445,global,local,750,S,H,E,A,S-E.png,A-H.png,sS,hH,mask-3.png,mask-4.png,s,1,0.9830617000116035,h,1,0.06220040004700422,0.048768100095912814,0.05030380003154278,0.10004710010252893,0.0994399000192061,0.7494093000423163
RSVPLG03,km,20251030-103405,1.0.1,20251023-100704,724,Experiment,Both,1,Automatic,main,6,20251030-103451,global,global,750,H,S,A,A,H-A.png,S-A.png,hH,sS,mask-2.png,mask-1.png,h,1,0.5755701999878511,s,1,0.06148839998058975,0.048737999983131886,0.05059860006440431,0.0985643999883905,0.10128920001443475,0.7493344999384135
RSVPLG03,km,20251030-103405,1.0.1,20251023-100704,724,Experiment,Both,1,Automatic,main,7,20251030-103455,local,local,300,S,S,E,A,E-S.png,A-S.png,sS,sS,mask-2.png,mask-2.png,s,1,0.41902339993976057,s,1,0.09606770006939769,0.049561599968001246,0.05014820001088083,0.10000149998813868,0.09985290002077818,0.30015229992568493
RSVPLG03,km,20251030-103405,1.0.1,20251023-100704,724,Experiment,Both,1,Automatic,main,8,20251030-103459,local,local,300,H,H,E,E,E-H.png,E-H.png,hH,hH,mask-2.png,mask-4.png,h,1,1.6107620000839233,s,0,0.047978100017644465,0.05027259991038591,0.04821879998780787,0.09867059998214245,0.09862260008230805,0.30053569993469864
RSVPLG03,km,20251030-103405,1.0.1,20251023-100704,724,Experiment,Both,1,Automatic,main,9,20251030-103505,global,global,300,H,S,E,A,H-E.png,S-A.png,hH,sS,mask-1.png,mask-4.png,h,1,0.5570024999324232,s,1,0.3325491000432521,0.04993770003784448,0.049429900012910366,0.099408800015226,0.09811079991050065,0.2999983000336215
RSVPLG03,km,20251030-103405,1.0.1,20251023-100704,724,Experiment,Both,1,Automatic,main,10,20251030-103510,global,local,750,H,H,E,A,H-E.png,A-H.png,hH,hH,mask-1.png,mask-4.png,h,1,0.8575704999966547,h,1,0.09605140006169677,0.04878920002374798,0.04972320003435016,0.10075280000455678,0.10055949992965907,0.7500744999852031
RSVPLG03,km,20251030-103405,1.0.1,20251023-100704,724,Experiment,Both,1,Automatic,main,11,20251030-103515,local,local,750,S,H,E,E,E-S.png,E-H.png,sS,hH,mask-1.png,mask-1.png,s,1,1.186752500012517,h,1,0.11095579992979765,0.050445000058971345,0.04974310006946325,0.09965750004630536,0.1004879999672994,0.7511366000398993
RSVPLG03,km,20251030-103405,1.0.1,20251023-100704,724,Experiment,Both,1,Automatic,main,12,20251030-103520,global,global,750,S,S,E,E,S-E.png,S-E.png,sS,sS,mask-1.png,mask-3.png,s,1,0.3655157000757754,s,1,0.07930039998609573,0.048291999963112175,0.048816700000315905,0.09826240001711994,0.0978724000742659,0.7505279999459162
RSVPLG03,km,20251030-103405,1.0.1,20251023-100704,724,Experiment,Both,1,Automatic,main,13,20251030-103525,local,local,750,H,S,A,E,A-H.png,E-S.png,hH,sS,mask-1.png,mask-4.png,h,1,0.5351744000799954,s,1,0.06447390001267195,0.04960910009685904,0.049678900046274066,0.10127530002500862,0.09895939996931702,0.7519004000350833
RSVPLG03,km,20251030-103405,1.0.1,20251023-100704,724,Experiment,Both,1,Automatic,main,14,20251030-103529,global,local,750,S,H,E,A,S-E.png,A-H.png,sS,hH,mask-2.png,mask-1.png,s,1,0.47134040005039424,h,1,0.07677169993985444,0.049711700063198805,0.04973580001387745,0.09957160009071231,0.09957929991651326,0.7497201000805944
RSVPLG03,km,20251030-103405,1.0.1,20251023-100704,724,Experiment,Both,1,Automatic,main,15,20251030-103534,local,global,750,S,S,E,A,E-S.png,S-A.png,sS,sS,mask-4.png,mask-4.png,s,1,0.43792840000241995,s,1,0.10966920002829283,0.048102700035087764,0.04961890005506575,0.1004849000601098,0.10030060005374253,0.7510885000228882
RSVPLG03,km,20251030-103405,1.0.1,20251023-100704,724,Experiment,Both,1,Automatic,main,16,20251030-103539,local,global,750,S,H,E,E,E-S.png,H-E.png,sS,hH,mask-4.png,mask-1.png,s,1,0.6825733999721706,h,1,0.09304900001734495,0.047634400078095496,0.05042910005431622,0.1003214999800548,0.10057989996857941,0.7497602000366896
RSVPLG03,km,20251030-103405,1.0.1,20251023-100704,724,Experiment,Both,1,Automatic,main,17,20251030-103544,local,global,300,S,H,E,A,E-S.png,H-A.png,sS,hH,mask-3.png,mask-4.png,s,1,0.44836310006212443,h,1,0.03151939995586872,0.04951709997840226,0.04922350007109344,0.10016300005372614,0.09990450006444007,0.2997464999789372
RSVPLG03,km,20251030-103405,1.0.1,20251023-100704,724,Experiment,Both,1,Automatic,main,18,20251030-103548,global,global,300,S,S,E,E,S-E.png,S-E.png,sS,sS,mask-2.png,mask-1.png,s,1,0.47454329999163747,s,1,0.07706230005715042,0.049699799972586334,0.049666799954138696,0.10061960003804415,0.09953959996346384,0.30022610002197325
RSVPLG03,km,20251030-103405,1.0.1,20251023-100704,724,Experiment,Both,1,Automatic,main,19,20251030-103552,local,global,300,S,H,E,E,E-S.png,H-E.png,sS,hH,mask-4.png,mask-2.png,s,1,0.41941079997923225,h,1,0.12459470005705953,0.04972840007394552,0.04906910005956888,0.09856650000438094,0.09848240006249398,0.3002525999909267
RSVPLG03,km,20251030-103405,1.0.1,20251023-100704,724,Experiment,Both,1,Automatic,main,20,20251030-103557,local,global,750,S,S,E,E,E-S.png,S-E.png,sS,sS,mask-2.png,mask-1.png,s,1,1.4144617000129074,h,0,0.03160870005376637,0.051295200013555586,0.04977399995550513,0.10114759998396039,0.0993974000448361,0.7515458000125363
RSVPLG03,km,20251030-103405,1.0.1,20251023-100704,724,Experiment,Both,1,Automatic,main,21,20251030-103602,global,local,750,H,H,A,A,H-A.png,A-H.png,hH,hH,mask-4.png,mask-1.png,h,1,0.36926240008324385,h,1,0.11050900002010167,0.048924700007773936,0.05008159996941686,0.10063859994988889,0.10037319990806282,0.7498943000100553
RSVPLG03,km,20251030-103405,1.0.1,20251023-100704,724,Experiment,Both,1,Automatic,main,22,20251030-103607,global,local,750,H,H,E,E,H-E.png,E-H.png,hH,hH,mask-2.png,mask-4.png,h,1,0.7745187999680638,h,1,0.09435959998518229,0.05060539999976754,0.04847190005239099,0.10169819998554885,0.09895420004613698,0.7515532999532297
RSVPLG03,km,20251030-103405,1.0.1,20251023-100704,724,Experiment,Both,1,Automatic,main,23,20251030-103612,local,local,300,S,S,E,E,E-S.png,E-S.png,sS,sS,mask-4.png,mask-1.png,s,1,1.0851780999219045,h,0,0.045757099986076355,0.05081939999945462,0.048565999954007566,0.10170250001829118,0.10008689993992448,0.30034010007511824
RSVPLG03,km,20251030-103405,1.0.1,20251023-100704,724,Experiment,Both,1,Automatic,main,24,20251030-103617,global,global,750,S,S,A,A,S-A.png,S-A.png,sS,sS,mask-3.png,mask-1.png,s,1,0.6239260999718681,s,1,0.09760049998294562,0.049430000013671815,0.04971259995363653,0.1000046000117436,0.09988279989920557,0.7505222000181675
RSVPLG03,km,20251030-103405,1.0.1,20251023-100704,724,Experiment,Both,1,Automatic,main,25,20251030-103621,local,global,750,S,H,E,E,E-S.png,H-E.png,sS,hH,mask-1.png,mask-4.png,s,1,1.1351957999868318,h,1,0.01341719995252788,0.050623600021936,0.04983979999087751,0.10192340007051826,0.0996191999875009,0.7522242000559345
RSVPLG03,km,20251030-103405,1.0.1,20251023-100704,724,Experiment,Both,1,Automatic,main,26,20251030-103629,local,global,300,H,H,E,E,E-H.png,H-E.png,hH,hH,mask-3.png,mask-4.png,h,1,1.7313168999971822,h,1,0.9750598999671638,0.048772200010716915,0.04944560001604259,0.10070369997993112,0.10084790003020316,0.30000719998497516
RSVPLG03,km,20251030-103405,1.0.1,20251023-100704,724,Experiment,Both,1,Automatic,main,27,20251030-103636,global,global,750,S,S,A,A,S-A.png,S-A.png,sS,sS,mask-4.png,mask-4.png,s,1,0.4087218000786379,s,1,0.1111148000927642,0.04968900000676513,0.04903370002284646,0.09915819996967912,0.09962650004308671,0.7501785999629647
RSVPLG03,km,20251030-103405,1.0.1,20251023-100704,724,Experiment,Both,1,Automatic,main,28,20251030-103641,global,local,300,H,H,A,E,H-A.png,E-H.png,hH,hH,mask-1.png,mask-2.png,h,1,0.6260467999381945,h,1,0.9122205999447033,0.04970199998933822,0.0496230999706313,0.10155279992613941,0.10127450001891702,0.3003119999775663
RSVPLG03,km,20251030-103405,1.0.1,20251023-100704,724,Experiment,Both,1,Automatic,main,29,20251030-103646,global,global,300,S,S,E,E,S-E.png,S-E.png,sS,sS,mask-1.png,mask-3.png,s,1,0.4074816999491304,s,1,0.11173500004224479,0.05006659997161478,0.049266899935901165,0.09894100006204098,0.09991380001883954,0.3002122000325471
RSVPLG03,km,20251030-103405,1.0.1,20251023-100704,724,Experiment,Both,1,Automatic,main,30,20251030-103650,global,global,300,S,H,A,E,S-A.png,H-E.png,sS,hH,mask-1.png,mask-3.png,s,1,0.3710039999568835,h,1,0.07962149998638779,0.04972710006404668,0.0497163999825716,0.09960640000645071,0.0995699999621138,0.30036190000828356
RSVPLG03,km,20251030-103405,1.0.1,20251023-100704,724,Experiment,Both,1,Automatic,main,31,20251030-103654,local,local,750,S,H,A,E,A-S.png,E-H.png,sS,hH,mask-3.png,mask-4.png,s,1,1.8345538000576198,h,1,0.2557758999755606,0.048917600070126355,0.05104040005244315,0.09977830003481358,0.10018160007894039,0.7486843999940902
RSVPLG03,km,20251030-103405,1.0.1,20251023-100704,724,Experiment,Both,1,Automatic,main,32,20251030-103700,global,global,750,S,S,A,E,S-A.png,S-E.png,sS,sS,mask-3.png,mask-3.png,s,1,0.7047606999985874,s,1,0.09536089992616326,0.04982749989721924,0.050376600003801286,0.09979859995655715,0.10088500007987022,0.7491017999127507
RSVPLG03,km,20251030-103405,1.0.1,20251023-100704,724,Experiment,Both,1,Automatic,main,33,20251030-103705,local,global,750,H,H,E,A,E-H.png,H-A.png,hH,hH,mask-1.png,mask-4.png,h,1,1.1475622999714687,s,0,0.15961750003043562,0.05081190005876124,0.04914470005314797,0.09928099997341633,0.09986359998583794,0.7507954000029713
RSVPLG03,km,20251030-103405,1.0.1,20251023-100704,724,Experiment,Both,1,Automatic,main,34,20251030-103711,local,global,750,S,S,A,A,A-S.png,S-A.png,sS,sS,mask-2.png,mask-4.png,s,1,1.49878940009512,h,0,0.06270529993344098,0.04973129997961223,0.05053130001761019,0.09923159994650632,0.10053269995842129,0.7492005999665707
RSVPLG03,km,20251030-103405,1.0.1,20251023-100704,724,Experiment,Both,1,Automatic,main,35,20251030-103717,local,local,300,H,S,E,E,E-H.png,E-S.png,hH,sS,mask-3.png,mask-1.png,h,1,0.7779302999842912,s,1,0.09419360000174493,0.04929120000451803,0.048704400076530874,0.1005457000574097,0.10044980002567172,0.3003951000282541
RSVPLG03,km,20251030-103405,1.0.1,20251023-100704,724,Experiment,Both,1,Automatic,main,36,20251030-103721,local,global,750,H,S,E,A,E-H.png,S-A.png,hH,sS,mask-4.png,mask-2.png,h,1,0.870337100001052,s,1,0.06350270006805658,0.04990149999503046,0.04890020005404949,0.1016755000455305,0.0997021000366658,0.7516650999896228
RSVPLG03,km,20251030-103405,1.0.1,20251023-100704,724,Experiment,Both,1,Automatic,main,37,20251030-103726,global,global,300,S,S,E,A,S-E.png,S-A.png,sS,sS,mask-4.png,mask-4.png,s,1,0.447112699970603,s,1,0.06236500001978129,0.049725200049579144,0.050326800090260804,0.09979650005698204,0.10168149997480214,0.2993537000147626
RSVPLG03,km,20251030-103405,1.0.1,20251023-100704,724,Experiment,Both,1,Automatic,main,38,20251030-103731,local,global,750,H,H,A,E,A-H.png,H-E.png,hH,hH,mask-4.png,mask-4.png,h,1,0.8715453000040725,h,1,0.09325649996753782,0.05077289999462664,0.04871979996096343,0.10018089995719492,0.10058969992678612,0.7521546999923885
RSVPLG03,km,20251030-103405,1.0.1,20251023-100704,724,Experiment,Both,1,Automatic,main,39,20251030-103736,global,local,300,H,H,A,A,H-A.png,A-H.png,hH,hH,mask-4.png,mask-2.png,h,1,0.49708270002156496,h,1,0.09356199996545911,0.04857029998674989,0.050391500000841916,0.09877399995457381,0.09988570003770292,0.2991412999108434
RSVPLG03,km,20251030-103405,1.0.1,20251023-100704,724,Experiment,Both,1,Automatic,main,40,20251030-103740,global,global,300,H,H,E,E,H-E.png,H-E.png,hH,hH,mask-4.png,mask-1.png,h,1,0.3824789000209421,h,1,0.07949819997884333,0.049733699997887015,0.04970179998781532,0.10064710001461208,0.09957720001693815,0.30019259999971837
RSVPLG03,km,20251030-103405,1.0.1,20251023-100704,724,Experiment,Both,1,Automatic,main,41,20251030-103744,local,global,300,S,S,A,E,A-S.png,S-E.png,sS,sS,mask-3.png,mask-2.png,h,0,1.1992725000018254,s,1,0.03156349994242191,0.04892390000168234,0.04859640006907284,0.09862910001538694,0.09932310006115586,0.29975429992191494
RSVPLG03,km,20251030-103405,1.0.1,20251023-100704,724,Experiment,Both,1,Automatic,main,42,20251030-103749,local,global,300,H,H,A,E,A-H.png,H-E.png,hH,hH,mask-1.png,mask-4.png,h,1,2.4421008999925107,s,0,0.015503899892792106,0.04950739990454167,0.04825440002605319,0.09818689990788698,0.10018399998079985,0.2993313999613747
RSVPLG03,km,20251030-103405,1.0.1,20251023-100704,724,Experiment,Both,1,Automatic,main,43,20251030-103755,local,global,300,H,H,A,E,A-H.png,H-E.png,hH,hH,mask-1.png,mask-1.png,h,1,0.8721218999708071,h,1,0.09539609996136278,0.04955800005700439,0.050508599961176515,0.09862649999558926,0.0998993000248447,0.2986388000426814
RSVPLG03,km,20251030-103405,1.0.1,20251023-100704,724,Experiment,Both,1,Automatic,main,44,20251030-103800,local,global,750,S,S,E,A,E-S.png,S-A.png,sS,sS,mask-2.png,mask-2.png,s,1,0.5811010000761598,h,0,0.11051160003989935,0.04997259995434433,0.049406199948862195,0.09992649999912828,0.09907220001332462,0.7500033000251278
RSVPLG03,km,20251030-103405,1.0.1,20251023-100704,724,Experiment,Both,1,Automatic,main,45,20251030-103805,global,local,300,H,S,E,E,H-E.png,E-S.png,hH,sS,mask-3.png,mask-2.png,s,0,0.591976199997589,s,1,0.8787200999213383,0.04886589990928769,0.04890739999245852,0.09949439996853471,0.1005511999828741,0.30001819995231926
RSVPLG03,km,20251030-103405,1.0.1,20251023-100704,724,Experiment,Both,1,Automatic,main,46,20251030-103810,local,global,750,S,S,E,A,E-S.png,S-A.png,sS,sS,mask-1.png,mask-4.png,s,1,0.4263614999363199,s,1,0.10922500002197921,0.051954900030978024,0.04875650000758469,0.10202740004751831,0.09961140004452318,0.7523989999899641
RSVPLG03,km,20251030-103405,1.0.1,20251023-100704,724,Experiment,Both,1,Automatic,main,47,20251030-103815,local,local,300,H,H,A,A,A-H.png,A-H.png,hH,hH,mask-3.png,mask-1.png,h,1,0.5135568999685347,h,1,0.11100680008530617,0.04893389996141195,0.048483400023542345,0.09898510004859418,0.09930020000319928,0.29963949997909367
RSVPLG03,km,20251030-103405,1.0.1,20251023-100704,724,Experiment,Both,1,Automatic,main,48,20251030-103819,local,global,300,H,S,A,A,A-H.png,S-A.png,hH,sS,mask-2.png,mask-1.png,h,1,0.4623637000331655,h,0,0.19077480002306402,0.0507793000433594,0.05022450000979006,0.10110770002938807,0.10148630000185221,0.300723799970001
RSVPLG03,km,20251030-103405,1.0.1,20251023-100704,724,Experiment,Both,1,Automatic,main,49,20251030-103823,global,local,300,S,S,E,A,S-E.png,A-S.png,sS,sS,mask-2.png,mask-2.png,s,1,0.452797899954021,h,0,0.0804092000471428,0.04973289999179542,0.05174210004042834,0.09956130001228303,0.100576400058344,0.2993588999379426
RSVPLG03,km,20251030-103405,1.0.1,20251023-100704,724,Experiment,Both,1,Automatic,main,50,20251030-103828,global,local,750,S,H,E,A,S-E.png,A-H.png,sS,hH,mask-1.png,mask-3.png,s,1,0.45716560003347695,h,1,0.12391860003117472,0.05082299991045147,0.04955769993830472,0.09939889993984252,0.0992469999473542,0.7515716999769211
RSVPLG03,km,20251030-103405,1.0.1,20251023-100704,724,Experiment,Both,1,Automatic,main,51,20251030-103834,global,local,300,H,H,E,A,H-E.png,A-H.png,hH,hH,mask-1.png,mask-2.png,h,1,0.5618388999719173,h,1,0.09668439999222755,0.05010510003194213,0.051365300081670284,0.09999670006800443,0.10031120001804084,0.299453999963589
RSVPLG03,km,20251030-103405,1.0.1,20251023-100704,724,Experiment,Both,1,Automatic,main,52,20251030-103838,local,local,300,S,H,E,A,E-S.png,A-H.png,sS,hH,mask-4.png,mask-4.png,s,1,0.4700444999616593,h,1,0.09175140003208071,0.04937459994107485,0.05050359992310405,0.09994929993990809,0.10019659996032715,0.29959780001081526
RSVPLG03,km,20251030-103405,1.0.1,20251023-100704,724,Experiment,Both,1,Automatic,main,53,20251030-103842,local,global,300,H,S,E,E,E-H.png,S-E.png,hH,sS,mask-3.png,mask-2.png,h,1,0.5936766000231728,h,0,0.11202580004464835,0.05136569996830076,0.049318899982608855,0.10001860000193119,0.09999120002612472,0.3003717999672517
RSVPLG03,km,20251030-103405,1.0.1,20251023-100704,724,Experiment,Both,1,Automatic,main,54,20251030-103847,local,local,750,S,S,E,E,E-S.png,E-S.png,sS,sS,mask-1.png,mask-1.png,s,1,0.7505099000409245,s,1,0.07654909999109805,0.05075130006298423,0.05055479996372014,0.10053769999649376,0.09936480002943426,0.7511816000333056
RSVPLG03,km,20251030-103405,1.0.1,20251023-100704,724,Experiment,Both,1,Automatic,main,55,20251030-103852,local,global,750,S,H,E,E,E-S.png,H-E.png,sS,hH,mask-2.png,mask-1.png,s,1,0.6998464000644162,h,1,0.08043939992785454,0.04991380008868873,0.051514600054360926,0.10181770008057356,0.10058750002644956,0.7512133000418544
RSVPLG03,km,20251030-103405,1.0.1,20251023-100704,724,Experiment,Both,1,Automatic,main,56,20251030-103857,local,local,750,S,S,E,E,E-S.png,E-S.png,sS,sS,mask-2.png,mask-4.png,s,1,0.6885206000879407,s,1,0.06329019996337593,0.049947099993005395,0.050204999977722764,0.0990603999234736,0.09892809996381402,0.7506389999762177
RSVPLG03,km,20251030-103405,1.0.1,20251023-100704,724,Experiment,Both,1,Automatic,main,57,20251030-103901,local,local,750,S,S,E,E,E-S.png,E-S.png,sS,sS,mask-1.png,mask-3.png,s,1,0.3611213999101892,s,1,0.07942640001419932,0.05112720001488924,0.0498649999499321,0.10152890009339899,0.0998419999377802,0.7525041000917554
RSVPLG03,km,20251030-103405,1.0.1,20251023-100704,724,Experiment,Both,1,Automatic,main,58,20251030-103906,local,local,750,H,S,E,A,E-H.png,A-S.png,hH,sS,mask-2.png,mask-2.png,h,1,0.4088319999864325,s,1,0.07646910008043051,0.04959039995446801,0.04818060004618019,0.10051799996290356,0.10006830003112555,0.750688900006935
RSVPLG03,km,20251030-103405,1.0.1,20251023-100704,724,Experiment,Both,1,Automatic,main,59,20251030-103911,global,global,750,H,S,E,E,H-E.png,S-E.png,hH,sS,mask-1.png,mask-3.png,h,1,0.45516090001910925,s,1,0.08011659991461784,0.049740000045858324,0.050042000017128885,0.1003218999831006,0.09985659993253648,0.7505826000124216
RSVPLG03,km,20251030-103405,1.0.1,20251023-100704,724,Experiment,Both,1,Automatic,main,60,20251030-103915,global,global,300,S,S,A,A,S-A.png,S-A.png,sS,sS,mask-1.png,mask-2.png,s,1,0.5204609999200329,s,1,0.09592660004273057,0.04883179999887943,0.05173319997265935,0.09870470000896603,0.10056639998219907,0.29827910009771585
RSVPLG03,km,20251030-103405,1.0.1,20251023-100704,724,Experiment,Both,1,Automatic,main,61,20251030-103920,local,local,300,S,H,E,E,E-S.png,E-H.png,sS,hH,mask-4.png,mask-3.png,s,1,0.36759859998710454,h,1,0.04562960006296635,0.050725099979899824,0.050732400035485625,0.10058239998761564,0.10056920000351965,0.29981340002268553
RSVPLG03,km,20251030-103405,1.0.1,20251023-100704,724,Experiment,Both,1,Automatic,main,62,20251030-103924,global,local,300,S,S,E,A,S-E.png,A-S.png,sS,sS,mask-3.png,mask-1.png,h,0,2.0325375999091193,s,1,0.030508499941788614,0.04859640006907284,0.0512810000218451,0.09992230008356273,0.10083260003011674,0.29845430003479123
RSVPLG03,km,20251030-103405,1.0.1,20251023-100704,724,Experiment,Both,1,Automatic,main,63,20251030-103930,global,global,300,S,H,E,A,S-E.png,H-A.png,sS,hH,mask-1.png,mask-2.png,s,1,0.9417163000907749,h,1,0.04753819992765784,0.049232699908316135,0.0511681999778375,0.10049429989885539,0.0994453999446705,0.299927799962461
RSVPLG03,km,20251030-103405,1.0.1,20251023-100704,724,Experiment,Both,1,Automatic,main,64,20251030-103934,global,local,300,S,H,E,A,S-E.png,A-H.png,sS,hH,mask-4.png,mask-2.png,s,1,0.3946273000910878,h,1,0.061881199944764376,0.05075489997398108,0.04848220001440495,0.09973370004445314,0.09888539998792112,0.3009818000718951
RSVPLG03,km,20251030-103405,1.0.1,20251023-100704,724,Experiment,Both,1,Automatic,main,65,20251030-103939,global,local,750,H,S,A,E,H-A.png,E-S.png,hH,sS,mask-3.png,mask-4.png,h,1,0.749851300031878,s,1,0.08279819996096194,0.049683499964885414,0.049609700101427734,0.09994039998855442,0.10032020008657128,0.7499146999325603
RSVPLG03,km,20251030-103405,1.0.1,20251023-100704,724,Experiment,Both,1,Automatic,main,66,20251030-103944,global,local,750,S,S,E,E,S-E.png,E-S.png,sS,sS,mask-1.png,mask-4.png,s,1,0.41811690002214164,s,1,0.08017329999711365,0.04871230002027005,0.04934330005198717,0.0995775000192225,0.10015109996311367,0.7503527000080794
RSVPLG03,km,20251030-103405,1.0.1,20251023-100704,724,Experiment,Both,1,Automatic,main,67,20251030-103948,global,global,750,S,H,A,E,S-A.png,H-E.png,sS,hH,mask-4.png,mask-4.png,s,1,0.7931843999540433,h,1,0.09801109996624291,0.048717500059865415,0.048539699986577034,0.09853850002400577,0.099484600010328,0.7507482999935746
RSVPLG03,km,20251030-103405,1.0.1,20251023-100704,724,Experiment,Both,1,Automatic,main,68,20251030-103953,global,global,750,H,H,E,E,H-E.png,H-E.png,hH,hH,mask-4.png,mask-1.png,h,1,0.5859302999451756,h,1,0.11492790002375841,0.050872799940407276,0.04919980000704527,0.1008418999845162,0.09981439996045083,0.7511423999676481
RSVPLG03,km,20251030-103405,1.0.1,20251023-100704,724,Experiment,Both,1,Automatic,main,69,20251030-103958,global,global,300,S,H,A,A,S-A.png,H-A.png,sS,hH,mask-1.png,mask-4.png,s,1,0.5894310999428853,h,1,0.04352529998868704,0.04896579997148365,0.050000400049611926,0.09989529999438673,0.10008660005405545,0.2990244999527931
RSVPLG03,km,20251030-103405,1.0.1,20251023-100704,724,Experiment,Both,1,Automatic,main,70,20251030-104002,global,local,300,H,S,E,E,H-E.png,E-S.png,hH,sS,mask-2.png,mask-3.png,h,1,0.944988900097087,h,0,0.09542260004673153,0.050703999935649335,0.049994700006209314,0.10134609998203814,0.09867750003468245,0.30037529999390244
RSVPLG03,km,20251030-103405,1.0.1,20251023-100704,724,Experiment,Both,1,Automatic,main,71,20251030-104007,local,local,300,S,S,E,E,E-S.png,E-S.png,sS,sS,mask-1.png,mask-3.png,s,1,0.33666730008553714,s,1,0.07780840003397316,0.05085160001181066,0.05151540006045252,0.10090940003283322,0.10029060009401292,0.299912599963136
RSVPLG03,km,20251030-103405,1.0.1,20251023-100704,724,Experiment,Both,1,Automatic,main,72,20251030-104011,local,local,750,S,S,E,E,E-S.png,E-S.png,sS,sS,mask-1.png,mask-4.png,s,1,0.48806170001626015,s,1,0.07797139999456704,0.049862399930134416,0.04909790004603565,0.09939929994288832,0.1006002000067383,0.7494109999388456
RSVPLG03,km,20251030-103405,1.0.1,20251023-100704,724,Experiment,Both,1,Automatic,main,73,20251030-104016,global,global,750,H,S,E,A,H-E.png,S-A.png,hH,sS,mask-4.png,mask-2.png,h,1,0.44155460002366453,s,1,0.09632380004040897,0.04837289999704808,0.05034439999144524,0.10035229998175055,0.10117369994986802,0.7491286000004038
RSVPLG03,km,20251030-103405,1.0.1,20251023-100704,724,Experiment,Both,1,Automatic,main,74,20251030-104021,global,local,750,S,S,E,A,S-E.png,A-S.png,sS,sS,mask-3.png,mask-2.png,s,1,0.6261318000033498,h,0,0.06151499995030463,0.051697300048545,0.05171789997257292,0.10171140008606017,0.10185800003819168,0.7500681000528857
RSVPLG03,km,20251030-103405,1.0.1,20251023-100704,724,Experiment,Both,1,Automatic,main,75,20251030-104026,local,global,300,S,H,A,A,A-S.png,H-A.png,sS,hH,mask-3.png,mask-4.png,s,1,0.9240381999406964,h,1,0.04529889998957515,0.050161999999545515,0.050142399966716766,0.10045929998159409,0.10045150003861636,0.3003245999570936
RSVPLG03,km,20251030-103405,1.0.1,20251023-100704,724,Experiment,Both,1,Automatic,main,76,20251030-104033,global,local,300,S,H,E,E,S-E.png,E-H.png,sS,hH,mask-2.png,mask-4.png,h,0,1.2526392999570817,h,1,0.09545590006746352,0.0497208999004215,0.050132200005464256,0.10159619990736246,0.10058019997086376,0.30050619994290173
RSVPLG03,km,20251030-103405,1.0.1,20251023-100704,724,Experiment,Both,1,Automatic,main,77,20251030-104038,local,global,300,H,H,A,A,A-H.png,H-A.png,hH,hH,mask-4.png,mask-1.png,h,1,0.7193167000077665,h,1,0.07463829999323934,0.04853010002989322,0.051538400002755225,0.10021810000762343,0.10121789993718266,0.2988211000338197
RSVPLG03,km,20251030-103405,1.0.1,20251023-100704,724,Experiment,Both,1,Automatic,main,78,20251030-104043,global,local,300,S,S,A,E,S-A.png,E-S.png,sS,sS,mask-2.png,mask-4.png,s,1,0.5543971000006422,s,1,0.2516035999869928,0.04972020001150668,0.05071340000722557,0.09952549997251481,0.10050529998261482,0.29976429999805987
RSVPLG03,km,20251030-103405,1.0.1,20251023-100704,724,Experiment,Both,1,Automatic,main,79,20251030-104047,global,global,300,H,H,A,E,H-A.png,H-E.png,hH,hH,mask-3.png,mask-3.png,h,1,0.44824260007590055,h,1,0.09321439999621361,0.049502799985930324,0.05053879995830357,0.10040130000561476,0.100309900008142,0.2996571999974549
RSVPLG03,km,20251030-103405,1.0.1,20251023-100704,724,Experiment,Both,1,Automatic,main,80,20251030-104051,local,local,300,S,H,E,E,E-S.png,E-H.png,sS,hH,mask-3.png,mask-3.png,s,1,0.38196579995565116,h,1,0.06468269997276366,0.05060680001042783,0.050137899932451546,0.09942350001074374,0.10032749990932643,0.29884420009329915
RSVPLG03,km,20251030-103405,1.0.1,20251023-100704,724,Experiment,Both,1,Automatic,main,81,20251030-104055,global,global,300,S,H,E,A,S-E.png,H-A.png,sS,hH,mask-2.png,mask-3.png,h,0,1.135955199948512,h,1,0.10851170006208122,0.050401699962094426,0.04865610005799681,0.10011480003595352,0.10060990008059889,0.3014686999376863
RSVPLG03,km,20251030-103405,1.0.1,20251023-100704,724,Experiment,Both,1,Automatic,main,82,20251030-104100,global,local,300,H,S,E,A,H-E.png,A-S.png,hH,sS,mask-3.png,mask-2.png,h,1,0.9374509000917897,h,0,0.1110140000237152,0.05018480005674064,0.05019380000885576,0.0999196000630036,0.10126740008126944,0.2999943000031635
RSVPLG03,km,20251030-103405,1.0.1,20251023-100704,724,Experiment,Both,1,Automatic,main,83,20251030-104105,local,global,750,S,S,E,A,E-S.png,S-A.png,sS,sS,mask-4.png,mask-3.png,s,1,0.5324852000921965,s,1,0.07955629995558411,0.049044899991713464,0.05073280003853142,0.09816729999147356,0.1004145999904722,0.7494163999799639
RSVPLG03,km,20251030-103405,1.0.1,20251023-100704,724,Experiment,Both,1,Automatic,main,84,20251030-104110,global,local,750,H,S,E,E,H-E.png,E-S.png,hH,sS,mask-1.png,mask-4.png,h,1,0.3768898999551311,s,1,0.8434664000524208,0.049729500082321465,0.04943060001824051,0.09858840005472302,0.09960439999122173,0.7505729000549763
RSVPLG03,km,20251030-103405,1.0.1,20251023-100704,724,Experiment,Both,1,Automatic,main,85,20251030-104115,global,local,750,H,H,E,E,H-E.png,E-H.png,hH,hH,mask-3.png,mask-4.png,h,1,1.0922448999481276,h,1,0.11017300002276897,0.04898339998908341,0.050640500034205616,0.09989080007653683,0.10039350006263703,0.7491931000258774
RSVPLG03,km,20251030-103405,1.0.1,20251023-100704,724,Experiment,Both,1,Automatic,main,86,20251030-104120,local,global,750,S,S,A,A,A-S.png,S-A.png,sS,sS,mask-1.png,mask-4.png,h,0,1.048042899928987,s,1,0.0317165000597015,0.04981750005390495,0.050619599991478026,0.09991770004853606,0.10025150002911687,0.7487196000292897
RSVPLG03,km,20251030-103405,1.0.1,20251023-100704,724,Experiment,Both,1,Automatic,main,87,20251030-104126,local,local,750,H,S,A,A,A-H.png,A-S.png,hH,sS,mask-1.png,mask-2.png,h,1,5.08270440006163,s,1,0.02985399996396154,0.04812689998652786,0.050498299999162555,0.10005010000895709,0.10044439998455346,0.7498286999762058
RSVPLG03,km,20251030-103405,1.0.1,20251023-100704,724,Experiment,Both,1,Automatic,main,88,20251030-104135,local,local,300,S,H,E,E,E-S.png,E-H.png,sS,hH,mask-4.png,mask-2.png,h,0,0.8774957000277936,h,1,0.07802849996369332,0.04962649999652058,0.050859599956311285,0.10037789994385093,0.10084410000126809,0.2992128999903798
RSVPLG03,km,20251030-103405,1.0.1,20251023-100704,724,Experiment,Both,1,Automatic,main,89,20251030-104139,global,local,300,S,S,E,A,S-E.png,A-S.png,sS,sS,mask-3.png,mask-1.png,h,0,1.2447853001067415,s,1,0.06099030002951622,0.049923700047656894,0.04850949998944998,0.09938460006378591,0.09933040000032634,0.3006699000252411
RSVPLG03,km,20251030-103405,1.0.1,20251023-100704,724,Experiment,Both,1,Automatic,main,90,20251030-104144,global,global,300,H,H,E,E,H-E.png,H-E.png,hH,hH,mask-2.png,mask-4.png,h,1,0.4821728999959305,h,1,0.07795369997620583,0.04972110001835972,0.049799100030213594,0.09957219997886568,0.1016043999698013,0.29854280001018196
RSVPLG03,km,20251030-103405,1.0.1,20251023-100704,724,Experiment,Both,1,Automatic,main,91,20251030-104149,global,global,750,H,H,E,A,H-E.png,H-A.png,hH,hH,mask-3.png,mask-2.png,h,1,0.36227749998215586,h,1,0.09145059995353222,0.04989449994172901,0.049558699945919216,0.09990919998381287,0.10001050005666912,0.7501522999955341
RSVPLG03,km,20251030-103405,1.0.1,20251023-100704,724,Experiment,Both,1,Automatic,main,92,20251030-104153,global,local,750,S,S,E,E,S-E.png,E-S.png,sS,sS,mask-1.png,mask-4.png,s,1,0.32657080003991723,s,1,0.06421670003328472,0.04865410004276782,0.05023210006766021,0.09836639999412,0.10130550002213567,0.7497792999492958
RSVPLG03,km,20251030-103405,1.0.1,20251023-100704,724,Experiment,Both,1,Automatic,main,93,20251030-104158,global,local,750,S,S,E,E,S-E.png,E-S.png,sS,sS,mask-2.png,mask-2.png,s,1,0.24991629994474351,s,1,0.07519320002757013,0.04969909996725619,0.04970339999999851,0.10164759994950145,0.09954749990720302,0.7531804000027478
RSVPLG03,km,20251030-103405,1.0.1,20251023-100704,724,Experiment,Both,1,Automatic,main,94,20251030-104202,local,local,750,S,S,E,E,E-S.png,E-S.png,sS,sS,mask-3.png,mask-4.png,s,1,0.33266549999825656,s,1,0.11168410000391304,0.049406600068323314,0.0502579000312835,0.10027639998588711,0.10011430003214628,0.750384800019674
RSVPLG03,km,20251030-103405,1.0.1,20251023-100704,724,Experiment,Both,1,Automatic,main,95,20251030-104207,global,global,300,H,H,A,A,H-A.png,H-A.png,hH,hH,mask-2.png,mask-3.png,h,1,0.41117879992816597,h,1,0.09297260001767427,0.04959650000091642,0.05041480006184429,0.10013070004060864,0.09886230004485697,0.3010882999515161
RSVPLG03,km,20251030-103405,1.0.1,20251023-100704,724,Experiment,Both,1,Automatic,main,96,20251030-104211,local,global,750,H,H,A,A,A-H.png,H-A.png,hH,hH,mask-2.png,mask-3.png,h,1,0.8542598000494763,h,1,0.07839929999317974,0.049397499999031425,0.049735100008547306,0.09991600003559142,0.09959330002311617,0.7506425000028685
RSVPLG03,km,20251030-103405,1.0.1,20251023-100704,724,Experiment,Both,1,Automatic,main,97,20251030-104216,global,local,750,H,S,E,E,H-E.png,E-S.png,hH,sS,mask-2.png,mask-4.png,h,1,0.5048777000047266,s,1,0.04649760003667325,0.04761790006887168,0.05073629994876683,0.09813419997226447,0.10068999999202788,0.7492229000199586
RSVPLG03,km,20251030-103405,1.0.1,20251023-100704,724,Experiment,Both,1,Automatic,main,98,20251030-104221,local,global,300,S,H,E,A,E-S.png,H-A.png,sS,hH,mask-4.png,mask-3.png,s,1,0.7805390999419615,h,1,0.06364020006731153,0.05072900000959635,0.04830020002555102,0.10054529993794858,0.09982180001679808,0.30110489996150136
RSVPLG03,km,20251030-103405,1.0.1,20251023-100704,724,Experiment,Both,1,Automatic,main,99,20251030-104225,global,local,300,S,H,E,E,S-E.png,E-H.png,sS,hH,mask-1.png,mask-1.png,s,1,0.6857146000256762,h,1,0.9102851001080126,0.04920370003674179,0.04858429997693747,0.0979185999603942,0.09958259994164109,0.29949570004828274
RSVPLG03,km,20251030-103405,1.0.1,20251023-100704,724,Experiment,Both,1,Automatic,main,100,20251030-104231,global,global,750,S,S,E,E,S-E.png,S-E.png,sS,sS,mask-2.png,mask-4.png,s,1,0.6115690999431536,s,1,0.05955000000540167,0.04898469999898225,0.049763299990445375,0.10033050004858524,0.10088359995279461,0.749130200012587
RSVPLG03,km,20251030-103405,1.0.1,20251023-100704,724,Experiment,Both,1,Automatic,main,101,20251030-104238,global,global,750,H,H,A,A,H-A.png,H-A.png,hH,hH,mask-3.png,mask-4.png,h,1,0.5760555999586359,h,1,0.07800089998636395,0.04941790003795177,0.04928499995730817,0.09999090002384037,0.10062529996503145,0.75065469997935
RSVPLG03,km,20251030-103405,1.0.1,20251023-100704,724,Experiment,Both,1,Automatic,main,102,20251030-104243,local,global,300,H,S,A,A,A-H.png,S-A.png,hH,sS,mask-3.png,mask-1.png,h,1,0.44332840002607554,s,1,0.02962920011486858,0.04971169994678348,0.04870749998372048,0.10165179998148233,0.10056300007272512,0.3011966999620199
RSVPLG03,km,20251030-103405,1.0.1,20251023-100704,724,Experiment,Both,1,Automatic,main,103,20251030-104247,local,global,300,H,S,E,A,E-H.png,S-A.png,hH,sS,mask-3.png,mask-3.png,h,1,0.5291663000825793,s,1,0.04608590004500002,0.04859250003937632,0.05014360009226948,0.09941789996810257,0.10095750004984438,0.2993774999631569
RSVPLG03,km,20251030-103405,1.0.1,20251023-100704,724,Experiment,Both,1,Automatic,main,104,20251030-104251,global,global,750,H,H,A,E,H-A.png,H-E.png,hH,hH,mask-3.png,mask-3.png,h,1,0.34400889999233186,h,1,0.10893679992295802,0.04967660002876073,0.0497397999279201,0.09942980005871505,0.10125559999141842,0.749438300030306
RSVPLG03,km,20251030-103405,1.0.1,20251023-100704,724,Experiment,Both,1,Automatic,main,105,20251030-104256,global,local,300,H,S,A,A,H-A.png,A-S.png,hH,sS,mask-3.png,mask-3.png,h,1,1.2081387999933213,s,1,0.9436553999548778,0.04998020001221448,0.05046779999975115,0.10071129992138594,0.10198869998566806,0.29904890002217144
RSVPLG03,km,20251030-103405,1.0.1,20251023-100704,724,Experiment,Both,1,Automatic,main,106,20251030-104302,global,global,300,S,H,A,E,S-A.png,H-E.png,sS,hH,mask-3.png,mask-2.png,s,1,0.8907044000225142,h,1,0.06255959998816252,0.05083259998355061,0.049883399973623455,0.10091359994839877,0.09900819999165833,0.3017796999774873
RSVPLG03,km,20251030-103405,1.0.1,20251023-100704,724,Experiment,Both,1,Automatic,main,107,20251030-104307,global,global,300,S,H,E,E,S-E.png,H-E.png,sS,hH,mask-2.png,mask-1.png,s,1,0.3855030999984592,h,1,0.06613580009434372,0.050493799964897335,0.04978340002708137,0.10134940000716597,0.09964599995873868,0.3013879000209272
RSVPLG03,km,20251030-103405,1.0.1,20251023-100704,724,Experiment,Both,1,Automatic,main,108,20251030-104311,local,local,300,S,H,A,E,A-S.png,E-H.png,sS,hH,mask-2.png,mask-1.png,s,1,0.37473070004489273,h,1,0.07965560001321137,0.0497361000161618,0.04972080001607537,0.09958780009765178,0.09956479992251843,0.3001264000777155
RSVPLG03,km,20251030-103405,1.0.1,20251023-100704,724,Experiment,Both,1,Automatic,main,109,20251030-104315,global,local,750,H,S,E,E,H-E.png,E-S.png,hH,sS,mask-4.png,mask-3.png,h,1,1.4056989999953657,s,1,0.0787636999739334,0.04971769999247044,0.050716300029307604,0.09852979995775968,0.1006392000708729,0.7497403998859227
RSVPLG03,km,20251030-103405,1.0.1,20251023-100704,724,Experiment,Both,1,Automatic,main,110,20251030-104321,local,local,750,S,S,E,A,E-S.png,A-S.png,sS,sS,mask-1.png,mask-3.png,s,1,0.4381057999562472,s,1,0.07648729998618364,0.05057289998512715,0.05143800005316734,0.09943070006556809,0.10023059998638928,0.7497733000200242
RSVPLG03,km,20251030-103405,1.0.1,20251023-100704,724,Experiment,Both,1,Automatic,main,111,20251030-104325,local,local,300,S,S,E,E,E-S.png,E-S.png,sS,sS,mask-2.png,mask-3.png,s,1,0.44178840005770326,s,1,0.09504550008568913,0.05013039999175817,0.049601800041273236,0.09981720009818673,0.09909020003397018,0.3009462000336498
RSVPLG03,km,20251030-103405,1.0.1,20251023-100704,724,Experiment,Both,1,Automatic,main,112,20251030-104329,local,global,750,S,H,E,E,E-S.png,H-E.png,sS,hH,mask-1.png,mask-2.png,s,1,0.5944817001000047,h,1,0.10783130000345409,0.05176140007097274,0.05104679998476058,0.10161700006574392,0.10191059997305274,0.7505049000028521
RSVPLG03,km,20251030-103405,1.0.1,20251023-100704,724,Experiment,Both,1,Automatic,main,113,20251030-104334,global,local,750,H,H,A,E,H-A.png,E-H.png,hH,hH,mask-4.png,mask-1.png,h,1,0.9030909000430256,h,1,0.0633631000528112,0.04935380001552403,0.04970930004492402,0.09978599997702986,0.10054390004370362,0.7508366999682039
RSVPLG03,km,20251030-103405,1.0.1,20251023-100704,724,Experiment,Both,1,Automatic,main,114,20251030-104339,local,global,300,H,S,A,E,A-H.png,S-E.png,hH,sS,mask-2.png,mask-2.png,h,1,1.0614873999729753,h,0,0.0915147999767214,0.050356000079773366,0.04990069998893887,0.09909060003701597,0.09996539994608611,0.29975630005355924
RSVPLG03,km,20251030-103405,1.0.1,20251023-100704,724,Experiment,Both,1,Automatic,main,115,20251030-104344,global,global,750,H,S,E,A,H-E.png,S-A.png,hH,sS,mask-4.png,mask-2.png,h,1,0.5569790999870747,s,1,0.04525139997713268,0.04971689998637885,0.04969719995278865,0.09858369990251958,0.0995769000146538,0.7506802999414504
RSVPLG03,km,20251030-103405,1.0.1,20251023-100704,724,Experiment,Both,1,Automatic,main,116,20251030-104349,local,local,750,H,H,A,A,A-H.png,A-H.png,hH,hH,mask-2.png,mask-1.png,h,1,0.7514406000263989,h,1,0.07684100000187755,0.0500709000043571,0.050609400030225515,0.09997820004355162,0.09922229999210685,0.751153500052169
RSVPLG03,km,20251030-103405,1.0.1,20251023-100704,724,Experiment,Both,1,Automatic,main,117,20251030-104354,local,local,300,H,S,E,E,E-H.png,E-S.png,hH,sS,mask-1.png,mask-1.png,h,1,0.5763423000462353,h,0,0.10950799996498972,0.05007340002339333,0.049013499985449016,0.10099299997091293,0.09928750002291054,0.3008299999637529
RSVPLG03,km,20251030-103405,1.0.1,20251023-100704,724,Experiment,Both,1,Automatic,main,118,20251030-104358,global,global,750,H,H,E,A,H-E.png,H-A.png,hH,hH,mask-2.png,mask-3.png,h,1,0.3020008000312373,h,1,0.12473339994903654,0.04959029995370656,0.04987069999333471,0.10006930003874004,0.09984340006485581,0.7505914999637753
RSVPLG03,km,20251030-103405,1.0.1,20251023-100704,724,Experiment,Both,1,Automatic,main,119,20251030-104403,local,local,750,S,H,A,A,A-S.png,A-H.png,sS,hH,mask-3.png,mask-1.png,s,1,0.87518380000256,h,1,0.09806069999467582,0.0488406999502331,0.04950780002400279,0.09979459992609918,0.09968780004419386,0.7500255999621004
RSVPLG03,km,20251030-103405,1.0.1,20251023-100704,724,Experiment,Both,1,Automatic,main,120,20251030-104408,local,local,750,S,H,A,A,A-S.png,A-H.png,sS,hH,mask-4.png,mask-1.png,s,1,0.3531693998957053,h,1,0.075586499995552,0.048907199990935624,0.049220899934880435,0.0994106000289321,0.10091349994763732,0.7493322000373155
RSVPLG03,km,20251030-103405,1.0.1,20251023-100704,724,Experiment,Both,1,Automatic,main,121,20251030-104412,local,global,300,S,H,A,E,A-S.png,H-E.png,sS,hH,mask-2.png,mask-4.png,s,1,1.4042052999138832,h,1,1.5321043999865651,0.048436000011861324,0.048281900002621114,0.09831749997101724,0.09935099992435426,0.3003093000734225
RSVPLG03,km,20251030-103405,1.0.1,20251023-100704,724,Experiment,Both,1,Automatic,main,122,20251030-104417,local,local,300,S,H,A,E,A-S.png,E-H.png,sS,hH,mask-3.png,mask-4.png,s,1,0.36398840008769184,h,1,0.4920222000218928,0.05026319995522499,0.04959329997655004,0.09989309997763485,0.10026119998656213,0.30137140001170337
