exp,exp_initials,runtime,ver,modtime,sub,blocktype,targets,cuetype,mode,trialtype,trial,trialtime,t1_level,t2_level,t2_lag,t1,t2,distractor1,distractor2,stimfile1,stimfile2,t1_corr,t2_corr,maskfile1,maskfile2,t1_resp,t1_acc,t1_rt,t2_resp,t2_acc,t2_rt,t1_dur,t2_dur,t1mask_soa,t2mask_soa,t1t2_soa
RSVPLG03,sg,20251118-122100,1.0.2,20251105-084826,746,Introduction,T1,1,Automatic,main,1,20251118-122132,global,global,750,H,H,E,A,H-E.png,H-A.png,hH,hH,mask-3.png,mask-2.png,h,1,3.3778779999993276,none,-5,0,0.09151140000176383,0.09835709999606479,0.1935410000005504,0.19935949999489821,0.742569200003345
RSVPLG03,sg,20251118-122100,1.0.2,20251105-084826,746,Introduction,T1,1,Automatic,main,2,20251118-122140,local,local,750,H,H,A,E,A-H.png,E-H.png,hH,hH,mask-4.png,mask-1.png,h,1,1.021810700003698,none,-5,0,0.09746460000314983,0.09795890000532381,0.2004185999976471,0.19900670000060927,0.7480934999985038
RSVPLG03,sg,20251118-122100,1.0.2,20251105-084826,746,Introduction,T1,1,Automatic,main,3,20251118-122145,global,global,750,S,H,A,A,S-A.png,H-A.png,sS,hH,mask-3.png,mask-1.png,s,1,2.130470399999467,none,-5,0,0.09848410000267904,0.09715339999820571,0.20161170000210404,0.2001135999962571,0.7493418000012753
RSVPLG03,sg,20251118-122100,1.0.2,20251105-084826,746,Introduction,T1,1,Automatic,main,4,20251118-122151,local,local,750,S,S,A,E,A-S.png,E-S.png,sS,sS,mask-4.png,mask-1.png,s,1,1.136285599997791,none,-5,0,0.09752450000087265,0.09898619999876246,0.2006753999958164,0.1999641000002157,0.7483723999976064
RSVPLG03,sg,20251118-122100,1.0.2,20251105-084826,746,Introduction,T1,1,Automatic,main,5,20251118-122157,global,global,750,S,H,E,E,S-E.png,H-E.png,sS,hH,mask-2.png,mask-4.png,s,1,2.8033701999956975,none,-5,0,0.0973599999997532,0.09754169999359874,0.20144230000005336,0.20059679999394575,0.7500411000000895
RSVPLG03,sg,20251118-122100,1.0.2,20251105-084826,746,Introduction,T1,1,Automatic,main,6,20251118-122204,local,local,750,H,S,E,A,E-H.png,A-S.png,hH,sS,mask-3.png,mask-2.png,h,1,1.8509787000002689,none,-5,0,0.09821689999807859,0.0975380000018049,0.2000943000020925,0.1996307000008528,0.7498525999981211
RSVPLG03,sg,20251118-122100,1.0.2,20251105-084826,746,Introduction,T1,1,Automatic,main,7,20251118-122210,global,local,750,H,H,E,E,H-E.png,E-H.png,hH,hH,mask-4.png,mask-4.png,h,1,1.3768016000030912,none,-5,0,0.09661169999890262,0.0975414999993518,0.1986733000012464,0.199656299999333,0.7487611999968067
RSVPLG03,sg,20251118-122100,1.0.2,20251105-084826,746,Introduction,T1,1,Automatic,main,8,20251118-122215,global,global,750,H,H,E,A,H-E.png,H-A.png,hH,hH,mask-2.png,mask-3.png,h,1,0.5709037000051467,none,-5,0,0.09735150000051362,0.09738060000381665,0.20053209999605315,0.20022700000117766,0.748968199994124
RSVPLG03,sg,20251118-122100,1.0.2,20251105-084826,746,Introduction,T1,1,Automatic,main,9,20251118-122220,global,local,750,H,S,E,A,H-E.png,A-S.png,hH,sS,mask-1.png,mask-4.png,h,1,0.8614574000021094,none,-5,0,0.09669759999815142,0.09861079999973299,0.19881200000236277,0.20074929999827873,0.7480255999980727
RSVPLG03,sg,20251118-122100,1.0.2,20251105-084826,746,Introduction,T1,1,Automatic,main,10,20251118-122225,local,global,750,S,S,E,A,E-S.png,S-A.png,sS,sS,mask-3.png,mask-2.png,s,1,0.5791919000039343,none,-5,0,0.09751539999706438,0.0974352999983239,0.1994055999966804,0.19860660000267671,0.7494519999963813
RSVPLG03,sg,20251118-122100,1.0.2,20251105-084826,746,Introduction,T1,1,Automatic,main,11,20251118-122230,global,local,750,H,H,A,A,H-A.png,A-H.png,hH,hH,mask-1.png,mask-4.png,h,1,1.0835831999938819,none,-5,0,0.09752260000095703,0.09642599999642698,0.20069870000588708,0.1993099999963306,0.7500427000049967
RSVPLG03,sg,20251118-122100,1.0.2,20251105-084826,746,Introduction,T1,1,Automatic,main,12,20251118-122235,local,global,750,H,S,E,A,E-H.png,S-A.png,hH,sS,mask-4.png,mask-1.png,h,1,0.9688052000055905,none,-5,0,0.09734240000398131,0.0973539000042365,0.2002790000042296,0.20031350000499515,0.7483019999999669
RSVPLG03,sg,20251118-122100,1.0.2,20251105-084826,746,Introduction,T1,1,Automatic,main,13,20251118-122240,local,global,750,S,S,E,E,E-S.png,S-E.png,sS,sS,mask-4.png,mask-3.png,s,1,0.3739082000029157,none,-5,0,0.0973805999965407,0.09738759999891045,0.2003021999989869,0.1997994999983348,0.7498198999965098
RSVPLG03,sg,20251118-122100,1.0.2,20251105-084826,746,Introduction,T1,1,Automatic,main,14,20251118-122245,local,global,750,S,S,E,E,E-S.png,S-E.png,sS,sS,mask-1.png,mask-4.png,s,1,0.4226813999994192,none,-5,0,0.09748260000196751,0.09740610000153538,0.2013481000030879,0.2002950999958557,0.7494670000014594
RSVPLG03,sg,20251118-122100,1.0.2,20251105-084826,746,Introduction,T1,1,Automatic,main,15,20251118-122250,global,local,750,H,H,E,A,H-E.png,A-H.png,hH,hH,mask-2.png,mask-3.png,h,1,0.5374728000024334,none,-5,0,0.09768869999970775,0.09733550000237301,0.20074619999650167,0.19827720000466798,0.7491146999964258
RSVPLG03,sg,20251118-122100,1.0.2,20251105-084826,746,Introduction,T1,1,Automatic,main,16,20251118-122254,local,local,750,H,S,E,A,E-H.png,A-S.png,hH,sS,mask-1.png,mask-2.png,h,1,1.3779486999992514,none,-5,0,0.09965569999621948,0.09759009999834234,0.20098899999720743,0.20070899999700487,0.750592600001255
RSVPLG03,sg,20251118-122315,1.0.2,20251105-084826,746,Practice,T1,1,Automatic,main,1,20251118-122342,global,local,750,S,H,A,A,S-A.png,A-H.png,sS,hH,mask-1.png,mask-4.png,h,0,1.2104180000023916,none,-5,0,0.04028929999913089,0.04669490000378573,0.09206069999345345,0.09999490000336664,0.7434844999952475
RSVPLG03,sg,20251118-122315,1.0.2,20251105-084826,746,Practice,T1,1,Automatic,main,2,20251118-122347,global,global,300,S,S,A,E,S-A.png,S-E.png,sS,sS,mask-4.png,mask-4.png,s,1,1.6787527999986196,none,-5,0,0.04768519999925047,0.047707900004752446,0.09976009999809321,0.0999493000053917,0.3013762999980827
RSVPLG03,sg,20251118-122315,1.0.2,20251105-084826,746,Practice,T1,1,Automatic,main,3,20251118-122352,global,local,750,H,H,E,E,H-E.png,E-H.png,hH,hH,mask-4.png,mask-4.png,h,1,0.7303067999964696,none,-5,0,0.0476998999947682,0.04752010000083828,0.099754099996062,0.10054310000123223,0.749848599996767
RSVPLG03,sg,20251118-122315,1.0.2,20251105-084826,746,Practice,T1,1,Automatic,main,4,20251118-122357,local,local,300,S,S,A,E,A-S.png,E-S.png,sS,sS,mask-3.png,mask-1.png,s,1,0.7907482000009622,none,-5,0,0.047700299997814,0.048506999999517575,0.09939589999703458,0.10051260000182083,0.29918419999739854
RSVPLG03,sg,20251118-122315,1.0.2,20251105-084826,746,Practice,T1,1,Automatic,main,5,20251118-122401,local,global,750,S,H,E,A,E-S.png,H-A.png,sS,hH,mask-3.png,mask-2.png,s,1,0.9696187000008649,none,-5,0,0.04758929999661632,0.047729800004162826,0.09985159999632742,0.10086250000313157,0.7491311999983736
RSVPLG03,sg,20251118-122315,1.0.2,20251105-084826,746,Practice,T1,1,Automatic,main,6,20251118-122406,local,local,750,S,H,A,E,A-S.png,E-H.png,sS,hH,mask-2.png,mask-1.png,s,1,1.0374080000037793,none,-5,0,0.04750459999922896,0.04641019999689888,0.0994732000035583,0.10042470000189496,0.7497461000020849
RSVPLG03,sg,20251118-122315,1.0.2,20251105-084826,746,Practice,T1,1,Automatic,main,7,20251118-122412,global,local,300,S,S,E,E,S-E.png,E-S.png,sS,sS,mask-4.png,mask-2.png,s,1,1.0409113999994588,none,-5,0,0.04752150000422262,0.04751270000269869,0.1005278000011458,0.10058270000445191,0.3004078000012669
RSVPLG03,sg,20251118-122315,1.0.2,20251105-084826,746,Practice,T1,1,Automatic,main,8,20251118-122416,local,global,300,H,H,A,E,A-H.png,H-E.png,hH,hH,mask-4.png,mask-3.png,h,1,0.8066856000004918,none,-5,0,0.047524400004476774,0.04861430000164546,0.09873740000330145,0.10161910000169883,0.2982304000033764
RSVPLG03,sg,20251118-122315,1.0.2,20251105-084826,746,Practice,T1,1,Automatic,main,9,20251118-122421,local,global,300,H,H,A,A,A-H.png,H-A.png,hH,hH,mask-2.png,mask-2.png,h,1,1.4662456000005477,none,-5,0,0.046537399997760076,0.04652200000418816,0.09857990000455175,0.09857470000133617,0.2998924999992596
RSVPLG03,sg,20251118-122315,1.0.2,20251105-084826,746,Practice,T1,1,Automatic,main,10,20251118-122426,global,local,300,S,S,A,A,S-A.png,A-S.png,sS,sS,mask-1.png,mask-3.png,s,1,1.059336300000723,none,-5,0,0.04680769999686163,0.04655379999894649,0.0999904999989667,0.09956339999916963,0.29937690000224393
RSVPLG03,sg,20251118-122315,1.0.2,20251105-084826,746,Practice,T1,1,Automatic,main,11,20251118-122431,local,local,300,S,S,A,E,A-S.png,E-S.png,sS,sS,mask-3.png,mask-2.png,s,1,1.1665615999954753,none,-5,0,0.046537200003513135,0.047532299999147654,0.09973320000426611,0.10073649999685585,0.2992106000019703
RSVPLG03,sg,20251118-122315,1.0.2,20251105-084826,746,Practice,T1,1,Automatic,main,12,20251118-122435,global,global,300,S,S,E,E,S-E.png,S-E.png,sS,sS,mask-1.png,mask-4.png,h,0,1.0510538999951677,none,-5,0,0.045605999999679625,0.04755309999745805,0.0994767000011052,0.09950389999721665,0.29984759999933885
RSVPLG03,sg,20251118-122315,1.0.2,20251105-084826,746,Practice,T1,1,Automatic,main,13,20251118-122440,global,global,750,H,H,A,E,H-A.png,H-E.png,hH,hH,mask-2.png,mask-3.png,s,0,0.7098889999979292,none,-5,0,0.047522499997285195,0.04751760000362992,0.09956349999993108,0.09956840000086231,0.750339599995641
RSVPLG03,sg,20251118-122315,1.0.2,20251105-084826,746,Practice,T1,1,Automatic,main,14,20251118-122445,global,global,750,H,H,A,E,H-A.png,H-E.png,hH,hH,mask-4.png,mask-2.png,h,1,0.5787089000004926,none,-5,0,0.04777300000569085,0.04771400000026915,0.0999082999987877,0.10097500000119908,0.749355400002969
RSVPLG03,sg,20251118-122315,1.0.2,20251105-084826,746,Practice,T1,1,Automatic,main,15,20251118-122449,local,local,750,S,H,E,A,E-S.png,A-H.png,sS,hH,mask-2.png,mask-2.png,s,1,0.90074679999816,none,-5,0,0.047520000000076834,0.047585100001015235,0.10041009999986272,0.09960049999790499,0.7507603999983985
RSVPLG03,sg,20251118-122315,1.0.2,20251105-084826,746,Practice,T1,1,Automatic,main,16,20251118-122454,local,global,750,H,S,A,A,A-H.png,S-A.png,hH,sS,mask-3.png,mask-3.png,h,1,0.5086276999936672,none,-5,0,0.046781799996097106,0.0479094000038458,0.09884859999874607,0.09998120000091149,0.7487526999975671
RSVPLG03,sg,20251118-122653,1.0.2,20251105-084826,746,Introduction,Both,1,Automatic,main,1,20251118-122727,global,global,750,S,S,A,E,S-A.png,S-E.png,sS,sS,mask-2.png,mask-4.png,h,0,1.6656462000028114,s,1,4.196142000000691,0.09257360000628978,0.09846980000293115,0.19503249999979744,0.20034550000127638,0.7457161999991513
RSVPLG03,sg,20251118-122653,1.0.2,20251105-084826,746,Introduction,Both,1,Automatic,main,2,20251118-122737,global,local,750,H,S,A,E,H-A.png,E-S.png,hH,sS,mask-2.png,mask-2.png,h,1,3.8380434999999125,s,1,1.1322734999994282,0.09736989999510115,0.09837189999961993,0.20024669999838807,0.20023829999990994,0.7503423999951337
RSVPLG03,sg,20251118-122653,1.0.2,20251105-084826,746,Introduction,Both,1,Automatic,main,3,20251118-122746,local,global,750,S,H,E,A,E-S.png,H-A.png,sS,hH,mask-1.png,mask-3.png,s,1,1.6308075999986613,h,1,0.801408100000117,0.09863659999973606,0.09754969999630703,0.20069279999734135,0.19971829999849433,0.7511095000008936
RSVPLG03,sg,20251118-122653,1.0.2,20251105-084826,746,Introduction,Both,1,Automatic,main,4,20251118-122753,local,global,750,S,H,A,A,A-S.png,H-A.png,sS,hH,mask-2.png,mask-1.png,s,1,2.9098307999956887,h,1,0.5727910000059637,0.09643879999930505,0.09828009999910137,0.19946779999736464,0.2001767999972799,0.7500867999988259
RSVPLG03,sg,20251118-122653,1.0.2,20251105-084826,746,Introduction,Both,1,Automatic,main,5,20251118-122801,global,local,750,H,S,A,A,H-A.png,A-S.png,hH,sS,mask-4.png,mask-3.png,h,1,2.1161780999973416,s,1,0.34106469999824185,0.09656610000092769,0.09766179999860469,0.19956049999746028,0.20055519999732496,0.7508779999989201
RSVPLG03,sg,20251118-122653,1.0.2,20251105-084826,746,Introduction,Both,1,Automatic,main,6,20251118-122808,global,global,750,H,S,E,A,H-E.png,S-A.png,hH,sS,mask-1.png,mask-4.png,h,1,1.5407960000011371,s,1,0.45709209999768063,0.09739960000297287,0.09745069999917177,0.20039280000492,0.2003908999977284,0.7508232000036514
RSVPLG03,sg,20251118-122653,1.0.2,20251105-084826,746,Introduction,Both,1,Automatic,main,7,20251118-122814,global,local,750,S,S,E,A,S-E.png,A-S.png,sS,sS,mask-4.png,mask-3.png,h,0,3.464031099996646,s,1,0.60168479999993,0.09806400000525173,0.09801700000389246,0.19999359999928856,0.20201559999986785,0.7500776000015321
RSVPLG03,sg,20251118-122653,1.0.2,20251105-084826,746,Introduction,Both,1,Automatic,main,8,20251118-122823,global,local,750,S,S,E,E,S-E.png,E-S.png,sS,sS,mask-1.png,mask-3.png,s,1,1.2949989999979152,s,1,0.4371160000009695,0.09755829999630805,0.09938859999965644,0.2006277999971644,0.20016369999939343,0.7499903999996604
RSVPLG03,sg,20251118-122653,1.0.2,20251105-084826,746,Introduction,Both,1,Automatic,main,9,20251118-122829,local,local,750,H,S,E,E,E-H.png,E-S.png,hH,sS,mask-4.png,mask-1.png,h,1,1.561715700001514,s,1,0.42241549999744166,0.09738279999874067,0.09638219999760622,0.20026959999813698,0.20024199999897974,0.7515528000003542
RSVPLG03,sg,20251118-122653,1.0.2,20251105-084826,746,Introduction,Both,1,Automatic,main,10,20251118-122835,local,local,750,H,S,E,A,E-H.png,A-S.png,hH,sS,mask-2.png,mask-2.png,h,1,1.579519300001266,s,1,0.4247899999973015,0.0966305000038119,0.09765250000054948,0.19959600000584032,0.2014941999950679,0.7501899000053527
RSVPLG03,sg,20251118-122653,1.0.2,20251105-084826,746,Introduction,Both,1,Automatic,main,11,20251118-122841,global,global,750,H,H,E,E,H-E.png,H-E.png,hH,hH,mask-3.png,mask-1.png,h,1,1.0167053999975906,h,1,0.379765599995153,0.09627599999657832,0.09632010000495939,0.20006070000090403,0.19926649999979418,0.7516006999940146
RSVPLG03,sg,20251118-122653,1.0.2,20251105-084826,746,Introduction,Both,1,Automatic,main,12,20251118-122847,local,local,750,S,H,E,A,E-S.png,A-H.png,sS,hH,mask-3.png,mask-3.png,s,1,1.1839646000007633,h,1,0.30175489999965066,0.09739200000331039,0.09845710000081453,0.1992681999981869,0.20138360000419198,0.7494714999993448
RSVPLG03,sg,20251118-122653,1.0.2,20251105-084826,746,Introduction,Both,1,Automatic,main,13,20251118-122853,local,global,750,H,H,E,A,E-H.png,H-A.png,hH,hH,mask-4.png,mask-1.png,h,1,2.4571911999955773,h,1,0.4860999000011361,0.09739479999552714,0.09844519999751355,0.2002617999969516,0.20048519999545533,0.751789000001736
RSVPLG03,sg,20251118-122653,1.0.2,20251105-084826,746,Introduction,Both,1,Automatic,main,14,20251118-122900,local,local,750,H,H,E,E,E-H.png,E-H.png,hH,hH,mask-3.png,mask-3.png,h,1,1.0616307000018423,h,1,0.31236209999769926,0.09750109999731649,0.09806509999907576,0.2013364000013098,0.20122039999841945,0.7520357000030344
RSVPLG03,sg,20251118-122653,1.0.2,20251105-084826,746,Introduction,Both,1,Automatic,main,15,20251118-122906,local,global,750,S,S,A,E,A-S.png,S-E.png,sS,sS,mask-1.png,mask-4.png,s,1,1.7169162999998662,s,1,0.6979525999995531,0.09658380000473699,0.09738799999468029,0.1993845000033616,0.2013442999959807,0.7499662000045646
RSVPLG03,sg,20251118-122653,1.0.2,20251105-084826,746,Introduction,Both,1,Automatic,main,16,20251118-122913,global,global,750,S,H,A,E,S-A.png,H-E.png,sS,hH,mask-3.png,mask-1.png,h,0,2.0863108999983524,h,1,2.2686977999983355,0.09738959999958752,0.09937589999753982,0.20026539999525994,0.20029130000330042,0.7499363999959314
RSVPLG03,sg,20251118-123044,1.0.2,20251105-084826,746,Practice,Both,1,Automatic,main,1,20251118-123103,local,local,750,S,H,E,A,E-S.png,A-H.png,sS,hH,mask-4.png,mask-2.png,s,1,1.3653678000046057,h,1,0.551358299999265,0.039230999995197635,0.04770079999434529,0.09314720000111265,0.09988289999455446,0.7432062000007136
RSVPLG03,sg,20251118-123044,1.0.2,20251105-084826,746,Practice,Both,1,Automatic,main,2,20251118-123109,global,local,750,S,S,E,A,S-E.png,A-S.png,sS,sS,mask-2.png,mask-2.png,s,1,1.3525202999953763,s,1,0.4678535999992164,0.04669389999617124,0.04770610000559827,0.10093489999417216,0.10117710000486113,0.7483327999943867
RSVPLG03,sg,20251118-123044,1.0.2,20251105-084826,746,Practice,Both,1,Automatic,main,3,20251118-123115,global,local,300,S,S,A,E,S-A.png,E-S.png,sS,sS,mask-1.png,mask-2.png,s,1,2.680836100000306,s,1,0.5414069000034942,0.04668609999498585,0.04772979999688687,0.09888559999671998,0.10094009999738773,0.2985289999996894
RSVPLG03,sg,20251118-123044,1.0.2,20251105-084826,746,Practice,Both,1,Automatic,main,4,20251118-123122,global,global,300,H,S,A,E,H-A.png,S-E.png,hH,sS,mask-1.png,mask-2.png,h,1,0.9000824999966426,s,1,1.7799820000000182,0.0492651999957161,0.04644470000494039,0.10050219999538967,0.09947230000398122,0.30145319999428466
RSVPLG03,sg,20251118-123044,1.0.2,20251105-084826,746,Practice,Both,1,Automatic,main,5,20251118-123128,global,global,750,S,H,A,A,S-A.png,H-A.png,sS,hH,mask-2.png,mask-3.png,s,1,2.132514299999457,h,1,0.20524160000059055,0.048642499998095445,0.04781820000061998,0.10074799999711104,0.10001270000066143,0.7500817999971332
RSVPLG03,sg,20251118-123044,1.0.2,20251105-084826,746,Practice,Both,1,Automatic,main,6,20251118-123135,global,global,300,H,H,A,A,H-A.png,H-A.png,hH,hH,mask-1.png,mask-3.png,h,1,0.9610433999987436,h,1,0.3301705000048969,0.04755499999737367,0.047297799996158574,0.1015966999984812,0.10160829999949783,0.29992740000307094
RSVPLG03,sg,20251118-123044,1.0.2,20251105-084826,746,Practice,Both,1,Automatic,main,7,20251118-123140,local,local,300,H,S,A,E,A-H.png,E-S.png,hH,sS,mask-4.png,mask-4.png,h,1,1.3246115000001737,h,0,1.429721000000427,0.04738039999938337,0.047159299996565096,0.09956919999967795,0.0992772999961744,0.3005436000021291
RSVPLG03,sg,20251118-123044,1.0.2,20251105-084826,746,Practice,Both,1,Automatic,main,8,20251118-123146,global,local,750,H,S,E,A,H-E.png,A-S.png,hH,sS,mask-1.png,mask-1.png,h,1,0.76261159999558,s,1,0.565794599999208,0.04793749999953434,0.047843500004091766,0.10112149999622488,0.10015640000347048,0.7501080999936676
RSVPLG03,sg,20251118-123044,1.0.2,20251105-084826,746,Practice,Both,1,Automatic,main,9,20251118-123152,global,local,300,H,H,A,A,H-A.png,A-H.png,hH,hH,mask-3.png,mask-3.png,h,1,0.9283600999988266,h,1,0.7721068000028026,0.04754829999728827,0.04755930000101216,0.1006000999987009,0.10056500000064261,0.300113400000555
RSVPLG03,sg,20251118-123044,1.0.2,20251105-084826,746,Practice,Both,1,Automatic,main,10,20251118-123157,local,global,300,H,H,A,E,A-H.png,H-E.png,hH,hH,mask-4.png,mask-3.png,h,1,0.7615567999964696,h,1,0.45840940000198316,0.04692269999941345,0.04760399999941001,0.09998889999405947,0.09977079999953276,0.2994284999949741
RSVPLG03,sg,20251118-123044,1.0.2,20251105-084826,746,Practice,Both,1,Automatic,main,11,20251118-123202,local,local,750,S,S,A,E,A-S.png,E-S.png,sS,sS,mask-2.png,mask-2.png,s,1,0.8181934999956866,s,1,0.6273348000031547,0.04663359999540262,0.046731499998713844,0.0995794999980717,0.09793200000422075,0.7497645999974338
RSVPLG03,sg,20251118-123044,1.0.2,20251105-084826,746,Practice,Both,1,Automatic,main,12,20251118-123208,local,global,750,S,S,A,A,A-S.png,S-A.png,sS,sS,mask-3.png,mask-3.png,s,1,2.263653100002557,s,1,0.34287590000167256,0.04867089999606833,0.047677499998826534,0.09985749999759719,0.0999251000030199,0.7494692999971448
RSVPLG03,sg,20251118-123044,1.0.2,20251105-084826,746,Practice,Both,1,Automatic,main,13,20251118-123215,global,global,750,H,H,A,E,H-A.png,H-E.png,hH,hH,mask-4.png,mask-4.png,h,1,1.3680810000005295,h,1,0.28201760000229115,0.047676800000772346,0.04670569999871077,0.10186890000477433,0.09988539999903878,0.7504165999998804
RSVPLG03,sg,20251118-123044,1.0.2,20251105-084826,746,Practice,Both,1,Automatic,main,14,20251118-123220,local,global,750,H,S,E,A,E-H.png,S-A.png,hH,sS,mask-2.png,mask-3.png,h,1,2.1485224999996717,h,0,0.7813186999992467,0.04758459999720799,0.04770799999823794,0.09977499999513384,0.09996659999887925,0.747972999997728
RSVPLG03,sg,20251118-123044,1.0.2,20251105-084826,746,Practice,Both,1,Automatic,main,15,20251118-123228,local,local,300,H,H,E,A,E-H.png,A-H.png,hH,hH,mask-4.png,mask-1.png,h,1,1.505711900004826,h,1,1.1323120000015479,0.047705999997560866,0.04764419999992242,0.09979019999445882,0.10004420000041137,0.30046569999831263
RSVPLG03,sg,20251118-123044,1.0.2,20251105-084826,746,Practice,Both,1,Automatic,main,16,20251118-123234,local,global,300,S,H,A,E,A-S.png,H-E.png,sS,hH,mask-2.png,mask-4.png,s,1,2.2192787999956636,h,1,1.6514869000020553,0.047757000000274274,0.046628399999463,0.10010850000253413,0.09973650000029011,0.2998227999996743
RSVPLG03,sg,20251118-123500,1.0.2,20251105-084826,746,Experiment,Both,1,Automatic,warmup,1,20251118-123621,global,local,750,H,S,E,E,H-E.png,E-S.png,hH,sS,mask-3.png,mask-1.png,h,1,2.709835800000292,s,1,1.6724650999967707,0.04526400000031572,0.04770540000026813,0.09894030000577914,0.10177030000340892,0.7485267000010936
RSVPLG03,sg,20251118-123500,1.0.2,20251105-084826,746,Experiment,Both,1,Automatic,warmup,2,20251118-123629,local,global,300,H,H,E,A,E-H.png,H-A.png,hH,hH,mask-1.png,mask-1.png,h,1,1.345288000004075,s,0,1.5287496000019019,0.04790750000393018,0.0484061000024667,0.09847650000301655,0.10033020000264514,0.2993986000001314
RSVPLG03,sg,20251118-123500,1.0.2,20251105-084826,746,Experiment,Both,1,Automatic,warmup,3,20251118-123636,local,global,750,S,S,E,A,E-S.png,S-A.png,sS,sS,mask-3.png,mask-2.png,s,1,1.6082689000031678,h,0,1.0598811999952886,0.046755100003792904,0.04804929999954766,0.09895379999943543,0.10025450000102865,0.7511993000007351
RSVPLG03,sg,20251118-123500,1.0.2,20251105-084826,746,Experiment,Both,1,Automatic,warmup,4,20251118-123643,global,local,300,H,S,E,E,H-E.png,E-S.png,hH,sS,mask-3.png,mask-4.png,s,0,4.305741200005286,h,0,1.0794968999980483,0.0477450000034878,0.047507600000244565,0.09995180000260007,0.10086589999991702,0.30075619999843184
RSVPLG03,sg,20251118-123500,1.0.2,20251105-084826,746,Experiment,Both,1,Automatic,main,5,20251118-123652,local,global,750,H,S,A,A,A-H.png,S-A.png,hH,sS,mask-2.png,mask-4.png,h,1,1.4798405000037747,s,1,0.4435945000004722,0.04640769999969052,0.04850970000552479,0.09959359999629669,0.10072960000252351,0.7497060999958194
RSVPLG03,sg,20251118-123500,1.0.2,20251105-084826,746,Experiment,Both,1,Automatic,main,6,20251118-123658,local,local,750,H,S,E,A,E-H.png,A-S.png,hH,sS,mask-1.png,mask-1.png,h,1,1.030209399999876,s,1,0.29820720000134315,0.047720800001116004,0.04776590000255965,0.09996500000124797,0.10000880000006873,0.7499066999953357
RSVPLG03,sg,20251118-123500,1.0.2,20251105-084826,746,Experiment,Both,1,Automatic,main,7,20251118-123704,local,global,750,S,H,A,A,A-S.png,H-A.png,sS,hH,mask-1.png,mask-2.png,s,1,1.7485938999961945,h,1,0.34864960000413703,0.047565699998813216,0.045721900001808535,0.09999209999659797,0.0999733999997261,0.7526575999945635
RSVPLG03,sg,20251118-123500,1.0.2,20251105-084826,746,Experiment,Both,1,Automatic,main,8,20251118-123710,global,global,750,H,H,A,E,H-A.png,H-E.png,hH,hH,mask-1.png,mask-4.png,h,1,1.083117599999241,h,1,0.6048580999995465,0.0494302000006428,0.04864340000494849,0.10079260000202339,0.10103440000239061,0.7512152999988757
RSVPLG03,sg,20251118-123500,1.0.2,20251105-084826,746,Experiment,Both,1,Automatic,main,9,20251118-123716,local,global,750,H,S,A,E,A-H.png,S-E.png,hH,sS,mask-4.png,mask-2.png,h,1,0.7376857999988715,s,1,0.7575728999945568,0.04771179999806918,0.046772100002272055,0.09975889999623178,0.10044270000071265,0.7511155999964103
RSVPLG03,sg,20251118-123500,1.0.2,20251105-084826,746,Experiment,Both,1,Automatic,main,10,20251118-123721,local,local,750,S,S,A,E,A-S.png,E-S.png,sS,sS,mask-2.png,mask-2.png,s,1,1.5895300000047428,s,1,0.8091247999982443,0.04768239999975776,0.047882300001219846,0.09983070000453154,0.10014909999881638,0.7504159000018262
RSVPLG03,sg,20251118-123500,1.0.2,20251105-084826,746,Experiment,Both,1,Automatic,main,11,20251118-123728,global,global,300,H,S,E,E,H-E.png,S-E.png,hH,sS,mask-4.png,mask-1.png,h,1,1.505545500003791,s,1,0.3634098000038648,0.047093799999856856,0.04775060000247322,0.10036110000510234,0.09991620000073453,0.30101250000006985
RSVPLG03,sg,20251118-123500,1.0.2,20251105-084826,746,Experiment,Both,1,Automatic,main,12,20251118-123734,local,global,750,H,S,E,E,E-H.png,S-E.png,hH,sS,mask-3.png,mask-1.png,h,1,0.9673082000008435,s,1,1.357845600003202,0.04769479999959003,0.04763639999873703,0.10009920000447892,0.10062579999794252,0.7493092000004253
RSVPLG03,sg,20251118-123500,1.0.2,20251105-084826,746,Experiment,Both,1,Automatic,main,13,20251118-123740,local,global,300,S,S,A,E,A-S.png,S-E.png,sS,sS,mask-1.png,mask-1.png,h,0,2.2928685000006226,s,1,0.1505059999981313,0.04773829999612644,0.04768999999942025,0.10194670000055339,0.0998738999987836,0.30159740000090096
RSVPLG03,sg,20251118-123500,1.0.2,20251105-084826,746,Experiment,Both,1,Automatic,main,14,20251118-123746,global,local,300,H,S,E,A,H-E.png,A-S.png,hH,sS,mask-1.png,mask-4.png,h,1,0.9768250999986776,h,0,0.5982669000004535,0.04750590000185184,0.04752089999965392,0.10152080000261776,0.09954129999823635,0.30184700000245357
RSVPLG03,sg,20251118-123500,1.0.2,20251105-084826,746,Experiment,Both,1,Automatic,main,15,20251118-123752,local,local,750,S,S,A,A,A-S.png,A-S.png,sS,sS,mask-2.png,mask-4.png,s,1,1.2062602000005427,s,1,0.26352540000516456,0.04753499999787891,0.046755000003031455,0.1017541999972309,0.09998099999938859,0.7519104999955744
RSVPLG03,sg,20251118-123500,1.0.2,20251105-084826,746,Experiment,Both,1,Automatic,main,16,20251118-123757,global,local,750,H,S,E,A,H-E.png,A-S.png,hH,sS,mask-3.png,mask-2.png,h,1,0.9187120000060531,s,1,0.17827419999957783,0.0474880999972811,0.04705619999731425,0.10051889999886043,0.10013099999923725,0.7517832000012277
RSVPLG03,sg,20251118-123500,1.0.2,20251105-084826,746,Experiment,Both,1,Automatic,main,17,20251118-123803,global,local,300,S,S,E,E,S-E.png,E-S.png,sS,sS,mask-2.png,mask-2.png,s,1,1.1716047000008984,h,0,0.19645440000022063,0.0477656000002753,0.04670069999701809,0.10005249999812804,0.09986190000199713,0.3001767000023392
RSVPLG03,sg,20251118-123500,1.0.2,20251105-084826,746,Experiment,Both,1,Automatic,main,18,20251118-123808,global,local,300,H,S,E,E,H-E.png,E-S.png,hH,sS,mask-1.png,mask-4.png,h,1,0.8620863000032841,s,1,0.10150260000227718,0.04770439999992959,0.04770959999586921,0.10018049999780487,0.09990290000132518,0.2998254999984056
RSVPLG03,sg,20251118-123500,1.0.2,20251105-084826,746,Experiment,Both,1,Automatic,main,19,20251118-123812,global,global,300,S,S,A,A,S-A.png,S-A.png,sS,sS,mask-1.png,mask-3.png,h,0,1.7211612999963108,s,1,0.10290109999914421,0.04756919999636011,0.04752759999973932,0.10059919999912381,0.09954219999781344,0.3012264999997569
RSVPLG03,sg,20251118-123500,1.0.2,20251105-084826,746,Experiment,Both,1,Automatic,main,20,20251118-123818,local,global,300,H,H,E,A,E-H.png,H-A.png,hH,hH,mask-2.png,mask-4.png,h,1,1.575042600001325,s,0,0.1265410000050906,0.047447199998714495,0.04798000000300817,0.09877659999619937,0.09964460000628605,0.29940639999404084
RSVPLG03,sg,20251118-123500,1.0.2,20251105-084826,746,Experiment,Both,1,Automatic,main,21,20251118-123823,global,local,750,S,S,E,A,S-E.png,A-S.png,sS,sS,mask-3.png,mask-4.png,s,1,1.3894474999979138,h,0,0.10453090000373777,0.04670819999591913,0.04761300000245683,0.09893409999494907,0.0996993000007933,0.7507487999973819
RSVPLG03,sg,20251118-123500,1.0.2,20251105-084826,746,Experiment,Both,1,Automatic,main,22,20251118-123829,global,global,750,H,S,A,A,H-A.png,S-A.png,hH,sS,mask-1.png,mask-3.png,h,1,1.1093443999998271,s,1,0.13193809999938821,0.0479775999992853,0.04772349999984726,0.10127320000174223,0.09979689999454422,0.7516141000014613
RSVPLG03,sg,20251118-123500,1.0.2,20251105-084826,746,Experiment,Both,1,Automatic,main,23,20251118-123834,global,global,750,H,H,E,A,H-E.png,H-A.png,hH,hH,mask-2.png,mask-4.png,h,1,0.8785006999969482,s,0,0.08350570000038715,0.04769719999603694,0.04785239999910118,0.09990609999658773,0.10115889999724459,0.7501409999968018
RSVPLG03,sg,20251118-123500,1.0.2,20251105-084826,746,Experiment,Both,1,Automatic,main,24,20251118-123840,global,local,750,H,H,E,E,H-E.png,E-H.png,hH,hH,mask-4.png,mask-1.png,h,1,1.0758740000019316,h,1,0.6653928000014275,0.04765120000229217,0.048504699996556155,0.09862150000117254,0.09978199999750359,0.7501675000021351
RSVPLG03,sg,20251118-123500,1.0.2,20251105-084826,746,Experiment,Both,1,Automatic,main,25,20251118-123845,global,local,300,S,H,A,E,S-A.png,E-H.png,sS,hH,mask-3.png,mask-3.png,h,0,2.74000380000507,s,0,0.03458800000225892,0.04597490000014659,0.04757210000389023,0.10032900000078371,0.09927300000708783,0.3004639999999199
RSVPLG03,sg,20251118-123500,1.0.2,20251105-084826,746,Experiment,Both,1,Automatic,main,26,20251118-123938,global,global,750,S,H,E,A,S-E.png,H-A.png,sS,hH,mask-4.png,mask-1.png,s,1,0.6371942999976454,h,1,0.15433979999943404,0.04777260000264505,0.04765890000271611,0.10007700000278419,0.09983330000250135,0.7520102999988012
RSVPLG03,sg,20251118-123500,1.0.2,20251105-084826,746,Experiment,Both,1,Automatic,main,27,20251118-123943,local,global,300,H,H,A,E,A-H.png,H-E.png,hH,hH,mask-1.png,mask-1.png,h,1,2.180432999994082,h,1,0.36103609999554465,0.047527100003208034,0.04931229999783682,0.09969509999791626,0.10031380000145873,0.2991824999990058
RSVPLG03,sg,20251118-123500,1.0.2,20251105-084826,746,Experiment,Both,1,Automatic,main,28,20251118-123949,local,local,300,S,S,E,E,E-S.png,E-S.png,sS,sS,mask-4.png,mask-2.png,s,1,1.4911757000008947,h,0,0.3622038999965298,0.046663699999044184,0.04697640000085812,0.09985929999675136,0.10006459999567596,0.2993897999986075
RSVPLG03,sg,20251118-123500,1.0.2,20251105-084826,746,Experiment,Both,1,Automatic,main,29,20251118-123955,global,global,300,H,H,A,A,H-A.png,H-A.png,hH,hH,mask-1.png,mask-3.png,h,1,0.6843716000003042,h,1,1.0357643000024837,0.04873000000225147,0.04747050000150921,0.1018499999991036,0.09874980000313371,0.30148650000046473
RSVPLG03,sg,20251118-123500,1.0.2,20251105-084826,746,Experiment,Both,1,Automatic,main,30,20251118-124000,local,local,300,H,S,E,A,E-H.png,A-S.png,hH,sS,mask-4.png,mask-1.png,h,1,1.2607975999999326,s,1,0.6681291999993846,0.04752780000126222,0.048506400002224836,0.10059909999836236,0.09979560000647325,0.30000579999614274
RSVPLG03,sg,20251118-123500,1.0.2,20251105-084826,746,Experiment,Both,1,Automatic,main,31,20251118-124006,local,local,300,S,H,E,E,E-S.png,E-H.png,sS,hH,mask-3.png,mask-3.png,s,1,3.2840130000040517,h,1,1.7824249999976018,0.046182099998986814,0.047631399997044355,0.09938179999880958,0.09976449999521719,0.299740100002964
RSVPLG03,sg,20251118-123500,1.0.2,20251105-084826,746,Experiment,Both,1,Automatic,main,32,20251118-124015,global,local,300,S,H,E,A,S-E.png,A-H.png,sS,hH,mask-2.png,mask-1.png,s,1,1.2204148000018904,h,1,1.7831176000036066,0.04770909999933792,0.045722499999101274,0.10098740000103135,0.09896429999935208,0.30169300000125077
RSVPLG03,sg,20251118-123500,1.0.2,20251105-084826,746,Experiment,Both,1,Automatic,main,33,20251118-124022,local,local,750,H,S,A,A,A-H.png,A-S.png,hH,sS,mask-4.png,mask-1.png,h,1,1.13150719999976,s,1,0.31631230000493815,0.04770950000238372,0.04677110000193352,0.09989640000276268,0.09999629999947501,0.7522749999989173
RSVPLG03,sg,20251118-123500,1.0.2,20251105-084826,746,Experiment,Both,1,Automatic,main,34,20251118-124027,local,global,750,H,S,E,A,E-H.png,S-A.png,hH,sS,mask-2.png,mask-2.png,h,1,2.3606389999986277,s,1,0.1700864000013098,0.04674679999880027,0.045744699993520044,0.0988498000006075,0.09991259999515023,0.7510934000019915
RSVPLG03,sg,20251118-123500,1.0.2,20251105-084826,746,Experiment,Both,1,Automatic,main,35,20251118-124034,local,local,750,H,S,A,E,A-H.png,E-S.png,hH,sS,mask-3.png,mask-2.png,h,1,0.9374733000004198,s,1,0.16781539999647066,0.04754510000202572,0.047635800001444295,0.10057499999675201,0.09967090000282042,0.7508780999996816
RSVPLG03,sg,20251118-123500,1.0.2,20251105-084826,746,Experiment,Both,1,Automatic,main,36,20251118-124039,local,local,300,H,S,A,E,A-H.png,E-S.png,hH,sS,mask-4.png,mask-4.png,h,1,1.3018917000008514,s,1,0.19941339999786578,0.04751400000532158,0.04658180000114953,0.09956960000272375,0.09962500000256114,0.29999769999994896
RSVPLG03,sg,20251118-123500,1.0.2,20251105-084826,746,Experiment,Both,1,Automatic,main,37,20251118-124044,local,global,750,H,S,E,A,E-H.png,S-A.png,hH,sS,mask-3.png,mask-1.png,h,1,0.5249893000000156,s,1,0.20980930000223452,0.0477452000050107,0.046706799999810755,0.09995600000547711,0.10086040000169305,0.750411000000895
RSVPLG03,sg,20251118-123500,1.0.2,20251105-084826,746,Experiment,Both,1,Automatic,main,38,20251118-124049,local,local,300,H,H,A,E,A-H.png,E-H.png,hH,hH,mask-1.png,mask-2.png,h,1,0.7198476999983541,s,0,0.7283602000024985,0.04866339999716729,0.04754759999923408,0.10090849999687634,0.10047199999826262,0.30060609999782173
RSVPLG03,sg,20251118-123500,1.0.2,20251105-084826,746,Experiment,Both,1,Automatic,main,39,20251118-124054,local,global,750,H,H,E,A,E-H.png,H-A.png,hH,hH,mask-4.png,mask-4.png,h,1,1.0166982999944594,h,1,0.2497371999997995,0.04770199999620672,0.04780880000180332,0.09995150000031572,0.09921079999912763,0.7500971999979811
RSVPLG03,sg,20251118-123500,1.0.2,20251105-084826,746,Experiment,Both,1,Automatic,main,40,20251118-124100,local,global,750,S,H,E,E,E-S.png,H-E.png,sS,hH,mask-4.png,mask-4.png,s,1,0.8290448999978253,h,1,0.15171510000072885,0.04669490000378573,0.0486901999975089,0.09990400000242516,0.09989060000225436,0.7499803000027896
RSVPLG03,sg,20251118-123500,1.0.2,20251105-084826,746,Experiment,Both,1,Automatic,main,41,20251118-124105,global,global,750,H,S,E,A,H-E.png,S-A.png,hH,sS,mask-3.png,mask-1.png,h,1,0.466021100000944,h,0,0.6960119000068516,0.046152500006428454,0.04865370000334224,0.09836519999953452,0.10068029999820283,0.7490838000012445
RSVPLG03,sg,20251118-123500,1.0.2,20251105-084826,746,Experiment,Both,1,Automatic,main,42,20251118-124110,global,global,750,S,H,A,A,S-A.png,H-A.png,sS,hH,mask-4.png,mask-2.png,h,0,0.9392043999978341,h,1,0.3333190999983344,0.04768599999806611,0.047701399998913985,0.09989599999971688,0.10190789999614935,0.7495264000026509
RSVPLG03,sg,20251118-123500,1.0.2,20251105-084826,746,Experiment,Both,1,Automatic,main,43,20251118-124116,local,global,300,H,S,E,E,E-H.png,S-E.png,hH,sS,mask-4.png,mask-2.png,h,1,1.3071305999983451,s,1,0.4412875999987591,0.047691699997812975,0.04859269999724347,0.0982086999938474,0.10086769999907119,0.2990072999964468
RSVPLG03,sg,20251118-123500,1.0.2,20251105-084826,746,Experiment,Both,1,Automatic,main,44,20251118-124121,global,global,750,S,H,E,A,S-E.png,H-A.png,sS,hH,mask-1.png,mask-3.png,s,1,0.5347475000016857,h,1,0.2052339000001666,0.047706199999083765,0.04601070000353502,0.09911499999725493,0.10019489999831421,0.7522002999976394
RSVPLG03,sg,20251118-123500,1.0.2,20251105-084826,746,Experiment,Both,1,Automatic,main,45,20251118-124126,global,local,300,S,S,E,E,S-E.png,E-S.png,sS,sS,mask-4.png,mask-1.png,s,1,0.9269143999990774,h,0,0.3306957000022521,0.04855200000019977,0.047505000002274755,0.10090350000245962,0.09989689999929396,0.30117710000195075
RSVPLG03,sg,20251118-123500,1.0.2,20251105-084826,746,Experiment,Both,1,Automatic,main,46,20251118-124131,local,global,300,H,H,E,E,E-H.png,H-E.png,hH,hH,mask-3.png,mask-2.png,h,1,0.6520172000018647,s,0,0.5913042000029236,0.04769939999823691,0.046709200003533624,0.09990649999963352,0.1001793000032194,0.3016099000014947
RSVPLG03,sg,20251118-123500,1.0.2,20251105-084826,746,Experiment,Both,1,Automatic,main,47,20251118-124136,local,global,300,H,S,E,A,E-H.png,S-A.png,hH,sS,mask-2.png,mask-4.png,h,1,0.6119093999950564,s,1,0.3290805999931763,0.04790320000029169,0.04777689999900758,0.10009859999991022,0.0999761999992188,0.30072999999538297
RSVPLG03,sg,20251118-123500,1.0.2,20251105-084826,746,Experiment,Both,1,Automatic,main,48,20251118-124141,local,global,750,H,H,A,E,A-H.png,H-E.png,hH,hH,mask-2.png,mask-1.png,h,1,1.8915173999994295,h,1,0.1056142000015825,0.04754619999584975,0.04749529999389779,0.09954470000229776,0.10042959999555023,0.7499640000023646
RSVPLG03,sg,20251118-123500,1.0.2,20251105-084826,746,Experiment,Both,1,Automatic,main,49,20251118-124147,local,local,300,H,H,A,A,A-H.png,A-H.png,hH,hH,mask-2.png,mask-2.png,h,1,1.049010199996701,h,1,0.26364209999883315,0.047707900004752446,0.04672670000582002,0.09977910000452539,0.0997408000039286,0.3004189999992377
RSVPLG03,sg,20251118-123500,1.0.2,20251105-084826,746,Experiment,Both,1,Automatic,main,50,20251118-124152,global,global,300,H,S,A,E,H-A.png,S-E.png,hH,sS,mask-4.png,mask-1.png,h,1,0.7729472000064561,s,1,0.1396757000038633,0.048717400000896305,0.04738000000361353,0.10010340000008,0.09946250000211876,0.3016113999983645
RSVPLG03,sg,20251118-123500,1.0.2,20251105-084826,746,Experiment,Both,1,Automatic,main,51,20251118-124218,global,local,300,S,H,E,A,S-E.png,A-H.png,sS,hH,mask-1.png,mask-2.png,h,0,1.5002946000022348,s,0,0.11716229999728967,0.047699299997475464,0.049097000002802815,0.10086810000211699,0.10117929999978514,0.3002489999998943
RSVPLG03,sg,20251118-123500,1.0.2,20251105-084826,746,Experiment,Both,1,Automatic,main,52,20251118-124223,local,global,750,S,S,A,E,A-S.png,S-E.png,sS,sS,mask-3.png,mask-4.png,s,1,0.5655828000017209,s,1,0.10097839999798452,0.04677109999465756,0.0477658000017982,0.10004639999533538,0.09940350000397302,0.7499495999945793
RSVPLG03,sg,20251118-123500,1.0.2,20251105-084826,746,Experiment,Both,1,Automatic,main,53,20251118-124228,local,global,300,S,H,A,E,A-S.png,H-E.png,sS,hH,mask-1.png,mask-4.png,s,1,0.5673443999985466,h,1,0.09995899999921676,0.04773130000103265,0.048712499999965075,0.09993370000302093,0.10091249999823049,0.2987834000014118
RSVPLG03,sg,20251118-123500,1.0.2,20251105-084826,746,Experiment,Both,1,Automatic,main,54,20251118-124233,global,local,750,S,H,E,E,S-E.png,E-H.png,sS,hH,mask-1.png,mask-2.png,s,1,0.5417316000020946,s,0,0.13143750000017462,0.04768850000255043,0.04761970000254223,0.09992290000081994,0.10170369999832474,0.7498491000005743
RSVPLG03,sg,20251118-123500,1.0.2,20251105-084826,746,Experiment,Both,1,Automatic,main,55,20251118-124238,local,local,750,S,H,A,E,A-S.png,E-H.png,sS,hH,mask-4.png,mask-1.png,h,0,0.6221211000010953,s,0,0.1420192000005045,0.047694000000774395,0.046798400006082375,0.09987890000047628,0.10005030000320403,0.7507979000001797
RSVPLG03,sg,20251118-123500,1.0.2,20251105-084826,746,Experiment,Both,1,Automatic,main,56,20251118-124242,local,local,300,S,S,E,E,E-S.png,E-S.png,sS,sS,mask-2.png,mask-2.png,s,1,0.6268648000041139,s,1,0.10558990000572521,0.04782219999469817,0.04766579999704845,0.1010482999990927,0.10123780000139959,0.3005182999986573
RSVPLG03,sg,20251118-123500,1.0.2,20251105-084826,746,Experiment,Both,1,Automatic,main,57,20251118-124247,global,local,750,S,H,E,A,S-E.png,A-H.png,sS,hH,mask-2.png,mask-3.png,s,1,0.5200075000029756,h,1,0.4441774000006262,0.04771469999832334,0.04769240000314312,0.0986440999986371,0.10085809999873163,0.7497487000000547
RSVPLG03,sg,20251118-123500,1.0.2,20251105-084826,746,Experiment,Both,1,Automatic,main,58,20251118-124252,local,local,750,H,H,A,A,A-H.png,A-H.png,hH,hH,mask-1.png,mask-4.png,h,1,0.4633627000002889,h,1,0.15698789999441942,0.047712800005683675,0.047715600005176384,0.10010529999999562,0.10090780000609811,0.7498451999999816
RSVPLG03,sg,20251118-123500,1.0.2,20251105-084826,746,Experiment,Both,1,Automatic,main,59,20251118-124257,global,global,300,S,S,A,E,S-A.png,S-E.png,sS,sS,mask-2.png,mask-2.png,h,0,2.395980100001907,s,1,0.10421280000446131,0.04772950000187848,0.047747099997650366,0.09968990000197664,0.10085049999906914,0.29934500000672415
RSVPLG03,sg,20251118-123500,1.0.2,20251105-084826,746,Experiment,Both,1,Automatic,main,60,20251118-124303,local,global,750,S,H,E,E,E-S.png,H-E.png,sS,hH,mask-2.png,mask-3.png,s,1,1.0178006999994977,h,1,0.1309347999995225,0.047897099997499026,0.04768589999730466,0.10114600000088103,0.09991040000022622,0.7520562999998219
RSVPLG03,sg,20251118-123500,1.0.2,20251105-084826,746,Experiment,Both,1,Automatic,main,61,20251118-124308,local,global,300,S,S,E,A,E-S.png,S-A.png,sS,sS,mask-4.png,mask-1.png,s,1,1.2683477999962633,s,1,0.10246560000086902,0.04754310000134865,0.048553499997069594,0.09963019999850076,0.10173379999469034,0.29938340000080643
RSVPLG03,sg,20251118-123500,1.0.2,20251105-084826,746,Experiment,Both,1,Automatic,main,62,20251118-124313,global,global,300,H,H,A,E,H-A.png,H-E.png,hH,hH,mask-4.png,mask-1.png,h,1,0.5621835999991163,h,1,0.15074029999959748,0.047677199996542186,0.04771679999976186,0.10070619999896735,0.0990243999985978,0.30147500000020955
RSVPLG03,sg,20251118-123500,1.0.2,20251105-084826,746,Experiment,Both,1,Automatic,main,63,20251118-124318,global,local,300,H,H,E,A,H-E.png,A-H.png,hH,hH,mask-1.png,mask-4.png,h,1,0.44439129999955185,h,1,0.6683126000061748,0.04748479999398114,0.04603579999820795,0.10065860000031535,0.09928889999719104,0.30136579999816604
RSVPLG03,sg,20251118-123500,1.0.2,20251105-084826,746,Experiment,Both,1,Automatic,main,64,20251118-124323,global,local,750,H,S,A,E,H-A.png,E-S.png,hH,sS,mask-4.png,mask-2.png,h,1,0.48486920000141254,h,0,0.8714041999992332,0.047604300001694355,0.047672299995610956,0.09985460000461899,0.09875789999932749,0.7517108000029111
RSVPLG03,sg,20251118-123500,1.0.2,20251105-084826,746,Experiment,Both,1,Automatic,main,65,20251118-124328,global,local,300,H,H,A,E,H-A.png,E-H.png,hH,hH,mask-3.png,mask-3.png,h,1,0.52571639999951,s,0,0.17231429999810643,0.0477004999993369,0.048717599995143246,0.10165399999823421,0.1000144999998156,0.3003616999994847
RSVPLG03,sg,20251118-123500,1.0.2,20251105-084826,746,Experiment,Both,1,Automatic,main,66,20251118-124333,local,local,750,S,H,A,E,A-S.png,E-H.png,sS,hH,mask-3.png,mask-1.png,s,1,1.3917189999992843,h,1,0.036716900001920294,0.04663470000377856,0.04753499999787891,0.09878730000491487,0.10159420000127284,0.7500263000038103
RSVPLG03,sg,20251118-123500,1.0.2,20251105-084826,746,Experiment,Both,1,Automatic,main,67,20251118-124338,global,global,750,S,H,E,E,S-E.png,H-E.png,sS,hH,mask-3.png,mask-2.png,s,1,0.5188433999937843,h,1,0.14877490000071703,0.047715599997900426,0.04697899999882793,0.09993669999676058,0.10008110000489978,0.7499057999957586
RSVPLG03,sg,20251118-123500,1.0.2,20251105-084826,746,Experiment,Both,1,Automatic,main,68,20251118-124343,local,local,750,H,S,A,E,A-H.png,E-S.png,hH,sS,mask-2.png,mask-2.png,h,1,1.4363770999989356,s,1,0.15640690000145696,0.04804169999988517,0.04752649999863934,0.10098529999959283,0.10053660000266973,0.7511363999947207
RSVPLG03,sg,20251118-123500,1.0.2,20251105-084826,746,Experiment,Both,1,Automatic,main,69,20251118-124349,global,global,300,S,S,A,E,S-A.png,S-E.png,sS,sS,mask-2.png,mask-1.png,s,1,0.6541655999972136,s,1,0.07356269999581855,0.047507700001006015,0.046861999995599035,0.10051160000148229,0.09976350000215461,0.2999567000006209
RSVPLG03,sg,20251118-123500,1.0.2,20251105-084826,746,Experiment,Both,1,Automatic,main,70,20251118-124353,local,local,750,H,S,A,A,A-H.png,A-S.png,hH,sS,mask-3.png,mask-2.png,h,1,0.9539054000051692,h,0,0.10551700000360142,0.04759980000380892,0.04590750000352273,0.0996789000055287,0.0997678999992786,0.7514852000022074
RSVPLG03,sg,20251118-123500,1.0.2,20251105-084826,746,Experiment,Both,1,Automatic,main,71,20251118-124359,global,global,300,H,S,A,E,H-A.png,S-E.png,hH,sS,mask-2.png,mask-1.png,h,1,0.4365241000050446,s,1,0.07516990000294754,0.04670780000014929,0.04669819999980973,0.09990719999768771,0.09989829999540234,0.30021210000268184
RSVPLG03,sg,20251118-123500,1.0.2,20251105-084826,746,Experiment,Both,1,Automatic,main,72,20251118-124403,global,global,750,H,S,E,A,H-E.png,S-A.png,hH,sS,mask-4.png,mask-4.png,h,1,0.55967260000034,h,0,0.1389303000032669,0.04774310000357218,0.047742499999003485,0.1000627000030363,0.10012859999551438,0.7502384000035818
RSVPLG03,sg,20251118-123500,1.0.2,20251105-084826,746,Experiment,Both,1,Automatic,main,73,20251118-124408,local,local,300,H,S,E,E,E-H.png,E-S.png,hH,sS,mask-3.png,mask-4.png,h,1,1.9585020999948028,s,1,0.07225880000623874,0.047071700006199535,0.04807740000251215,0.1000934000039706,0.10013350000372157,0.29980950000026496
RSVPLG03,sg,20251118-123500,1.0.2,20251105-084826,746,Experiment,Both,1,Automatic,main,74,20251118-124413,global,global,300,H,H,E,E,H-E.png,H-E.png,hH,hH,mask-1.png,mask-2.png,h,1,0.5141752999988967,h,1,0.1533223000005819,0.04769710000255145,0.04769739999755984,0.0998985000042012,0.10195810000004712,0.29957800000556745
RSVPLG03,sg,20251118-123500,1.0.2,20251105-084826,746,Experiment,Both,1,Automatic,main,75,20251118-124418,local,local,300,H,H,E,E,E-H.png,E-H.png,hH,hH,mask-2.png,mask-3.png,h,1,1.2211457999947015,h,1,0.10896589999902062,0.047706699995615054,0.04803649999666959,0.09990699999616481,0.10192279999318998,0.2987804000003962
RSVPLG03,sg,20251118-123500,1.0.2,20251105-084826,746,Experiment,Both,1,Automatic,main,76,20251118-124508,local,local,300,S,S,A,E,A-S.png,E-S.png,sS,sS,mask-1.png,mask-2.png,s,1,1.9049235000056797,h,0,0.021820699999807402,0.047735499996633735,0.047722300005261786,0.09992509999574395,0.09992120000242721,0.3004107999950065
RSVPLG03,sg,20251118-123500,1.0.2,20251105-084826,746,Experiment,Both,1,Automatic,main,77,20251118-124514,local,local,750,S,H,E,E,E-S.png,E-H.png,sS,hH,mask-2.png,mask-3.png,s,1,0.6894118999989587,s,0,0.3017136999987997,0.047446900003706105,0.04656840000097873,0.10140940000565024,0.09790110000176355,0.7525861000031
RSVPLG03,sg,20251118-123500,1.0.2,20251105-084826,746,Experiment,Both,1,Automatic,main,78,20251118-124519,global,global,750,H,S,E,A,H-E.png,S-A.png,hH,sS,mask-1.png,mask-3.png,h,1,0.5418480000007548,h,0,0.5380516000004718,0.047556299999996554,0.04754030000185594,0.10159390000626445,0.09984229999827221,0.7512570000035339
RSVPLG03,sg,20251118-123500,1.0.2,20251105-084826,746,Experiment,Both,1,Automatic,main,79,20251118-124524,local,local,300,H,S,E,E,E-H.png,E-S.png,hH,sS,mask-1.png,mask-3.png,h,1,1.4394810000012512,s,1,0.2947372999988147,0.046697599995241035,0.04774600000382634,0.09992100000090431,0.10140569999930449,0.29941519999556476
RSVPLG03,sg,20251118-123500,1.0.2,20251105-084826,746,Experiment,Both,1,Automatic,main,80,20251118-124530,global,local,750,S,H,A,E,S-A.png,E-H.png,sS,hH,mask-1.png,mask-4.png,s,1,0.6387573999963934,h,1,0.39126319999923,0.046912899997550994,0.04763420000381302,0.10108000000036554,0.09987009999895236,0.7508481999975629
RSVPLG03,sg,20251118-123500,1.0.2,20251105-084826,746,Experiment,Both,1,Automatic,main,81,20251118-124535,local,global,300,S,H,E,E,E-S.png,H-E.png,sS,hH,mask-1.png,mask-4.png,s,1,0.4948800999991363,s,0,0.7646996999974363,0.0466180000003078,0.04749360000278102,0.09906810000393307,0.09862340000108816,0.3003473999997368
RSVPLG03,sg,20251118-123500,1.0.2,20251105-084826,746,Experiment,Both,1,Automatic,main,82,20251118-124540,global,global,300,S,H,A,E,S-A.png,H-E.png,sS,hH,mask-1.png,mask-4.png,s,1,0.6776141000009375,h,1,0.220809400001599,0.04643180000130087,0.04742719999921974,0.0991682000021683,0.10018169999966631,0.2992579000056139
RSVPLG03,sg,20251118-123500,1.0.2,20251105-084826,746,Experiment,Both,1,Automatic,main,83,20251118-124545,local,global,750,H,H,E,A,E-H.png,H-A.png,hH,hH,mask-3.png,mask-2.png,h,1,0.5494988999998895,h,1,0.1699875999984215,0.04751959999703104,0.04667080000217538,0.09956059999967692,0.10085499999695458,0.7504822999981116
RSVPLG03,sg,20251118-123500,1.0.2,20251105-084826,746,Experiment,Both,1,Automatic,main,84,20251118-124549,global,local,750,H,H,E,A,H-E.png,A-H.png,hH,hH,mask-4.png,mask-4.png,h,1,2.1040777000016533,s,0,0.07549589999689488,0.0475083999990602,0.0465805999992881,0.09960529999807477,0.09953649999806657,0.7505724000002374
RSVPLG03,sg,20251118-123500,1.0.2,20251105-084826,746,Experiment,Both,1,Automatic,main,85,20251118-124556,global,global,750,H,S,A,A,H-A.png,S-A.png,hH,sS,mask-2.png,mask-2.png,h,1,0.353553799999645,h,0,0.6402302000060445,0.045724200004769955,0.04775250000238884,0.09904749999986961,0.10103269999672193,0.750223900002311
RSVPLG03,sg,20251118-123500,1.0.2,20251105-084826,746,Experiment,Both,1,Automatic,main,86,20251118-124601,local,global,300,H,H,A,E,A-H.png,H-E.png,hH,hH,mask-4.png,mask-3.png,h,1,0.7039414999962901,h,1,0.3779692999960389,0.047625800005334895,0.04748980000294978,0.1006829000034486,0.09956190000229981,0.30115870000008726
RSVPLG03,sg,20251118-123500,1.0.2,20251105-084826,746,Experiment,Both,1,Automatic,main,87,20251118-124606,global,local,300,H,H,A,E,H-A.png,E-H.png,hH,hH,mask-2.png,mask-2.png,h,1,0.48437460000423016,h,1,1.4918674000000465,0.048911199999565724,0.0475637000054121,0.10104209999553859,0.10101679999934277,0.3017026999950758
RSVPLG03,sg,20251118-123500,1.0.2,20251105-084826,746,Experiment,Both,1,Automatic,main,88,20251118-124611,global,local,750,S,S,A,E,S-A.png,E-S.png,sS,sS,mask-1.png,mask-4.png,s,1,0.48019989999738755,s,1,0.10757779999403283,0.04793439999775728,0.04756549999729032,0.09994399999413872,0.09855309999693418,0.7516615999993519
RSVPLG03,sg,20251118-123500,1.0.2,20251105-084826,746,Experiment,Both,1,Automatic,main,89,20251118-124616,global,local,300,S,S,E,A,S-E.png,A-S.png,sS,sS,mask-2.png,mask-3.png,s,1,0.460381500000949,h,0,0.1267465999990236,0.04694940000626957,0.04755049999948824,0.09846790000301553,0.10072429999854648,0.3001310000036028
RSVPLG03,sg,20251118-123500,1.0.2,20251105-084826,746,Experiment,Both,1,Automatic,main,90,20251118-124620,local,global,300,H,H,E,E,E-H.png,H-E.png,hH,hH,mask-4.png,mask-1.png,h,1,0.6226673999990453,h,1,0.7299358000018401,0.04770060000009835,0.04590120000648312,0.09986529999878258,0.09893070000543958,0.3004651999945054
RSVPLG03,sg,20251118-123500,1.0.2,20251105-084826,746,Experiment,Both,1,Automatic,main,91,20251118-124626,global,global,300,H,S,A,A,H-A.png,S-A.png,hH,sS,mask-2.png,mask-1.png,h,1,0.6055262999943807,s,1,0.10901379999995697,0.04772370000137016,0.047738199995364994,0.09991980000631884,0.0999316999950679,0.30054320000635926
RSVPLG03,sg,20251118-123500,1.0.2,20251105-084826,746,Experiment,Both,1,Automatic,main,92,20251118-124630,global,local,750,S,H,E,A,S-E.png,A-H.png,sS,hH,mask-3.png,mask-2.png,s,1,0.5560305000035441,s,0,0.26857599999493686,0.04851280000002589,0.04872900000191294,0.1004047000024002,0.09992159999819705,0.7510595999992802
RSVPLG03,sg,20251118-123500,1.0.2,20251105-084826,746,Experiment,Both,1,Automatic,main,93,20251118-124635,local,local,300,H,H,E,E,E-H.png,E-H.png,hH,hH,mask-1.png,mask-1.png,h,1,0.4970199000017601,h,1,0.7954061000054935,0.050495899995439686,0.04886339999939082,0.10093639999831794,0.10017929999594344,0.30117210000025807
RSVPLG03,sg,20251118-123500,1.0.2,20251105-084826,746,Experiment,Both,1,Automatic,main,94,20251118-124640,global,global,750,S,H,E,A,S-E.png,H-A.png,sS,hH,mask-2.png,mask-4.png,s,1,0.4064624000020558,h,1,0.18275010000070324,0.04867259999446105,0.047895199997583404,0.09928039999795146,0.10090969999873778,0.7507157000000007
RSVPLG03,sg,20251118-123500,1.0.2,20251105-084826,746,Experiment,Both,1,Automatic,main,95,20251118-124645,local,global,300,H,S,A,E,A-H.png,S-E.png,hH,sS,mask-4.png,mask-4.png,h,1,0.7583432000028552,s,1,0.15328559999761637,0.046588500001234934,0.046733999995922204,0.09965750000264961,0.09985699999378994,0.2992895000061253
RSVPLG03,sg,20251118-123500,1.0.2,20251105-084826,746,Experiment,Both,1,Automatic,main,96,20251118-124649,local,local,750,S,H,A,E,A-S.png,E-H.png,sS,hH,mask-1.png,mask-1.png,h,0,0.6028727000011713,s,0,0.10291329999745358,0.04857579999952577,0.04855130000214558,0.09960770000179764,0.10146469999745023,0.7508039000022109
RSVPLG03,sg,20251118-123500,1.0.2,20251105-084826,746,Experiment,Both,1,Automatic,main,97,20251118-124654,global,local,750,H,H,A,E,H-A.png,E-H.png,hH,hH,mask-3.png,mask-4.png,h,1,0.6194434999997611,s,0,0.17624890000297455,0.047975299996323884,0.047906500003591646,0.10019299999839859,0.10057860000233632,0.7506934999983059
RSVPLG03,sg,20251118-123500,1.0.2,20251105-084826,746,Experiment,Both,1,Automatic,main,98,20251118-124659,global,local,750,H,H,A,A,H-A.png,A-H.png,hH,hH,mask-3.png,mask-3.png,h,1,0.628823499995633,h,1,0.21539260000281502,0.04653179999877466,0.04781650000222726,0.098609699998633,0.10050030000275001,0.7499156999983825
RSVPLG03,sg,20251118-123500,1.0.2,20251105-084826,746,Experiment,Both,1,Automatic,main,99,20251118-124704,global,global,300,S,S,E,E,S-E.png,S-E.png,sS,sS,mask-3.png,mask-1.png,s,1,0.43077099999936763,s,1,0.07363970000005793,0.047711399995023385,0.04871709999861196,0.10023250000085682,0.10101700000086566,0.29890059999888763
RSVPLG03,sg,20251118-123500,1.0.2,20251105-084826,746,Experiment,Both,1,Automatic,main,100,20251118-124709,global,local,300,S,S,E,A,S-E.png,A-S.png,sS,sS,mask-2.png,mask-4.png,s,1,1.4003068999954849,h,0,0.10588169999391539,0.04759869999543298,0.04749749999609776,0.10063390000141226,0.09951580000051763,0.30019950000132667
RSVPLG03,sg,20251118-123528,1.0.2,20251105-084826,746,Experiment,Both,1,Automatic,warmup,1,20251118-124808,global,global,300,S,S,A,E,S-A.png,S-E.png,sS,sS,mask-1.png,mask-1.png,s,1,0.4388820000021951,s,1,0.07230790000176057,0.048431600000185426,0.047606700005417224,0.10218349999922793,0.09976670000469312,0.30315539999719476
RSVPLG03,sg,20251118-123528,1.0.2,20251105-084826,746,Experiment,Both,1,Automatic,warmup,2,20251118-124813,local,global,750,S,H,A,A,A-S.png,H-A.png,sS,hH,mask-3.png,mask-4.png,s,1,0.4680889999945066,h,1,0.05816610000329092,0.04785009999613976,0.04639350000070408,0.10100149999925634,0.09838789999776054,0.756115399999544
RSVPLG03,sg,20251118-123528,1.0.2,20251105-084826,746,Experiment,Both,1,Automatic,warmup,3,20251118-124817,global,local,750,S,S,A,A,S-A.png,A-S.png,sS,sS,mask-3.png,mask-1.png,s,1,0.4596856999996817,s,1,0.07851680000021588,0.04569180000544293,0.04650579999724869,0.09993650000251364,0.10059909999836236,0.7553149000013946
RSVPLG03,sg,20251118-123528,1.0.2,20251105-084826,746,Experiment,Both,1,Automatic,warmup,4,20251118-124822,global,global,750,H,S,A,E,H-A.png,S-E.png,hH,sS,mask-2.png,mask-4.png,h,1,0.3236832000038703,s,1,0.08885580000060145,0.04722839999885764,0.046665200003189966,0.10029919999942649,0.10135650000302121,0.7548705999943195
RSVPLG03,sg,20251118-123528,1.0.2,20251105-084826,746,Experiment,Both,1,Automatic,main,5,20251118-124827,global,local,300,S,H,A,A,S-A.png,A-H.png,sS,hH,mask-3.png,mask-4.png,s,1,0.41195510000397917,s,0,0.11028309999528574,0.04622920000110753,0.04563559999951394,0.10140709999541286,0.09964519999630284,0.30302320000191685
RSVPLG03,sg,20251118-123528,1.0.2,20251105-084826,746,Experiment,Both,1,Automatic,main,6,20251118-124831,local,global,300,S,S,E,E,E-S.png,S-E.png,sS,sS,mask-2.png,mask-4.png,s,1,0.3467780999999377,h,0,0.1521031000011135,0.04586070000368636,0.04627710000204388,0.10011930000473512,0.10023540000111097,0.30156320000241976
RSVPLG03,sg,20251118-123528,1.0.2,20251105-084826,746,Experiment,Both,1,Automatic,main,7,20251118-124835,local,global,300,H,S,A,A,A-H.png,S-A.png,hH,sS,mask-1.png,mask-3.png,h,1,0.44739600000320934,h,0,0.5415979000026709,0.04674199999863049,0.04753319999872474,0.09995799999887822,0.10181649999867659,0.3013881000006222
RSVPLG03,sg,20251118-123528,1.0.2,20251105-084826,746,Experiment,Both,1,Automatic,main,8,20251118-124840,global,local,300,S,S,E,A,S-E.png,A-S.png,sS,sS,mask-2.png,mask-3.png,s,1,0.5036574000041583,h,0,0.09433370000624564,0.046735800002352335,0.046392199998081196,0.1008674999975483,0.0990278000026592,0.30151699999987613
RSVPLG03,sg,20251118-123528,1.0.2,20251105-084826,746,Experiment,Both,1,Automatic,main,9,20251118-124844,local,global,750,H,H,A,E,A-H.png,H-E.png,hH,hH,mask-1.png,mask-1.png,h,1,0.4856861000007484,h,1,0.8466820000030566,0.04747510000015609,0.04671109999617329,0.10078640000574524,0.10186139999859734,0.7558296000061091
RSVPLG03,sg,20251118-123528,1.0.2,20251105-084826,746,Experiment,Both,1,Automatic,main,10,20251118-124850,local,global,300,S,S,A,A,A-S.png,S-A.png,sS,sS,mask-4.png,mask-2.png,s,1,0.7806293000030564,s,1,0.17027230000530835,0.04738609999913024,0.04658940000081202,0.1007465999937267,0.10090240000135964,0.30292029999691295
RSVPLG03,sg,20251118-123528,1.0.2,20251105-084826,746,Experiment,Both,1,Automatic,main,11,20251118-124854,local,local,750,S,S,A,E,A-S.png,E-S.png,sS,sS,mask-1.png,mask-4.png,s,1,0.4087024999971618,s,1,0.07381400000303984,0.04594569999608211,0.04728189999877941,0.09831080000003567,0.09960080000018934,0.7549881000013556
RSVPLG03,sg,20251118-123528,1.0.2,20251105-084826,746,Experiment,Both,1,Automatic,main,12,20251118-124859,local,global,300,H,S,A,E,A-H.png,S-E.png,hH,sS,mask-1.png,mask-3.png,h,1,0.37015880000399193,h,0,0.19740029999957187,0.04770490000373684,0.04747289999795612,0.10090979999949923,0.10178099999757251,0.30222170000342885
RSVPLG03,sg,20251118-123528,1.0.2,20251105-084826,746,Experiment,Both,1,Automatic,main,13,20251118-124903,global,local,750,S,H,A,A,S-A.png,A-H.png,sS,hH,mask-2.png,mask-2.png,s,1,1.564020800004073,h,1,0.006050099997082725,0.04751959999703104,0.047323699996923096,0.10216989999753423,0.10162449999916134,0.7563769999978831
RSVPLG03,sg,20251118-123528,1.0.2,20251105-084826,746,Experiment,Both,1,Automatic,main,14,20251118-124909,local,global,750,S,S,E,E,E-S.png,S-E.png,sS,sS,mask-1.png,mask-3.png,s,1,0.38096170000062557,h,0,1.070288899994921,0.04522990000259597,0.047582799998053815,0.1010865999996895,0.10059780000301544,0.7541215000019292
RSVPLG03,sg,20251118-123528,1.0.2,20251105-084826,746,Experiment,Both,1,Automatic,main,15,20251118-124915,global,global,300,H,H,E,A,H-E.png,H-A.png,hH,hH,mask-1.png,mask-4.png,s,0,1.1379209000006085,h,1,0.09402590000536293,0.04625089999899501,0.04814819999592146,0.09833309999521589,0.1011175000021467,0.30068539999774657
RSVPLG03,sg,20251118-123528,1.0.2,20251105-084826,746,Experiment,Both,1,Automatic,main,16,20251118-124920,global,global,300,S,S,A,E,S-A.png,S-E.png,sS,sS,mask-3.png,mask-4.png,s,1,0.451856300001964,s,1,0.24634119999973336,0.045284200001333375,0.045352499997534323,0.09799270000075921,0.10068979999778094,0.301901300001191
RSVPLG03,sg,20251118-123528,1.0.2,20251105-084826,746,Experiment,Both,1,Automatic,main,17,20251118-124924,global,global,300,H,S,A,E,H-A.png,S-E.png,hH,sS,mask-1.png,mask-3.png,h,1,0.3366905000002589,s,1,0.15222720000019763,0.04787289999512723,0.046714299998711795,0.10052859999996144,0.10083220000524307,0.30357469999580644
RSVPLG03,sg,20251118-123528,1.0.2,20251105-084826,746,Experiment,Both,1,Automatic,main,18,20251118-124928,global,local,750,H,S,A,A,H-A.png,A-S.png,hH,sS,mask-1.png,mask-4.png,h,1,0.5238068000035128,h,0,0.35794259999966016,0.04726690000097733,0.04763290000119014,0.1003980000023148,0.09991389999777311,0.7570016000026953
RSVPLG03,sg,20251118-123528,1.0.2,20251105-084826,746,Experiment,Both,1,Automatic,main,19,20251118-124933,global,local,750,H,S,A,A,H-A.png,A-S.png,hH,sS,mask-1.png,mask-1.png,s,0,0.454135200001474,s,1,2.3025420999983908,0.04704910000145901,0.04848709999350831,0.10066659999574767,0.10237499999493593,0.7526585000014165
RSVPLG03,sg,20251118-123528,1.0.2,20251105-084826,746,Experiment,Both,1,Automatic,main,20,20251118-124940,global,local,750,S,S,E,E,S-E.png,E-S.png,sS,sS,mask-2.png,mask-3.png,h,0,1.1465708000032464,s,1,0.14296119999926304,0.04618099999788683,0.04692049999721348,0.1000415000016801,0.10030130000086501,0.7563249000013457
RSVPLG03,sg,20251118-123528,1.0.2,20251105-084826,746,Experiment,Both,1,Automatic,main,21,20251118-124946,global,global,750,S,H,E,A,S-E.png,H-A.png,sS,hH,mask-3.png,mask-4.png,s,1,0.3140858999977354,h,1,0.1496052000002237,0.046498200004862156,0.046977899997727945,0.09982719999970868,0.09905150000122376,0.7547513000026811
RSVPLG03,sg,20251118-123528,1.0.2,20251105-084826,746,Experiment,Both,1,Automatic,main,22,20251118-124950,local,local,300,S,H,E,A,E-S.png,A-H.png,sS,hH,mask-3.png,mask-2.png,s,1,0.7516786999985925,h,1,0.42460339999524876,0.04654299999674549,0.04915170000458602,0.09998210000048857,0.10123350000503706,0.30078559999674326
RSVPLG03,sg,20251118-123528,1.0.2,20251105-084826,746,Experiment,Both,1,Automatic,main,23,20251118-124955,local,global,300,S,S,E,E,E-S.png,S-E.png,sS,sS,mask-1.png,mask-4.png,s,1,1.278929000000062,h,0,0.19012150000344263,0.0460425999990548,0.04733699999633245,0.10030669999832753,0.10045839999656891,0.300262600001588
RSVPLG03,sg,20251118-123528,1.0.2,20251105-084826,746,Experiment,Both,1,Automatic,main,24,20251118-125001,global,global,300,S,H,A,E,S-A.png,H-E.png,sS,hH,mask-4.png,mask-2.png,s,1,1.3941514000034658,h,1,0.40764869999838993,0.047575899996445514,0.046706799999810755,0.1016516000017873,0.10058220000064466,0.3023410999958287
RSVPLG03,sg,20251118-123528,1.0.2,20251105-084826,746,Experiment,Both,1,Automatic,main,25,20251118-125006,local,local,300,H,H,A,E,A-H.png,E-H.png,hH,hH,mask-3.png,mask-3.png,h,1,0.7860853000020143,s,0,0.4287504000021727,0.047432699997443706,0.046822200005408376,0.10174559999722987,0.10238870000466704,0.30147349999606377
RSVPLG03,sg,20251118-123528,1.0.2,20251105-084826,746,Experiment,Both,1,Automatic,main,26,20251118-125042,global,local,750,S,H,A,A,S-A.png,A-H.png,sS,hH,mask-1.png,mask-3.png,s,1,1.1874920999980532,h,1,0.10469269999885,0.04851029999554157,0.04800390000309562,0.1014934999984689,0.1013338000047952,0.7553923999948893
RSVPLG03,sg,20251118-123528,1.0.2,20251105-084826,746,Experiment,Both,1,Automatic,main,27,20251118-125048,global,local,300,S,H,A,A,S-A.png,A-H.png,sS,hH,mask-2.png,mask-4.png,s,1,0.5253118999971775,h,1,0.09037379999790573,0.04571929999656277,0.048456399999849964,0.1005107999953907,0.10276739999972051,0.301287999995111
RSVPLG03,sg,20251118-123528,1.0.2,20251105-084826,746,Experiment,Both,1,Automatic,main,28,20251118-125052,local,local,750,H,S,A,E,A-H.png,E-S.png,hH,sS,mask-4.png,mask-2.png,h,1,0.8102619000055711,h,0,0.11059869999735383,0.047720200003823265,0.04603490000590682,0.09880739999789512,0.09949620000406867,0.7565011999977287
RSVPLG03,sg,20251118-123528,1.0.2,20251105-084826,746,Experiment,Both,1,Automatic,main,29,20251118-125057,local,global,750,S,H,E,A,E-S.png,H-A.png,sS,hH,mask-2.png,mask-4.png,s,1,0.4901157999993302,h,1,0.15900710000278195,0.04712239999935264,0.047731900005601346,0.09956289999536239,0.10171139999874867,0.7560086999947089
RSVPLG03,sg,20251118-123528,1.0.2,20251105-084826,746,Experiment,Both,1,Automatic,main,30,20251118-125102,global,global,750,S,H,E,A,S-E.png,H-A.png,sS,hH,mask-3.png,mask-3.png,s,1,1.0173160000049393,h,1,0.14009810000425205,0.04636439999740105,0.04762199999822769,0.10094859999662731,0.10183060000417754,0.7549789999975474
RSVPLG03,sg,20251118-123528,1.0.2,20251105-084826,746,Experiment,Both,1,Automatic,main,31,20251118-125107,global,global,750,S,H,E,E,S-E.png,H-E.png,sS,hH,mask-4.png,mask-3.png,s,1,0.5856597000019974,h,1,0.11782140000286745,0.046578599998611026,0.04638320000231033,0.10073430000193184,0.10181130000273697,0.7542098999983864
RSVPLG03,sg,20251118-123528,1.0.2,20251105-084826,746,Experiment,Both,1,Automatic,main,32,20251118-125112,global,global,300,S,H,E,E,S-E.png,H-E.png,sS,hH,mask-2.png,mask-1.png,s,1,1.4897024000019883,h,1,0.1097141999998712,0.04543260000355076,0.0464367000022321,0.09948310000618221,0.09965039999951841,0.3021855000042706
RSVPLG03,sg,20251118-123528,1.0.2,20251105-084826,746,Experiment,Both,1,Automatic,main,33,20251118-125118,global,global,750,H,S,E,A,H-E.png,S-A.png,hH,sS,mask-3.png,mask-3.png,h,1,0.79732719999447,s,1,0.10197550000157207,0.04624889999831794,0.04730520000157412,0.10030349999578902,0.10052710000309162,0.7549584999942454
RSVPLG03,sg,20251118-123528,1.0.2,20251105-084826,746,Experiment,Both,1,Automatic,main,34,20251118-125123,global,global,750,H,H,E,E,H-E.png,H-E.png,hH,hH,mask-4.png,mask-2.png,h,1,0.6675187000000733,h,1,0.12730739999824436,0.047175800005788915,0.047553500000503846,0.10046880000300007,0.09975560000020778,0.7559596999999485
RSVPLG03,sg,20251118-123528,1.0.2,20251105-084826,746,Experiment,Both,1,Automatic,main,35,20251118-125128,local,local,750,S,S,A,A,A-S.png,A-S.png,sS,sS,mask-1.png,mask-2.png,h,0,0.5548937999992631,s,1,0.12734500000078697,0.047599999998055864,0.04749649999575922,0.1006753999972716,0.10186750000139,0.7549025999978767
RSVPLG03,sg,20251118-123528,1.0.2,20251105-084826,746,Experiment,Both,1,Automatic,main,36,20251118-125132,local,global,300,S,H,A,A,A-S.png,H-A.png,sS,hH,mask-4.png,mask-3.png,s,1,1.2008246999976109,h,1,0.18203969999740366,0.047544499997457024,0.047660000003816094,0.10050589999445947,0.10021850000339327,0.3019683999955305
RSVPLG03,sg,20251118-123528,1.0.2,20251105-084826,746,Experiment,Both,1,Automatic,main,37,20251118-125138,local,global,300,H,H,E,E,E-H.png,H-E.png,hH,hH,mask-2.png,mask-3.png,s,0,1.2490190000025905,h,1,1.3667466999977478,0.049237200000789016,0.047432999999728054,0.1016929000033997,0.10054459999810206,0.3040945000029751
RSVPLG03,sg,20251118-123528,1.0.2,20251105-084826,746,Experiment,Both,1,Automatic,main,38,20251118-125144,global,local,300,H,S,A,E,H-A.png,E-S.png,hH,sS,mask-4.png,mask-3.png,h,1,0.9144727999955649,s,1,0.3736602999997558,0.045499499996367376,0.04753340000024764,0.10084869999991497,0.10176630000205478,0.3012832999957027
RSVPLG03,sg,20251118-123528,1.0.2,20251105-084826,746,Experiment,Both,1,Automatic,main,39,20251118-125149,global,local,750,H,H,E,A,H-E.png,A-H.png,hH,hH,mask-2.png,mask-2.png,h,1,0.6030577999990783,h,1,0.1189336999959778,0.04934159999538679,0.047458900000492577,0.10079979999864008,0.09995639999397099,0.7568408000006457
RSVPLG03,sg,20251118-123528,1.0.2,20251105-084826,746,Experiment,Both,1,Automatic,main,40,20251118-125154,local,local,300,S,S,A,A,A-S.png,A-S.png,sS,sS,mask-3.png,mask-3.png,s,1,0.9790907999995397,s,1,0.10059060000639874,0.048109900002600625,0.046489199994539376,0.10054099999979371,0.10178230000019539,0.303052100003697
RSVPLG03,sg,20251118-123528,1.0.2,20251105-084826,746,Experiment,Both,1,Automatic,main,41,20251118-125159,global,global,750,S,H,A,E,S-A.png,H-E.png,sS,hH,mask-2.png,mask-3.png,s,1,0.6059235999928205,h,1,0.1432204000011552,0.04574780000257306,0.04754450000473298,0.09895210000104271,0.10177320000366308,0.7552072999969823
RSVPLG03,sg,20251118-123528,1.0.2,20251105-084826,746,Experiment,Both,1,Automatic,main,42,20251118-125204,global,global,750,S,H,E,A,S-E.png,H-A.png,sS,hH,mask-1.png,mask-4.png,s,1,0.3797301000013249,h,1,0.14930789999925764,0.04648720000113826,0.047233900004357565,0.09917509999650065,0.10129610000149114,0.7551594999968074
RSVPLG03,sg,20251118-123528,1.0.2,20251105-084826,746,Experiment,Both,1,Automatic,main,43,20251118-125208,global,global,750,S,S,A,A,S-A.png,S-A.png,sS,sS,mask-1.png,mask-4.png,s,1,0.3461018999951193,s,1,0.3441222000037669,0.04739269999845419,0.04539229999500094,0.09984000000258675,0.09984569999505766,0.7570435000016005
RSVPLG03,sg,20251118-123528,1.0.2,20251105-084826,746,Experiment,Both,1,Automatic,main,44,20251118-125213,global,local,750,H,S,E,E,H-E.png,E-S.png,hH,sS,mask-3.png,mask-1.png,h,1,0.4289271000016015,s,1,0.23871360000339337,0.04741379999904893,0.04762689999915892,0.10076149999804329,0.10030799999367446,0.7548366000046371
RSVPLG03,sg,20251118-123528,1.0.2,20251105-084826,746,Experiment,Both,1,Automatic,main,45,20251118-125218,global,local,300,S,H,A,A,S-A.png,A-H.png,sS,hH,mask-4.png,mask-1.png,h,0,0.7074637000041548,s,0,0.15391239999735262,0.045463299997209106,0.046174600000085775,0.09978050000063377,0.10068709999904968,0.301449099999445
RSVPLG03,sg,20251118-123528,1.0.2,20251105-084826,746,Experiment,Both,1,Automatic,main,46,20251118-125223,local,global,300,S,S,E,A,E-S.png,S-A.png,sS,sS,mask-4.png,mask-3.png,s,1,0.5607237000003806,s,1,0.4227883000057773,0.046460199999273755,0.0454327999977977,0.10044190000189701,0.09985410000081174,0.3033126000009361
RSVPLG03,sg,20251118-123528,1.0.2,20251105-084826,746,Experiment,Both,1,Automatic,main,47,20251118-125227,local,local,750,H,H,E,E,E-H.png,E-H.png,hH,hH,mask-4.png,mask-1.png,h,1,0.9385742000013124,h,1,0.18660150000505382,0.04690169999958016,0.04806760000064969,0.10014550000050804,0.10365920000185724,0.7535745999994106
RSVPLG03,sg,20251118-123528,1.0.2,20251105-084826,746,Experiment,Both,1,Automatic,main,48,20251118-125233,local,local,300,S,H,E,E,E-S.png,E-H.png,sS,hH,mask-2.png,mask-2.png,s,1,0.9935148000004119,h,1,0.24719959999492858,0.0454983000017819,0.04655559999810066,0.10086220000084722,0.10170709999511018,0.3012444000050891
RSVPLG03,sg,20251118-123528,1.0.2,20251105-084826,746,Experiment,Both,1,Automatic,main,49,20251118-125238,global,global,300,S,S,E,E,S-E.png,S-E.png,sS,sS,mask-1.png,mask-4.png,s,1,0.5268997000021045,s,1,0.09464880000450648,0.04919799999333918,0.04846879999968223,0.10062559999641962,0.10142369999812217,0.3033218999989913
RSVPLG03,sg,20251118-123528,1.0.2,20251105-084826,746,Experiment,Both,1,Automatic,main,50,20251118-125242,local,global,750,H,H,A,A,A-H.png,H-A.png,hH,hH,mask-1.png,mask-4.png,s,0,2.312754299993685,h,1,0.06981429999723332,0.04727269999420969,0.04724810000334401,0.09904749999986961,0.10067260000505485,0.7549068999942392
RSVPLG03,sg,20251118-123528,1.0.2,20251105-084826,746,Experiment,Both,1,Automatic,main,51,20251118-125325,global,local,750,S,S,E,E,S-E.png,E-S.png,sS,sS,mask-2.png,mask-1.png,s,1,0.5280131000035908,s,1,0.12475049999920884,0.04572120000375435,0.04738950000319164,0.09996310000133235,0.10232109999924432,0.7542294000013499
RSVPLG03,sg,20251118-123528,1.0.2,20251105-084826,746,Experiment,Both,1,Automatic,main,52,20251118-125330,global,local,750,H,H,E,A,H-E.png,A-H.png,hH,hH,mask-1.png,mask-4.png,h,1,0.3160920000009355,s,0,0.13390780000190716,0.04667019999760669,0.046604600000137,0.09787779999896884,0.10080480000033276,0.7549560999977984
RSVPLG03,sg,20251118-123528,1.0.2,20251105-084826,746,Experiment,Both,1,Automatic,main,53,20251118-125335,global,local,300,H,S,E,E,H-E.png,E-S.png,hH,sS,mask-3.png,mask-2.png,h,1,0.5764115000056336,s,1,0.7670100000032107,0.0462005000008503,0.04951040000014473,0.10144629999558674,0.10369250000076136,0.30002309999690624
RSVPLG03,sg,20251118-123528,1.0.2,20251105-084826,746,Experiment,Both,1,Automatic,main,54,20251118-125340,local,local,750,S,H,A,A,A-S.png,A-H.png,sS,hH,mask-3.png,mask-4.png,s,1,0.21806509999441914,h,1,0.11097570000129053,0.045245599998452235,0.04752819999703206,0.09967229999892879,0.10168919999705395,0.753760899999179
RSVPLG03,sg,20251118-123528,1.0.2,20251105-084826,746,Experiment,Both,1,Automatic,main,55,20251118-125344,global,local,300,S,H,E,A,S-E.png,A-H.png,sS,hH,mask-1.png,mask-1.png,s,1,0.4952437000029022,h,1,0.31956280000304105,0.04695689999789465,0.04667880000488367,0.10065250000479864,0.1003703000023961,0.30247329999838257
RSVPLG03,sg,20251118-123528,1.0.2,20251105-084826,746,Experiment,Both,1,Automatic,main,56,20251118-125349,global,local,300,H,S,E,E,H-E.png,E-S.png,hH,sS,mask-4.png,mask-3.png,h,1,1.1677000999989104,s,1,0.09498100000200793,0.0484885000041686,0.04615370000101393,0.10013670000626007,0.10181149999698391,0.30225220000284025
RSVPLG03,sg,20251118-123528,1.0.2,20251105-084826,746,Experiment,Both,1,Automatic,main,57,20251118-125354,local,local,300,H,H,E,A,E-H.png,A-H.png,hH,hH,mask-2.png,mask-3.png,h,1,1.7577377000052365,s,0,0.06946840000455268,0.04814450000412762,0.046593099999881815,0.10255510000570212,0.09928219999710564,0.3029770000066492
RSVPLG03,sg,20251118-123528,1.0.2,20251105-084826,746,Experiment,Both,1,Automatic,main,58,20251118-125359,local,local,750,S,S,A,E,A-S.png,E-S.png,sS,sS,mask-3.png,mask-2.png,s,1,0.4070105999999214,s,1,0.10588880000432255,0.04634989999613026,0.04772930000035558,0.10158239999873331,0.10200009999971371,0.7547057999981917
RSVPLG03,sg,20251118-123528,1.0.2,20251105-084826,746,Experiment,Both,1,Automatic,main,59,20251118-125404,local,global,750,S,S,E,E,E-S.png,S-E.png,sS,sS,mask-1.png,mask-4.png,s,1,0.4598480999993626,s,1,0.10790130000532372,0.04535800000303425,0.0485562999965623,0.09971110000333283,0.1007026999941445,0.753940300004615
RSVPLG03,sg,20251118-123528,1.0.2,20251105-084826,746,Experiment,Both,1,Automatic,main,60,20251118-125409,global,local,750,S,H,A,A,S-A.png,A-H.png,sS,hH,mask-2.png,mask-4.png,s,1,0.3638173000072129,h,1,0.2232402000008733,0.046541800002160016,0.048206800005573314,0.1019319999977597,0.10021070000220789,0.7555495999986306
RSVPLG03,sg,20251118-123528,1.0.2,20251105-084826,746,Experiment,Both,1,Automatic,main,61,20251118-125414,global,global,300,S,S,E,A,S-E.png,S-A.png,sS,sS,mask-1.png,mask-4.png,s,1,0.670480900000257,s,1,0.12198830000124872,0.04740949999541044,0.047454899999138433,0.10236889999941923,0.1007605999984662,0.3038738999966881
RSVPLG03,sg,20251118-123528,1.0.2,20251105-084826,746,Experiment,Both,1,Automatic,main,62,20251118-125418,global,local,300,H,H,E,A,H-E.png,A-H.png,hH,hH,mask-4.png,mask-3.png,h,1,0.4338777999946615,h,1,0.10825060000206577,0.0482929999998305,0.04657969999971101,0.10382039999967674,0.10087989999738056,0.30497660000401083
RSVPLG03,sg,20251118-123528,1.0.2,20251105-084826,746,Experiment,Both,1,Automatic,main,63,20251118-125422,local,global,750,H,S,A,A,A-H.png,S-A.png,hH,sS,mask-1.png,mask-1.png,h,1,0.44314370000211056,s,1,0.7518170999974245,0.0454978999987361,0.046337299994775094,0.10070479999558302,0.0976373000012245,0.755312799999956
RSVPLG03,sg,20251118-123528,1.0.2,20251105-084826,746,Experiment,Both,1,Automatic,main,64,20251118-125428,local,global,750,S,H,A,A,A-S.png,H-A.png,sS,hH,mask-2.png,mask-2.png,s,1,0.9824489999955404,h,1,0.023122699996747542,0.046527600003173575,0.04647259999910602,0.10105620000103954,0.10123120000207564,0.7559768999999505
RSVPLG03,sg,20251118-123528,1.0.2,20251105-084826,746,Experiment,Both,1,Automatic,main,65,20251118-125433,local,global,300,H,H,E,A,E-H.png,H-A.png,hH,hH,mask-3.png,mask-4.png,h,1,1.0086031000028015,s,0,0.16819100000429899,0.04781150000053458,0.04623819999687839,0.10094850000314182,0.10171399999671848,0.302408400006243
RSVPLG03,sg,20251118-123528,1.0.2,20251105-084826,746,Experiment,Both,1,Automatic,main,66,20251118-125438,global,local,750,S,H,A,E,S-A.png,E-H.png,sS,hH,mask-2.png,mask-4.png,s,1,0.8093368999980157,h,1,0.07443030000285944,0.04626570000255015,0.04707310000230791,0.10169080000196118,0.10153250000439584,0.7550783999977284
RSVPLG03,sg,20251118-123528,1.0.2,20251105-084826,746,Experiment,Both,1,Automatic,main,67,20251118-125443,local,local,750,H,H,A,E,A-H.png,E-H.png,hH,hH,mask-3.png,mask-4.png,h,1,1.3858061999999336,s,0,0.10562860000209184,0.04635660000349162,0.0488374999986263,0.10065140000369865,0.10271379999903729,0.7539955000029295
RSVPLG03,sg,20251118-123528,1.0.2,20251105-084826,746,Experiment,Both,1,Automatic,main,68,20251118-125449,local,global,750,S,S,A,A,A-S.png,S-A.png,sS,sS,mask-4.png,mask-2.png,s,1,0.7941165000011097,s,1,0.09377189999941038,0.04553219999797875,0.04750170000625076,0.10058800000115298,0.09991250000166474,0.7539475999947172
RSVPLG03,sg,20251118-123528,1.0.2,20251105-084826,746,Experiment,Both,1,Automatic,main,69,20251118-125454,local,local,300,H,S,A,E,A-H.png,E-S.png,hH,sS,mask-1.png,mask-1.png,h,1,0.9870140999992145,s,1,0.5045318999982555,0.045315399998798966,0.047123299998929724,0.09975370000029216,0.100479799999448,0.3016473999959999
RSVPLG03,sg,20251118-123528,1.0.2,20251105-084826,746,Experiment,Both,1,Automatic,main,70,20251118-125459,local,local,750,H,S,E,E,E-H.png,E-S.png,hH,sS,mask-3.png,mask-3.png,h,1,0.4920406000019284,s,1,0.15378700000292156,0.046450299996649846,0.04743400000006659,0.1018677000029129,0.09878000000026077,0.7550211999987368
RSVPLG03,sg,20251118-123528,1.0.2,20251105-084826,746,Experiment,Both,1,Automatic,main,71,20251118-125504,global,local,300,S,S,A,A,S-A.png,A-S.png,sS,sS,mask-3.png,mask-1.png,h,0,1.5379124000028241,h,0,0.14280950000102166,0.04738720000023022,0.04549310000584228,0.09866400000464637,0.10071560000505997,0.30332970000017667
RSVPLG03,sg,20251118-123528,1.0.2,20251105-084826,746,Experiment,Both,1,Automatic,main,72,20251118-125509,global,global,300,H,H,A,E,H-A.png,H-E.png,hH,hH,mask-2.png,mask-2.png,h,1,0.5250373999951989,h,1,1.0556546000007074,0.0456800000029034,0.04833620000135852,0.09989689999929396,0.10192459999962011,0.3003969999990659
RSVPLG03,sg,20251118-123528,1.0.2,20251105-084826,746,Experiment,Both,1,Automatic,main,73,20251118-125514,local,local,300,S,H,E,E,E-S.png,E-H.png,sS,hH,mask-2.png,mask-4.png,s,1,0.5432763999997405,s,0,0.1910760999962804,0.04746090000116965,0.04741350000404054,0.09992849999980535,0.10057290000258945,0.3032196999993175
RSVPLG03,sg,20251118-123528,1.0.2,20251105-084826,746,Experiment,Both,1,Automatic,main,74,20251118-125519,global,local,750,H,S,E,A,H-E.png,A-S.png,hH,sS,mask-2.png,mask-1.png,h,1,0.3005120000016177,s,1,0.21331930000451393,0.04648980000638403,0.04828829999314621,0.10083130000566598,0.10064499999862164,0.7550213000067743
RSVPLG03,sg,20251118-123528,1.0.2,20251105-084826,746,Experiment,Both,1,Automatic,main,75,20251118-125524,local,local,300,S,H,A,A,A-S.png,A-H.png,sS,hH,mask-3.png,mask-2.png,s,1,1.1836838000017451,h,1,0.08512370000244118,0.04755749999458203,0.045499699997890275,0.10020819999772357,0.09886259999620961,0.3044055999998818
RSVPLG03,sg,20251118-123528,1.0.2,20251105-084826,746,Experiment,Both,1,Automatic,main,76,20251118-125624,local,local,300,S,S,E,E,E-S.png,E-S.png,sS,sS,mask-2.png,mask-3.png,s,1,1.029375499994785,h,0,0.2975494999991497,0.04735440000513336,0.04759049999847775,0.10297870000067633,0.1007917000024463,0.30407220000051893
RSVPLG03,sg,20251118-123528,1.0.2,20251105-084826,746,Experiment,Both,1,Automatic,main,77,20251118-125629,global,global,300,S,S,A,E,S-A.png,S-E.png,sS,sS,mask-2.png,mask-1.png,s,1,0.7045826999965357,s,1,0.07633050000004005,0.0444361999980174,0.046336899999005254,0.09976109999843175,0.10062810000090394,0.3013661000004504
RSVPLG03,sg,20251118-123528,1.0.2,20251105-084826,746,Experiment,Both,1,Automatic,main,78,20251118-125634,local,global,750,H,H,A,E,A-H.png,H-E.png,hH,hH,mask-3.png,mask-1.png,h,1,0.42534080000041286,h,1,0.09403040000324836,0.04646559999673627,0.04922480000095675,0.09983530000317842,0.10272270000132266,0.7521655000018654
RSVPLG03,sg,20251118-123528,1.0.2,20251105-084826,746,Experiment,Both,1,Automatic,main,79,20251118-125638,local,local,300,S,S,A,A,A-S.png,A-S.png,sS,sS,mask-1.png,mask-2.png,s,1,0.4351055000006454,s,1,0.15352580000035232,0.046288499994261656,0.04751699999906123,0.10068059999321122,0.10194729999784613,0.30091949999768985
RSVPLG03,sg,20251118-123528,1.0.2,20251105-084826,746,Experiment,Both,1,Automatic,main,80,20251118-125643,local,global,750,S,S,E,E,E-S.png,S-E.png,sS,sS,mask-2.png,mask-2.png,s,1,0.37689740000496386,s,1,0.07633370000257855,0.04635319999943022,0.04847650000010617,0.10086429999500979,0.10094589999789605,0.7549759999965318
RSVPLG03,sg,20251118-123528,1.0.2,20251105-084826,746,Experiment,Both,1,Automatic,main,81,20251118-125647,local,local,750,S,H,A,E,A-S.png,E-H.png,sS,hH,mask-3.png,mask-4.png,s,1,0.6503432000026805,s,0,0.1521627999973134,0.04552540000440786,0.048695999998017214,0.09970350000367034,0.10109479999664472,0.7527066000038758
RSVPLG03,sg,20251118-123528,1.0.2,20251105-084826,746,Experiment,Both,1,Automatic,main,82,20251118-125652,global,global,750,S,S,E,A,S-E.png,S-A.png,sS,sS,mask-3.png,mask-2.png,s,1,0.4736659999980475,s,1,0.087845499998366,0.04803420000098413,0.048357299994677305,0.10185110000020359,0.1004936999961501,0.7562369000006584
RSVPLG03,sg,20251118-123528,1.0.2,20251105-084826,746,Experiment,Both,1,Automatic,main,83,20251118-125657,local,local,750,H,H,A,E,A-H.png,E-H.png,hH,hH,mask-3.png,mask-2.png,h,1,0.8567487000036635,h,1,0.49019330000010086,0.047318200005975086,0.04958469999837689,0.10169800000585383,0.10198959999979706,0.7538605000008829
RSVPLG03,sg,20251118-123528,1.0.2,20251105-084826,746,Experiment,Both,1,Automatic,main,84,20251118-125703,local,local,750,S,S,A,E,A-S.png,E-S.png,sS,sS,mask-3.png,mask-2.png,s,1,0.5698361999966437,h,0,0.7776540999984718,0.04634970000188332,0.04940789999818662,0.10201239999878453,0.10375750000093831,0.753374599997187
RSVPLG03,sg,20251118-123528,1.0.2,20251105-084826,746,Experiment,Both,1,Automatic,main,85,20251118-125708,local,global,300,S,H,E,A,E-S.png,H-A.png,sS,hH,mask-1.png,mask-3.png,s,1,0.5579142000060529,h,1,0.0927092000056291,0.04654119999759132,0.04812329999549547,0.09986770000250544,0.10043369999766583,0.30158120000123745
RSVPLG03,sg,20251118-123528,1.0.2,20251105-084826,746,Experiment,Both,1,Automatic,main,86,20251118-125712,local,local,300,H,H,E,E,E-H.png,E-H.png,hH,hH,mask-2.png,mask-3.png,h,1,1.342668400000548,h,1,0.10923380000167526,0.04808319999574451,0.04541290000634035,0.10217140000168001,0.09973190000164323,0.303796299995156
RSVPLG03,sg,20251118-123528,1.0.2,20251105-084826,746,Experiment,Both,1,Automatic,main,87,20251118-125718,global,global,300,S,H,A,E,S-A.png,H-E.png,sS,hH,mask-4.png,mask-3.png,h,0,2.450710800003435,h,1,0.12126369999896269,0.046218399998906534,0.046583299998019356,0.10151670000050217,0.10077190000447445,0.3020673999999417
RSVPLG03,sg,20251118-123528,1.0.2,20251105-084826,746,Experiment,Both,1,Automatic,main,88,20251118-125724,global,global,300,S,H,A,E,S-A.png,H-E.png,sS,hH,mask-4.png,mask-3.png,s,1,0.541826000000583,h,1,0.009661299998697359,0.04614560000482015,0.045502399996621534,0.09935110000515124,0.09872319999703905,0.30159020000428427
RSVPLG03,sg,20251118-123528,1.0.2,20251105-084826,746,Experiment,Both,1,Automatic,main,89,20251118-125728,local,local,750,H,S,A,A,A-H.png,A-S.png,hH,sS,mask-4.png,mask-4.png,s,0,3.1515757000015583,s,1,0.6458819000035874,0.04656450000038603,0.04829550000431482,0.10102380000171252,0.10156529999949271,0.7553457999965758
RSVPLG03,sg,20251118-123528,1.0.2,20251105-084826,746,Experiment,Both,1,Automatic,main,90,20251118-125736,local,local,300,H,S,E,A,E-H.png,A-S.png,hH,sS,mask-3.png,mask-4.png,s,0,1.0896016000042437,h,0,0.05725660000462085,0.04649900000367779,0.045671499996387865,0.1004155000046012,0.09915019999607466,0.3030042000027606
RSVPLG03,sg,20251118-123528,1.0.2,20251105-084826,746,Experiment,Both,1,Automatic,main,91,20251118-125741,global,local,300,S,S,A,E,S-A.png,E-S.png,sS,sS,mask-3.png,mask-1.png,h,0,1.3477721999952337,s,1,0.0938624999980675,0.04803820000233827,0.0454914000001736,0.10124180000275373,0.09910909999598516,0.30495450000307756
RSVPLG03,sg,20251118-123528,1.0.2,20251105-084826,746,Experiment,Both,1,Automatic,main,92,20251118-125746,local,global,300,H,S,E,E,E-H.png,S-E.png,hH,sS,mask-1.png,mask-2.png,h,1,0.9456990000035148,s,1,0.27133759999560425,0.046665900001244154,0.04637899999943329,0.10124200000427663,0.09953710000263527,0.30353119999927003
RSVPLG03,sg,20251118-123528,1.0.2,20251105-084826,746,Experiment,Both,1,Automatic,main,93,20251118-125751,global,local,300,S,H,E,A,S-E.png,A-H.png,sS,hH,mask-2.png,mask-3.png,s,1,2.3867776000042795,h,1,0.44756430000416003,0.04628260000026785,0.04693140000017593,0.10076459999982035,0.10010180000244873,0.30178399999567773
RSVPLG03,sg,20251118-123528,1.0.2,20251105-084826,746,Experiment,Both,1,Automatic,main,94,20251118-125758,global,global,300,H,S,E,E,H-E.png,S-E.png,hH,sS,mask-4.png,mask-4.png,h,1,0.8339932000017143,h,0,0.8714765999975498,0.04639319999841973,0.04903270000068005,0.1002258999942569,0.10308210000221152,0.3005903999946895
RSVPLG03,sg,20251118-123528,1.0.2,20251105-084826,746,Experiment,Both,1,Automatic,main,95,20251118-125803,local,global,750,H,S,A,E,A-H.png,S-E.png,hH,sS,mask-2.png,mask-4.png,h,1,1.3029329999990296,s,1,0.25069790000270586,0.04730549999658251,0.0475737000015215,0.1004352999952971,0.10190929999953369,0.7554244999992079
RSVPLG03,sg,20251118-123528,1.0.2,20251105-084826,746,Experiment,Both,1,Automatic,main,96,20251118-125809,global,global,750,S,S,E,A,S-E.png,S-A.png,sS,sS,mask-1.png,mask-1.png,s,1,0.41229549999843584,h,0,0.10269339999649674,0.04679119999491377,0.04665579999709735,0.10104199999477714,0.10049219999928027,0.7563157999975374
RSVPLG03,sg,20251118-123528,1.0.2,20251105-084826,746,Experiment,Both,1,Automatic,main,97,20251118-125813,local,global,750,S,H,A,A,A-S.png,H-A.png,sS,hH,mask-4.png,mask-4.png,s,1,1.0182096000062302,h,1,0.13241430000198307,0.04723570000351174,0.04960679999931017,0.10064350000175182,0.10104080000019167,0.7548441000035382
RSVPLG03,sg,20251118-123528,1.0.2,20251105-084826,746,Experiment,Both,1,Automatic,main,98,20251118-125819,global,global,750,H,H,E,A,H-E.png,H-A.png,hH,hH,mask-3.png,mask-3.png,h,1,1.2108956999945804,s,0,0.760227600003418,0.0483507999961148,0.04701260000001639,0.10162139999738429,0.09983389999979408,0.7562181999965105
RSVPLG03,sg,20251118-123528,1.0.2,20251105-084826,746,Experiment,Both,1,Automatic,main,99,20251118-125825,global,global,750,S,H,A,A,S-A.png,H-A.png,sS,hH,mask-3.png,mask-4.png,s,1,0.5584665999995195,h,1,0.1556778000012855,0.046423500003584195,0.04830039999797009,0.10057400000368943,0.10081129999889527,0.7535864000019501
RSVPLG03,sg,20251118-123528,1.0.2,20251105-084826,746,Experiment,Both,1,Automatic,main,100,20251118-125830,local,global,300,H,H,A,E,A-H.png,H-E.png,hH,hH,mask-2.png,mask-3.png,h,1,1.1745136000026832,h,1,0.0954046000042581,0.047343199999886565,0.04738720000023022,0.09988819999853149,0.10098540000035428,0.30120549999992363
