exp,exp_initials,runtime,ver,modtime,sub,blocktype,targets,cuetype,mode,trialtype,trial,trialtime,t1_level,t2_level,t2_lag,t1,t2,distractor1,distractor2,stimfile1,stimfile2,t1_corr,t2_corr,maskfile1,maskfile2,t1_resp,t1_acc,t1_rt,t2_resp,t2_acc,t2_rt,t1_dur,t2_dur,t1mask_soa,t2mask_soa,t1t2_soa
RSVPLG03,si,20260423-161406,1.0.2,20260219-152011,828,Introduction,T1,1,Automatic,main,1,20260423-161438,global,global,750,H,S,A,A,H-A.png,S-A.png,hH,sS,mask-2.png,mask-4.png,s,0,23.04134550015442,none,-5,0,0.10033180005848408,0.09880880010314286,0.20072770002298057,0.20006740000098944,0.7501866999082267
RSVPLG03,si,20260423-161406,1.0.2,20260219-152011,828,Introduction,T1,1,Automatic,main,2,20260423-161506,local,global,750,S,H,E,A,E-S.png,H-A.png,sS,hH,mask-4.png,mask-2.png,s,1,2.7802003999240696,none,-5,0,0.09806560003198683,0.10127340001054108,0.19973469991236925,0.20046560000628233,0.7494711999315768
RSVPLG03,si,20260423-161406,1.0.2,20260219-152011,828,Introduction,T1,1,Automatic,main,3,20260423-161512,local,local,750,S,S,E,E,E-S.png,E-S.png,sS,sS,mask-2.png,mask-4.png,s,1,2.565031499834731,none,-5,0,0.09827600000426173,0.1013982999138534,0.1988814000505954,0.20198790007270873,0.7485740000847727
RSVPLG03,si,20260423-161406,1.0.2,20260219-152011,828,Introduction,T1,1,Automatic,main,4,20260423-161519,local,global,750,H,H,A,A,A-H.png,H-A.png,hH,hH,mask-4.png,mask-1.png,h,1,1.7128328999970108,none,-5,0,0.10123250004835427,0.09968010010197759,0.20175220002420247,0.19947550003416836,0.7521855998784304
RSVPLG03,si,20260423-161406,1.0.2,20260219-152011,828,Introduction,T1,1,Automatic,main,5,20260423-161525,global,local,750,S,H,E,A,S-E.png,A-H.png,sS,hH,mask-4.png,mask-1.png,s,1,1.17523830011487,none,-5,0,0.09918119991198182,0.09829610004089773,0.20025869994424284,0.19961329991929233,0.7516761999577284
RSVPLG03,si,20260423-161406,1.0.2,20260219-152011,828,Introduction,T1,1,Automatic,main,6,20260423-161530,global,global,750,H,S,A,A,H-A.png,S-A.png,hH,sS,mask-2.png,mask-1.png,h,1,0.9831195001024753,none,-5,0,0.10004920000210404,0.1002477000001818,0.20122830010950565,0.19847089983522892,0.7527827001176775
RSVPLG03,si,20260423-161406,1.0.2,20260219-152011,828,Introduction,T1,1,Automatic,main,7,20260423-161535,local,global,750,H,H,A,E,A-H.png,H-E.png,hH,hH,mask-1.png,mask-2.png,h,1,1.0536869999486953,none,-5,0,0.09860850009135902,0.09997680014930665,0.2005561999976635,0.198605100158602,0.7511885999701917
RSVPLG03,si,20260423-161406,1.0.2,20260219-152011,828,Introduction,T1,1,Automatic,main,8,20260423-161540,local,local,750,S,H,A,E,A-S.png,E-H.png,sS,hH,mask-3.png,mask-3.png,h,0,2.236660399939865,none,-5,0,0.10176740004681051,0.09909230004996061,0.2002604000736028,0.20073579996824265,0.751424599904567
RSVPLG03,si,20260423-161406,1.0.2,20260219-152011,828,Introduction,T1,1,Automatic,main,9,20260423-161547,local,global,750,H,S,A,E,A-H.png,S-E.png,hH,sS,mask-4.png,mask-3.png,h,1,0.29389799991622567,none,-5,0,0.10153670003637671,0.10142610012553632,0.20125230005942285,0.2016967001836747,0.750395999988541
RSVPLG03,si,20260423-161406,1.0.2,20260219-152011,828,Introduction,T1,1,Automatic,main,10,20260423-161551,global,local,750,S,S,E,E,S-E.png,E-S.png,sS,sS,mask-4.png,mask-1.png,s,1,0.6502183999400586,none,-5,0,0.0999442997854203,0.10015279985964298,0.1998892999254167,0.2017065999098122,0.7505026999861002
RSVPLG03,si,20260423-161406,1.0.2,20260219-152011,828,Introduction,T1,1,Automatic,main,11,20260423-161556,global,global,750,S,S,E,A,S-E.png,S-A.png,sS,sS,mask-3.png,mask-1.png,s,1,0.6090911000501364,none,-5,0,0.09997979993931949,0.09986640000715852,0.2000782999675721,0.19997710012830794,0.7507676999084651
RSVPLG03,si,20260423-161406,1.0.2,20260219-152011,828,Introduction,T1,1,Automatic,main,12,20260423-161601,global,local,750,S,S,A,A,S-A.png,A-S.png,sS,sS,mask-4.png,mask-2.png,s,1,0.2492588001769036,none,-5,0,0.10120679996907711,0.1010644999332726,0.19974609999917448,0.20046629989519715,0.7504340000450611
RSVPLG03,si,20260423-161406,1.0.2,20260219-152011,828,Introduction,T1,1,Automatic,main,13,20260423-161605,global,global,750,S,H,A,A,S-A.png,H-A.png,sS,hH,mask-1.png,mask-2.png,s,1,0.09676530002616346,none,-5,0,0.10128879989497364,0.09812880004756153,0.20132289989851415,0.19902310008183122,0.7531144998501986
RSVPLG03,si,20260423-161406,1.0.2,20260219-152011,828,Introduction,T1,1,Automatic,main,14,20260423-161609,local,local,750,S,H,A,A,A-S.png,A-H.png,sS,hH,mask-3.png,mask-1.png,h,0,0.2561110001988709,none,-5,0,0.09977689990773797,0.10016510006971657,0.20101159997284412,0.20260780001990497,0.7514857999049127
RSVPLG03,si,20260423-161406,1.0.2,20260219-152011,828,Introduction,T1,1,Automatic,main,15,20260423-161614,global,local,750,H,H,A,A,H-A.png,A-H.png,hH,hH,mask-1.png,mask-1.png,h,1,0.24221830000169575,none,-5,0,0.09840040002018213,0.10009449999779463,0.199609300121665,0.20008049998432398,0.7505449000746012
RSVPLG03,si,20260423-161406,1.0.2,20260219-152011,828,Introduction,T1,1,Automatic,main,16,20260423-161618,local,local,750,H,H,A,E,A-H.png,E-H.png,hH,hH,mask-1.png,mask-2.png,h,1,0.26577550009824336,none,-5,0,0.09854530007578433,0.10083450004458427,0.19936090009287,0.2018683000933379,0.7485571999568492
RSVPLG03,si,20260423-161639,1.0.2,20260219-152011,828,Practice,T1,1,Automatic,main,1,20260423-161658,global,local,750,H,S,A,A,H-A.png,A-S.png,hH,sS,mask-3.png,mask-4.png,h,1,1.2709759999997914,none,-5,0,0.04797050007618964,0.05073320004157722,0.09961360017769039,0.10123679996468127,0.7469049000646919
RSVPLG03,si,20260423-161639,1.0.2,20260219-152011,828,Practice,T1,1,Automatic,main,2,20260423-161703,global,local,750,S,H,A,A,S-A.png,A-H.png,sS,hH,mask-3.png,mask-3.png,s,1,0.9693666000384837,none,-5,0,0.053242400055751204,0.050812500063329935,0.10103829996660352,0.09958679997362196,0.7490531001240015
RSVPLG03,si,20260423-161639,1.0.2,20260219-152011,828,Practice,T1,1,Automatic,main,3,20260423-161708,local,global,750,S,H,A,E,A-S.png,H-E.png,sS,hH,mask-1.png,mask-4.png,h,0,0.0924807998817414,none,-5,0,0.04966729995794594,0.05133039993233979,0.10096749989315867,0.09969439986161888,0.747658499982208
RSVPLG03,si,20260423-161639,1.0.2,20260219-152011,828,Practice,T1,1,Automatic,main,4,20260423-161712,local,local,750,H,S,A,A,A-H.png,A-S.png,hH,sS,mask-4.png,mask-4.png,h,1,0.5821138999890536,none,-5,0,0.05099239991977811,0.04946820018813014,0.10055029997602105,0.09894440020434558,0.7499521998688579
RSVPLG03,si,20260423-161639,1.0.2,20260219-152011,828,Practice,T1,1,Automatic,main,5,20260423-161717,local,local,300,H,H,A,A,A-H.png,A-H.png,hH,hH,mask-4.png,mask-4.png,h,1,0.43750560004264116,none,-5,0,0.050932300044223666,0.0489262999035418,0.10194190009497106,0.09864709991961718,0.3006937000900507
RSVPLG03,si,20260423-161639,1.0.2,20260219-152011,828,Practice,T1,1,Automatic,main,6,20260423-161721,local,global,750,H,H,A,E,A-H.png,H-E.png,hH,hH,mask-4.png,mask-4.png,h,1,0.270926000084728,none,-5,0,0.05052160006016493,0.049038299825042486,0.09738910011947155,0.1000452998559922,0.7482808001805097
RSVPLG03,si,20260423-161639,1.0.2,20260219-152011,828,Practice,T1,1,Automatic,main,7,20260423-161725,global,global,300,S,S,E,E,S-E.png,S-E.png,sS,sS,mask-4.png,mask-1.png,s,1,0.22451059985905886,none,-5,0,0.05076630017720163,0.05007540015503764,0.09895750018768013,0.1006438999902457,0.29830190003849566
RSVPLG03,si,20260423-161639,1.0.2,20260219-152011,828,Practice,T1,1,Automatic,main,8,20260423-161729,local,global,300,H,H,E,A,E-H.png,H-A.png,hH,hH,mask-1.png,mask-2.png,h,1,0.288262200076133,none,-5,0,0.049107200000435114,0.048103599809110165,0.10009369999170303,0.09865149995312095,0.29923730017617345
RSVPLG03,si,20260423-161639,1.0.2,20260219-152011,828,Practice,T1,1,Automatic,main,9,20260423-161732,global,global,300,S,S,E,E,S-E.png,S-E.png,sS,sS,mask-2.png,mask-2.png,s,1,0.36087019997648895,none,-5,0,0.049030200112611055,0.050014000153169036,0.09904900006949902,0.0988932999316603,0.2989858000073582
RSVPLG03,si,20260423-161639,1.0.2,20260219-152011,828,Practice,T1,1,Automatic,main,10,20260423-161736,local,local,300,S,H,A,E,A-S.png,E-H.png,sS,hH,mask-4.png,mask-4.png,h,0,1.4704019001219422,none,-5,0,0.049888999899849296,0.04989579995162785,0.09977289987728,0.09998999978415668,0.2979530000593513
RSVPLG03,si,20260423-161639,1.0.2,20260219-152011,828,Practice,T1,1,Automatic,main,11,20260423-161741,global,local,300,H,H,E,E,H-E.png,E-H.png,hH,hH,mask-3.png,mask-2.png,h,1,0.18798890011385083,none,-5,0,0.05198009987361729,0.050898600136861205,0.10034139989875257,0.10088720009662211,0.29925089981406927
RSVPLG03,si,20260423-161639,1.0.2,20260219-152011,828,Practice,T1,1,Automatic,main,12,20260423-161745,local,global,300,H,S,A,E,A-H.png,S-E.png,hH,sS,mask-2.png,mask-3.png,h,1,0.2677915000822395,none,-5,0,0.05097940005362034,0.0505774999037385,0.1005436999257654,0.10052899993024766,0.2989829001016915
RSVPLG03,si,20260423-161639,1.0.2,20260219-152011,828,Practice,T1,1,Automatic,main,13,20260423-161749,global,global,750,S,S,E,E,S-E.png,S-E.png,sS,sS,mask-2.png,mask-2.png,s,1,0.4972708001732826,none,-5,0,0.05110250017605722,0.05020189983770251,0.10001790011301637,0.09890649979934096,0.7495845002122223
RSVPLG03,si,20260423-161639,1.0.2,20260219-152011,828,Practice,T1,1,Automatic,main,14,20260423-161753,global,global,750,S,H,A,E,S-A.png,H-E.png,sS,hH,mask-3.png,mask-1.png,s,1,0.41869219997897744,none,-5,0,0.05027830018661916,0.05026390007697046,0.10119840013794601,0.10100040002726018,0.7488667999859899
RSVPLG03,si,20260423-161639,1.0.2,20260219-152011,828,Practice,T1,1,Automatic,main,15,20260423-161758,local,local,750,H,H,E,A,E-H.png,A-H.png,hH,hH,mask-2.png,mask-1.png,h,1,0.6983433000277728,none,-5,0,0.05066900001838803,0.050183899933472276,0.10154750011861324,0.1005192999728024,0.7489269999787211
RSVPLG03,si,20260423-161639,1.0.2,20260219-152011,828,Practice,T1,1,Automatic,main,16,20260423-161802,global,local,300,H,S,A,A,H-A.png,A-S.png,hH,sS,mask-4.png,mask-1.png,h,1,0.9898709000553936,none,-5,0,0.050508900079876184,0.05002269987016916,0.09990530018694699,0.10061119985766709,0.29973660013638437
RSVPLG03,si,20260423-161830,1.0.2,20260219-152011,828,Introduction,Both,1,Automatic,main,1,20260423-161848,local,global,750,H,H,E,A,E-H.png,H-A.png,hH,hH,mask-1.png,mask-1.png,h,1,2.1426322001498193,s,0,1.2140275998972356,0.0941380001604557,0.09987569996155798,0.19518450018949807,0.20372490002773702,0.7439842000603676
RSVPLG03,si,20260423-161830,1.0.2,20260219-152011,828,Introduction,Both,1,Automatic,main,2,20260423-161855,local,global,750,S,H,E,E,E-S.png,H-E.png,sS,hH,mask-2.png,mask-3.png,s,1,1.0129575999453664,h,1,0.5844195999670774,0.09889449994079769,0.0986855998635292,0.19823099998757243,0.19863699981942773,0.7492356000002474
RSVPLG03,si,20260423-161830,1.0.2,20260219-152011,828,Introduction,Both,1,Automatic,main,3,20260423-161901,local,local,750,S,H,A,A,A-S.png,A-H.png,sS,hH,mask-2.png,mask-3.png,h,0,0.7641251001041383,h,1,0.407209400087595,0.10058349999599159,0.09988599992357194,0.20179260009899735,0.20098940003663301,0.7507752000819892
RSVPLG03,si,20260423-161830,1.0.2,20260219-152011,828,Introduction,Both,1,Automatic,main,4,20260423-161906,global,local,750,S,H,A,E,S-A.png,E-H.png,sS,hH,mask-1.png,mask-1.png,s,1,0.9165246000047773,s,0,0.854974800022319,0.10040080011822283,0.10094640008173883,0.20171710010617971,0.20099869999103248,0.7509359000250697
RSVPLG03,si,20260423-161830,1.0.2,20260219-152011,828,Introduction,Both,1,Automatic,main,5,20260423-161912,local,global,750,S,S,A,A,A-S.png,S-A.png,sS,sS,mask-3.png,mask-4.png,h,0,0.3961583999916911,s,1,0.18310640007257462,0.09835089999251068,0.09972740011289716,0.19982609990984201,0.19822350004687905,0.7499084998853505
RSVPLG03,si,20260423-161830,1.0.2,20260219-152011,828,Introduction,Both,1,Automatic,main,6,20260423-161917,global,global,750,H,S,E,E,H-E.png,S-E.png,hH,sS,mask-1.png,mask-4.png,h,1,0.542319200001657,s,1,0.24997020000591874,0.10077579994685948,0.09859349997714162,0.20155110000632703,0.20200349995866418,0.7505159999709576
RSVPLG03,si,20260423-161830,1.0.2,20260219-152011,828,Introduction,Both,1,Automatic,main,7,20260423-161922,local,local,750,H,H,E,A,E-H.png,A-H.png,hH,hH,mask-2.png,mask-2.png,h,1,1.3221160001121461,h,1,0.15756749990396202,0.1008770999033004,0.09957289998419583,0.20082519995048642,0.19994580000638962,0.7501205999869853
RSVPLG03,si,20260423-161830,1.0.2,20260219-152011,828,Introduction,Both,1,Automatic,main,8,20260423-161928,global,global,750,H,S,E,E,H-E.png,S-E.png,hH,sS,mask-2.png,mask-4.png,h,1,0.42652409989386797,s,1,0.1007918999530375,0.09979539993219078,0.09905909979715943,0.20031119999475777,0.2002854999154806,0.7501282000448555
RSVPLG03,si,20260423-161830,1.0.2,20260219-152011,828,Introduction,Both,1,Automatic,main,9,20260423-161933,local,local,750,S,S,A,A,A-S.png,A-S.png,sS,sS,mask-4.png,mask-2.png,h,0,1.7071183999069035,h,0,0.09653009986504912,0.09945740015245974,0.10038910014554858,0.20008420012891293,0.20003179996274412,0.7487619000021368
RSVPLG03,si,20260423-161830,1.0.2,20260219-152011,828,Introduction,Both,1,Automatic,main,10,20260423-161939,global,global,750,S,H,A,E,S-A.png,H-E.png,sS,hH,mask-2.png,mask-1.png,s,1,0.3005754000041634,h,1,0.11387309990823269,0.09901740006171167,0.09910099999979138,0.19831859995611012,0.19929339992813766,0.7485243000555784
RSVPLG03,si,20260423-161830,1.0.2,20260219-152011,828,Introduction,Both,1,Automatic,main,11,20260423-161943,global,local,750,H,H,E,E,H-E.png,E-H.png,hH,hH,mask-3.png,mask-1.png,h,1,0.3750442999880761,h,1,0.10869939997792244,0.1008424002211541,0.09942650003358722,0.19983850000426173,0.19909010012634099,0.7505014000926167
RSVPLG03,si,20260423-161830,1.0.2,20260219-152011,828,Introduction,Both,1,Automatic,main,12,20260423-161948,global,local,750,S,H,E,A,S-E.png,A-H.png,sS,hH,mask-2.png,mask-3.png,s,1,0.5393791000824422,h,1,0.09629009990021586,0.10015569999814034,0.09888230008073151,0.2014295000117272,0.19764580018818378,0.752026499947533
RSVPLG03,si,20260423-161830,1.0.2,20260219-152011,828,Introduction,Both,1,Automatic,main,13,20260423-161953,global,local,750,S,S,A,A,S-A.png,A-S.png,sS,sS,mask-3.png,mask-1.png,s,1,0.5889004999771714,h,0,0.09085360006429255,0.0989938999991864,0.10002460004761815,0.20003199996426702,0.20063219987787306,0.7493112999945879
RSVPLG03,si,20260423-161830,1.0.2,20260219-152011,828,Introduction,Both,1,Automatic,main,14,20260423-161958,global,global,750,S,S,A,A,S-A.png,S-A.png,sS,sS,mask-1.png,mask-1.png,h,0,0.5057360001374036,s,1,0.054382000118494034,0.09916490013711154,0.0999972999561578,0.1997768001165241,0.19927229988388717,0.7508567001204938
RSVPLG03,si,20260423-161830,1.0.2,20260219-152011,828,Introduction,Both,1,Automatic,main,15,20260423-162003,local,local,750,H,H,E,E,E-H.png,E-H.png,hH,hH,mask-2.png,mask-2.png,h,1,0.3100834998767823,h,1,0.09372240002267063,0.09960930002853274,0.09982420015148818,0.1997670999262482,0.20098480000160635,0.7485312998760492
RSVPLG03,si,20260423-161830,1.0.2,20260219-152011,828,Introduction,Both,1,Automatic,main,16,20260423-162007,local,global,750,H,H,E,E,E-H.png,H-E.png,hH,hH,mask-4.png,mask-1.png,h,1,0.4075537999160588,h,1,0.09445829992182553,0.09925480000674725,0.09927659993991256,0.20085330004803836,0.1984439000952989,0.7505260000471026
RSVPLG03,si,20260423-162030,1.0.2,20260219-152011,828,Practice,Both,1,Automatic,main,1,20260423-162047,global,global,300,S,S,E,A,S-E.png,S-A.png,sS,sS,mask-2.png,mask-3.png,s,1,1.4310142998583615,h,0,0.03844919987022877,0.040229300037026405,0.050193400122225285,0.09026580001227558,0.0998253000434488,0.29087949986569583
RSVPLG03,si,20260423-162030,1.0.2,20260219-152011,828,Practice,Both,1,Automatic,main,2,20260423-162052,local,local,750,S,H,A,E,A-S.png,E-H.png,sS,hH,mask-4.png,mask-4.png,s,1,1.78092489996925,h,1,0.6309166999999434,0.049691599793732166,0.04890209995210171,0.10083319991827011,0.09970159991644323,0.7500958999153227
RSVPLG03,si,20260423-162030,1.0.2,20260219-152011,828,Practice,Both,1,Automatic,main,3,20260423-162059,local,global,750,H,S,A,E,A-H.png,S-E.png,hH,sS,mask-1.png,mask-2.png,h,1,0.686431200010702,s,1,0.07057380001060665,0.050354500068351626,0.05002460000105202,0.09941420005634427,0.10127960005775094,0.7492494999896735
RSVPLG03,si,20260423-162030,1.0.2,20260219-152011,828,Practice,Both,1,Automatic,main,4,20260423-162104,global,global,300,H,S,E,E,H-E.png,S-E.png,hH,sS,mask-2.png,mask-2.png,h,1,0.9855156999547035,s,1,0.024349199840798974,0.05001559993252158,0.05110520008020103,0.09953689994290471,0.10065559996291995,0.2984035999979824
RSVPLG03,si,20260423-162030,1.0.2,20260219-152011,828,Practice,Both,1,Automatic,main,5,20260423-162108,global,local,300,H,H,E,A,H-E.png,A-H.png,hH,hH,mask-2.png,mask-1.png,h,1,0.5103518001269549,h,1,0.11035249987617135,0.04949450003914535,0.05074609979055822,0.09976379992440343,0.1006668999325484,0.2988514001481235
RSVPLG03,si,20260423-162030,1.0.2,20260219-152011,828,Practice,Both,1,Automatic,main,6,20260423-162113,local,local,300,H,S,E,E,E-H.png,E-S.png,hH,sS,mask-2.png,mask-4.png,h,1,0.6367391999810934,s,1,0.041216100100427866,0.050044799922034144,0.048547300044447184,0.10019109980203211,0.0985538000240922,0.29914209991693497
RSVPLG03,si,20260423-162030,1.0.2,20260219-152011,828,Practice,Both,1,Automatic,main,7,20260423-162117,local,local,750,S,S,E,E,E-S.png,E-S.png,sS,sS,mask-3.png,mask-2.png,s,1,2.0815689000301063,h,0,0.02456060005351901,0.04988069995306432,0.05000970000401139,0.1002426000777632,0.10012160008773208,0.7491794999223202
RSVPLG03,si,20260423-162030,1.0.2,20260219-152011,828,Practice,Both,1,Automatic,main,8,20260423-162123,global,global,750,S,H,E,E,S-E.png,H-E.png,sS,hH,mask-4.png,mask-2.png,s,1,0.4929436999373138,h,1,0.04276739992201328,0.04931890009902418,0.050278599839657545,0.09907620004378259,0.0990400998853147,0.7496679001487792
RSVPLG03,si,20260423-162030,1.0.2,20260219-152011,828,Practice,Both,1,Automatic,main,9,20260423-162128,global,local,750,H,H,A,E,H-A.png,E-H.png,hH,hH,mask-4.png,mask-1.png,h,1,0.4199868000578135,h,1,0.110522500006482,0.04906049999408424,0.049032599898055196,0.10010990011505783,0.09977660002186894,0.7486134001519531
RSVPLG03,si,20260423-162030,1.0.2,20260219-152011,828,Practice,Both,1,Automatic,main,10,20260423-162132,local,global,300,H,H,E,E,E-H.png,H-E.png,hH,hH,mask-1.png,mask-2.png,h,1,1.557509500067681,s,0,0.07137630018405616,0.049191399943083525,0.04925619997084141,0.10050439997576177,0.10055199987255037,0.29938940005376935
RSVPLG03,si,20260423-162030,1.0.2,20260219-152011,828,Practice,Both,1,Automatic,main,11,20260423-162138,global,local,750,S,S,A,E,S-A.png,E-S.png,sS,sS,mask-2.png,mask-1.png,s,1,0.38344920007511973,s,1,0.09637599997222424,0.04983560019172728,0.050908599980175495,0.0995492001529783,0.09991590003482997,0.7495656001847237
RSVPLG03,si,20260423-162030,1.0.2,20260219-152011,828,Practice,Both,1,Automatic,main,12,20260423-162142,local,global,300,S,S,E,A,E-S.png,S-A.png,sS,sS,mask-3.png,mask-2.png,s,1,1.3164278999902308,h,0,0.07153660012409091,0.048434399999678135,0.04901259997859597,0.09957590000703931,0.09931239997968078,0.29866809980012476
RSVPLG03,si,20260423-162030,1.0.2,20260219-152011,828,Practice,Both,1,Automatic,main,13,20260423-162147,local,global,750,H,S,E,E,E-H.png,S-E.png,hH,sS,mask-2.png,mask-3.png,h,1,1.3283428999129683,h,0,0.11124669993296266,0.047690399922430515,0.04969009989872575,0.09795249998569489,0.09958750009536743,0.7484180999454111
RSVPLG03,si,20260423-162030,1.0.2,20260219-152011,828,Practice,Both,1,Automatic,main,14,20260423-162153,global,global,750,H,H,A,A,H-A.png,H-A.png,hH,hH,mask-1.png,mask-4.png,h,1,0.32728209998458624,h,1,0.08037189999595284,0.049413600005209446,0.04989780019968748,0.09987540007568896,0.10090370010584593,0.7491731999907643
RSVPLG03,si,20260423-162030,1.0.2,20260219-152011,828,Practice,Both,1,Automatic,main,15,20260423-162157,local,local,300,S,H,A,E,A-S.png,E-H.png,sS,hH,mask-1.png,mask-2.png,h,0,1.0004972000606358,s,0,0.09519129991531372,0.04870059993118048,0.048868099926039577,0.09817879996262491,0.0996155000757426,0.29856169992126524
RSVPLG03,si,20260423-162030,1.0.2,20260219-152011,828,Practice,Both,1,Automatic,main,16,20260423-162202,global,local,300,S,S,E,E,S-E.png,E-S.png,sS,sS,mask-2.png,mask-1.png,s,1,1.2336562999989837,s,1,0.15967819979414344,0.05046589998528361,0.04920099978335202,0.0989500000141561,0.098518299870193,0.3003156001213938
RSVPLG03,si,20260423-162250,1.0.2,20260219-152011,828,Experiment,Both,1,Automatic,warmup,1,20260423-162310,global,global,750,H,S,E,E,H-E.png,S-E.png,hH,sS,mask-2.png,mask-3.png,h,1,1.0118103998247534,s,1,0.022631300147622824,0.043951200088486075,0.04762020008638501,0.09406030015088618,0.09822970000095665,0.7471521000843495
RSVPLG03,si,20260423-162250,1.0.2,20260219-152011,828,Experiment,Both,1,Automatic,warmup,2,20260423-162315,local,local,300,S,S,E,A,E-S.png,A-S.png,sS,sS,mask-4.png,mask-1.png,s,1,0.5621978000272065,h,0,0.038671999936923385,0.05010470002889633,0.05128849996253848,0.10128599987365305,0.09982779994606972,0.30030580004677176
RSVPLG03,si,20260423-162250,1.0.2,20260219-152011,828,Experiment,Both,1,Automatic,warmup,3,20260423-162320,local,global,750,S,S,E,A,E-S.png,S-A.png,sS,sS,mask-1.png,mask-2.png,s,1,0.9621333000250161,h,0,0.02268920000642538,0.0497700001578778,0.05006749997846782,0.10064720013178885,0.10132939997129142,0.7509237001650035
RSVPLG03,si,20260423-162250,1.0.2,20260219-152011,828,Experiment,Both,1,Automatic,warmup,4,20260423-162325,global,global,300,S,H,E,E,S-E.png,H-E.png,sS,hH,mask-2.png,mask-3.png,s,1,0.6370653000194579,h,1,0.1354847999755293,0.04939549998380244,0.05169599992223084,0.09920120006427169,0.10151029983535409,0.2997307002078742
RSVPLG03,si,20260423-162250,1.0.2,20260219-152011,828,Experiment,Both,1,Automatic,main,5,20260423-162329,global,global,750,S,H,A,A,S-A.png,H-A.png,sS,hH,mask-1.png,mask-1.png,s,1,0.4064734000712633,h,1,0.06359499995596707,0.04940440016798675,0.04964480013586581,0.10028930008411407,0.10062990011647344,0.752581899985671
RSVPLG03,si,20260423-162250,1.0.2,20260219-152011,828,Experiment,Both,1,Automatic,main,6,20260423-162333,global,global,300,H,S,E,E,H-E.png,S-E.png,hH,sS,mask-3.png,mask-3.png,h,1,0.5235947999171913,h,0,0.07222319999709725,0.05091740004718304,0.049387000035494566,0.10244140005670488,0.09946199995465577,0.30223300005309284
RSVPLG03,si,20260423-162250,1.0.2,20260219-152011,828,Experiment,Both,1,Automatic,main,7,20260423-162338,global,global,300,S,S,A,E,S-A.png,S-E.png,sS,sS,mask-1.png,mask-2.png,s,1,0.4786302999127656,h,0,0.04362249979749322,0.04992809984833002,0.050174100091680884,0.0988884000107646,0.10157070006243885,0.29929049988277256
RSVPLG03,si,20260423-162250,1.0.2,20260219-152011,828,Experiment,Both,1,Automatic,main,8,20260423-162342,local,global,750,H,S,E,A,E-H.png,S-A.png,hH,sS,mask-2.png,mask-1.png,s,0,0.5511468998156488,s,1,0.07909609982743859,0.049191199941560626,0.050170799950137734,0.09887589979916811,0.0980277000926435,0.7526441998779774
RSVPLG03,si,20260423-162250,1.0.2,20260219-152011,828,Experiment,Both,1,Automatic,main,9,20260423-162347,local,global,750,H,H,A,A,A-H.png,H-A.png,hH,hH,mask-3.png,mask-3.png,h,1,0.5484914998523891,h,1,0.0701212000567466,0.050910199992358685,0.0512582000810653,0.10091109992936254,0.10074299992993474,0.7512399000115693
RSVPLG03,si,20260423-162250,1.0.2,20260219-152011,828,Experiment,Both,1,Automatic,main,10,20260423-162351,global,global,300,S,S,A,E,S-A.png,S-E.png,sS,sS,mask-2.png,mask-4.png,h,0,0.30148199992254376,s,1,0.0941268999595195,0.0505490000359714,0.04836699995212257,0.10023620002903044,0.09901760006323457,0.3014909999910742
RSVPLG03,si,20260423-162250,1.0.2,20260219-152011,828,Experiment,Both,1,Automatic,main,11,20260423-162355,local,global,300,H,H,E,A,E-H.png,H-A.png,hH,hH,mask-2.png,mask-2.png,h,1,0.6115973999258131,h,1,0.07231710013002157,0.05002049985341728,0.0506112000439316,0.09878929983824492,0.10099490010179579,0.2994126998819411
RSVPLG03,si,20260423-162250,1.0.2,20260219-152011,828,Experiment,Both,1,Automatic,main,12,20260423-162359,local,global,300,H,S,E,A,E-H.png,S-A.png,hH,sS,mask-2.png,mask-4.png,h,1,0.5760357999242842,s,1,0.023780300049111247,0.04966540005989373,0.04894750006496906,0.1005144000519067,0.09846919984556735,0.3023506000172347
RSVPLG03,si,20260423-162250,1.0.2,20260219-152011,828,Experiment,Both,1,Automatic,main,13,20260423-162404,local,local,750,H,H,A,A,A-H.png,A-H.png,hH,hH,mask-3.png,mask-2.png,h,1,0.38987900014035404,h,1,0.06584809999912977,0.04959510010667145,0.05007659993134439,0.10024169995449483,0.099558399990201,0.7523888000287116
RSVPLG03,si,20260423-162250,1.0.2,20260219-152011,828,Experiment,Both,1,Automatic,main,14,20260423-162408,global,global,750,S,S,A,E,S-A.png,S-E.png,sS,sS,mask-1.png,mask-4.png,s,1,0.5607712999917567,s,1,0.30839849985204637,0.04999959981068969,0.04890640010125935,0.1001226999796927,0.09931170009076595,0.752693799789995
RSVPLG03,si,20260423-162250,1.0.2,20260219-152011,828,Experiment,Both,1,Automatic,main,15,20260423-162413,global,global,300,H,S,E,E,H-E.png,S-E.png,hH,sS,mask-1.png,mask-2.png,h,1,0.312176400097087,h,0,0.09724799985997379,0.05047430004924536,0.049949799897149205,0.10087680001743138,0.10034270002506673,0.30151120014488697
RSVPLG03,si,20260423-162250,1.0.2,20260219-152011,828,Experiment,Both,1,Automatic,main,16,20260423-162417,local,local,300,H,S,A,A,A-H.png,A-S.png,hH,sS,mask-1.png,mask-4.png,h,1,0.3395968000404537,s,1,0.08020239998586476,0.04989759996533394,0.050282999873161316,0.09851599996909499,0.10097599984146655,0.29970470000989735
RSVPLG03,si,20260423-162250,1.0.2,20260219-152011,828,Experiment,Both,1,Automatic,main,17,20260423-162421,local,local,300,H,H,E,A,E-H.png,A-H.png,hH,hH,mask-3.png,mask-3.png,s,0,0.22483700001612306,h,1,0.025379600003361702,0.050938300089910626,0.04863019986078143,0.10101109999231994,0.09892959985882044,0.3021306002046913
RSVPLG03,si,20260423-162250,1.0.2,20260219-152011,828,Experiment,Both,1,Automatic,main,18,20260423-162425,local,local,750,H,S,A,E,A-H.png,E-S.png,hH,sS,mask-3.png,mask-3.png,h,1,0.19510140013881028,h,0,0.4798419000580907,0.04988180007785559,0.049830899806693196,0.10033560008741915,0.09988909983076155,0.7527147000655532
RSVPLG03,si,20260423-162250,1.0.2,20260219-152011,828,Experiment,Both,1,Automatic,main,19,20260423-162430,local,local,300,H,H,E,E,E-H.png,E-H.png,hH,hH,mask-4.png,mask-2.png,h,1,1.4503458000253886,s,0,0.04000579984858632,0.04788680002093315,0.05012620007619262,0.09808439994230866,0.10029440000653267,0.29895560001023114
RSVPLG03,si,20260423-162250,1.0.2,20260219-152011,828,Experiment,Both,1,Automatic,main,20,20260423-162435,global,global,750,H,S,E,A,H-E.png,S-A.png,hH,sS,mask-2.png,mask-2.png,h,1,0.6146249000448734,s,1,0.02346729999408126,0.04997729999013245,0.05014339997433126,0.099849299993366,0.10059859999455512,0.7526655001565814
RSVPLG03,si,20260423-162250,1.0.2,20260219-152011,828,Experiment,Both,1,Automatic,main,21,20260423-162440,global,local,300,H,H,E,A,H-E.png,A-H.png,hH,hH,mask-1.png,mask-3.png,h,1,0.6475681997835636,s,0,0.05653669987805188,0.050873300060629845,0.049988599959760904,0.10162559989839792,0.10026689991354942,0.3002945000771433
RSVPLG03,si,20260423-162250,1.0.2,20260219-152011,828,Experiment,Both,1,Automatic,main,22,20260423-162444,global,global,750,S,H,A,A,S-A.png,H-A.png,sS,hH,mask-2.png,mask-2.png,s,1,0.4750254999380559,h,1,0.05684520001523197,0.04997729999013245,0.04986120015382767,0.09957259986549616,0.09958050004206598,0.7533731998410076
RSVPLG03,si,20260423-162250,1.0.2,20260219-152011,828,Experiment,Both,1,Automatic,main,23,20260423-162448,local,local,300,S,S,E,A,E-S.png,A-S.png,sS,sS,mask-1.png,mask-4.png,s,1,0.47226840001530945,s,1,0.09466469986364245,0.05004470003768802,0.05163479992188513,0.09902670001611114,0.10032559977844357,0.3000070000998676
RSVPLG03,si,20260423-162250,1.0.2,20260219-152011,828,Experiment,Both,1,Automatic,main,24,20260423-162453,local,global,750,H,S,E,A,E-H.png,S-A.png,hH,sS,mask-1.png,mask-3.png,h,1,0.3390671999659389,s,1,0.0071835999842733145,0.05093930009752512,0.051881499821320176,0.1009215998928994,0.10154579998925328,0.7506532000843436
RSVPLG03,si,20260423-162250,1.0.2,20260219-152011,828,Experiment,Both,1,Automatic,main,25,20260423-162457,local,global,750,H,H,A,A,A-H.png,H-A.png,hH,hH,mask-2.png,mask-3.png,h,1,0.4027624998707324,h,1,0.07774850004352629,0.05122090014629066,0.05038930010050535,0.10054270015098155,0.10028779995627701,0.7528963000513613
RSVPLG03,si,20260423-162250,1.0.2,20260219-152011,828,Experiment,Both,1,Automatic,main,26,20260423-162503,global,global,300,S,S,A,A,S-A.png,S-A.png,sS,sS,mask-3.png,mask-1.png,s,1,0.39777830010280013,h,0,0.03212670003995299,0.05032360018230975,0.0501225998159498,0.10126760019920766,0.09992319997400045,0.30121620022691786
RSVPLG03,si,20260423-162250,1.0.2,20260219-152011,828,Experiment,Both,1,Automatic,main,27,20260423-162507,local,local,750,S,H,E,E,E-S.png,E-H.png,sS,hH,mask-4.png,mask-2.png,s,1,0.513568100053817,s,0,0.07931929989717901,0.050170900067314506,0.05035649985074997,0.09903470007702708,0.10086379991844296,0.7505576000548899
RSVPLG03,si,20260423-162250,1.0.2,20260219-152011,828,Experiment,Both,1,Automatic,main,28,20260423-162512,global,local,750,H,H,A,A,H-A.png,A-H.png,hH,hH,mask-2.png,mask-4.png,h,1,0.334385700058192,h,1,0.09430060000158846,0.050373699981719255,0.04867440019734204,0.10138090001419187,0.10107570001855493,0.7531665998976678
RSVPLG03,si,20260423-162250,1.0.2,20260219-152011,828,Experiment,Both,1,Automatic,main,29,20260423-162516,global,local,750,H,H,A,E,H-A.png,E-H.png,hH,hH,mask-1.png,mask-2.png,h,1,0.4379272998776287,s,0,0.025507599813863635,0.05115590011700988,0.05142210004851222,0.10080940020270646,0.10204660007730126,0.7512238000053912
RSVPLG03,si,20260423-162250,1.0.2,20260219-152011,828,Experiment,Both,1,Automatic,main,30,20260423-162521,global,local,750,S,S,A,E,S-A.png,E-S.png,sS,sS,mask-4.png,mask-3.png,s,1,0.2567278000060469,s,1,0.06979550002142787,0.05180770019069314,0.05002070008777082,0.10048370016738772,0.10141570004634559,0.753179999999702
RSVPLG03,si,20260423-162250,1.0.2,20260219-152011,828,Experiment,Both,1,Automatic,main,31,20260423-162525,local,local,300,S,S,A,A,A-S.png,A-S.png,sS,sS,mask-3.png,mask-1.png,s,1,0.35314089991152287,s,1,0.07068529981188476,0.0491797998547554,0.05093030002899468,0.09974840003997087,0.10076099983416498,0.29937130003236234
RSVPLG03,si,20260423-162250,1.0.2,20260219-152011,828,Experiment,Both,1,Automatic,main,32,20260423-162529,global,local,300,S,H,E,A,S-E.png,A-H.png,sS,hH,mask-3.png,mask-2.png,s,1,0.43134959996677935,h,1,0.04048990015871823,0.05197599995881319,0.04989899997599423,0.10202009999193251,0.10089790006168187,0.30191859998740256
RSVPLG03,si,20260423-162250,1.0.2,20260219-152011,828,Experiment,Both,1,Automatic,main,33,20260423-162534,global,local,300,S,H,A,A,S-A.png,A-H.png,sS,hH,mask-4.png,mask-4.png,s,1,0.32340340013615787,s,0,0.11317590018734336,0.050090499920770526,0.05119400005787611,0.1010207999497652,0.10046540014445782,0.30029619997367263
RSVPLG03,si,20260423-162250,1.0.2,20260219-152011,828,Experiment,Both,1,Automatic,main,34,20260423-162538,local,global,300,H,S,A,E,A-H.png,S-E.png,hH,sS,mask-4.png,mask-3.png,h,1,0.33197330008260906,s,1,0.02924990002065897,0.048857999965548515,0.04909319989383221,0.1007573998067528,0.10108850011602044,0.30008709989488125
RSVPLG03,si,20260423-162250,1.0.2,20260219-152011,828,Experiment,Both,1,Automatic,main,35,20260423-162542,local,local,750,S,H,E,E,E-S.png,E-H.png,sS,hH,mask-4.png,mask-4.png,s,1,0.49306410015560687,s,0,0.07015220005996525,0.05065200012177229,0.04961699992418289,0.10030390019528568,0.10173969995230436,0.7514383001253009
RSVPLG03,si,20260423-162250,1.0.2,20260219-152011,828,Experiment,Both,1,Automatic,main,36,20260423-162546,local,local,750,S,S,A,E,A-S.png,E-S.png,sS,sS,mask-1.png,mask-4.png,h,0,0.36993340007029474,h,0,0.08994319988414645,0.05011369986459613,0.04768039984628558,0.0997490999288857,0.09870689990930259,0.7527511999942362
RSVPLG03,si,20260423-162250,1.0.2,20260219-152011,828,Experiment,Both,1,Automatic,main,37,20260423-162551,global,local,750,H,H,E,E,H-E.png,E-H.png,hH,hH,mask-1.png,mask-4.png,h,1,0.3272484000772238,s,0,0.015492100035771728,0.04851729981601238,0.05020590010099113,0.09854949987493455,0.09925460000522435,0.7510380998719484
RSVPLG03,si,20260423-162250,1.0.2,20260219-152011,828,Experiment,Both,1,Automatic,main,38,20260423-162555,global,local,750,H,S,A,E,H-A.png,E-S.png,hH,sS,mask-1.png,mask-3.png,h,1,0.4304120000451803,s,1,0.01870240014977753,0.04974599997512996,0.04985489998944104,0.10042480006814003,0.0999112999998033,0.7534235999919474
RSVPLG03,si,20260423-162250,1.0.2,20260219-152011,828,Experiment,Both,1,Automatic,main,39,20260423-162600,global,global,750,S,H,A,A,S-A.png,H-A.png,sS,hH,mask-2.png,mask-2.png,s,1,0.3750624998938292,h,1,0.032321800012141466,0.04985870001837611,0.048194600036367774,0.09984820010140538,0.09888509986922145,0.7519936000462621
RSVPLG03,si,20260423-162250,1.0.2,20260219-152011,828,Experiment,Both,1,Automatic,main,40,20260423-162604,global,local,750,H,H,A,E,H-A.png,E-H.png,hH,hH,mask-4.png,mask-3.png,h,1,0.43870040006004274,s,0,0.19841539999470115,0.049871700117364526,0.04866670002229512,0.09918460017070174,0.09879689989611506,0.7534124001394957
RSVPLG03,si,20260423-162250,1.0.2,20260219-152011,828,Experiment,Both,1,Automatic,main,41,20260423-162609,global,global,750,S,H,A,E,S-A.png,H-E.png,sS,hH,mask-1.png,mask-4.png,s,1,0.28892439999617636,h,1,0.031865800032392144,0.04977969988249242,0.05148630007170141,0.09988819994032383,0.10100560006685555,0.7520037000067532
RSVPLG03,si,20260423-162250,1.0.2,20260219-152011,828,Experiment,Both,1,Automatic,main,42,20260423-162613,global,local,750,S,S,E,A,S-E.png,A-S.png,sS,sS,mask-3.png,mask-2.png,s,1,0.4170817998237908,s,1,0.07929109991528094,0.04974759998731315,0.050106999929994345,0.0998019000981003,0.10027749999426305,0.7498346001375467
RSVPLG03,si,20260423-162250,1.0.2,20260219-152011,828,Experiment,Both,1,Automatic,main,43,20260423-162618,local,local,750,S,H,A,E,A-S.png,E-H.png,sS,hH,mask-3.png,mask-2.png,h,0,0.7303569000214338,h,1,0.07986970013007522,0.05158199998550117,0.048939500004053116,0.10026320000179112,0.10052939993329346,0.7529734000563622
RSVPLG03,si,20260423-162250,1.0.2,20260219-152011,828,Experiment,Both,1,Automatic,main,44,20260423-162623,local,global,300,S,H,E,A,E-S.png,H-A.png,sS,hH,mask-4.png,mask-1.png,s,1,0.3983275000937283,h,1,0.004392400151118636,0.04987500002607703,0.04932109988294542,0.10078259999863803,0.09816189995035529,0.3006679001264274
RSVPLG03,si,20260423-162250,1.0.2,20260219-152011,828,Experiment,Both,1,Automatic,main,45,20260423-162627,global,global,750,S,H,E,A,S-E.png,H-A.png,sS,hH,mask-4.png,mask-1.png,s,1,0.3205978001933545,h,1,1.00000761449337e-05,0.048915000166743994,0.048972100019454956,0.099433199968189,0.09894559998065233,0.7531022999901325
RSVPLG03,si,20260423-162250,1.0.2,20260219-152011,828,Experiment,Both,1,Automatic,main,46,20260423-162631,global,local,750,H,H,A,A,H-A.png,A-H.png,hH,hH,mask-1.png,mask-2.png,h,1,0.5822375998832285,h,1,0.11171599989756942,0.04948039981536567,0.051839099964126945,0.09982559992931783,0.10052120010368526,0.7507948998827487
RSVPLG03,si,20260423-162250,1.0.2,20260219-152011,828,Experiment,Both,1,Automatic,main,47,20260423-162636,local,local,750,H,H,A,E,A-H.png,E-H.png,hH,hH,mask-4.png,mask-2.png,h,1,0.39953329996205866,h,1,0.09454270009882748,0.0516981000546366,0.050883400021120906,0.09977560001425445,0.10102310008369386,0.7532299999147654
RSVPLG03,si,20260423-162250,1.0.2,20260219-152011,828,Experiment,Both,1,Automatic,main,48,20260423-162641,global,local,300,S,H,E,A,S-E.png,A-H.png,sS,hH,mask-1.png,mask-3.png,s,1,0.33277949993498623,h,1,0.04321529995650053,0.05096910009160638,0.048573900014162064,0.10102060018107295,0.09937539999373257,0.3023793001193553
RSVPLG03,si,20260423-162250,1.0.2,20260219-152011,828,Experiment,Both,1,Automatic,main,49,20260423-162645,global,global,300,S,H,A,A,S-A.png,H-A.png,sS,hH,mask-3.png,mask-2.png,s,1,0.31178190000355244,h,1,0.02670889999717474,0.04985750000923872,0.049844699911773205,0.09977460000663996,0.09859519987367094,0.3008596000727266
RSVPLG03,si,20260423-162250,1.0.2,20260219-152011,828,Experiment,Both,1,Automatic,main,50,20260423-162649,local,local,300,H,H,E,A,E-H.png,A-H.png,hH,hH,mask-3.png,mask-1.png,s,0,0.48206670000217855,h,1,0.02121639996767044,0.049975299974903464,0.05191349983215332,0.09906510007567704,0.10119910002686083,0.2992986000608653
RSVPLG03,si,20260423-162250,1.0.2,20260219-152011,828,Experiment,Both,1,Automatic,main,51,20260423-162653,local,local,300,S,H,E,E,E-S.png,E-H.png,sS,hH,mask-2.png,mask-2.png,s,1,0.3404965999070555,s,0,0.09754129988141358,0.04907309985719621,0.05171540006995201,0.09920209995470941,0.10044599999673665,0.3001792998984456
RSVPLG03,si,20260423-162250,1.0.2,20260219-152011,828,Experiment,Both,1,Automatic,main,52,20260423-162657,global,local,300,H,S,E,E,H-E.png,E-S.png,hH,sS,mask-2.png,mask-2.png,h,1,0.3655350999906659,s,1,0.02349849999882281,0.04938209988176823,0.049922100035473704,0.10064870002679527,0.09981309995055199,0.3010674000252038
RSVPLG03,si,20260423-162250,1.0.2,20260219-152011,828,Experiment,Both,1,Automatic,main,53,20260423-162701,global,local,300,H,H,E,E,H-E.png,E-H.png,hH,hH,mask-1.png,mask-1.png,h,1,0.4038635999895632,s,0,0.006435399875044823,0.0491909000556916,0.05014390009455383,0.09948420012369752,0.10046210000291467,0.3012647000141442
RSVPLG03,si,20260423-162250,1.0.2,20260219-152011,828,Experiment,Both,1,Automatic,main,54,20260423-162705,global,local,750,H,S,E,A,H-E.png,A-S.png,hH,sS,mask-3.png,mask-4.png,h,1,0.4745212998241186,h,0,0.09359990013763309,0.05176490009762347,0.05007079988718033,0.1008880001027137,0.10109709994867444,0.7514477001968771
RSVPLG03,si,20260423-162250,1.0.2,20260219-152011,828,Experiment,Both,1,Automatic,main,55,20260423-162710,global,global,300,S,H,E,A,S-E.png,H-A.png,sS,hH,mask-1.png,mask-4.png,s,1,0.3195172999985516,h,1,0.03918229998089373,0.05105859995819628,0.04782449989579618,0.10026869992725551,0.09804239985533059,0.30266809999011457
RSVPLG03,si,20260423-162250,1.0.2,20260219-152011,828,Experiment,Both,1,Automatic,main,56,20260423-162714,global,global,750,S,S,A,E,S-A.png,S-E.png,sS,sS,mask-4.png,mask-4.png,s,1,0.47099890001118183,s,1,0.06202119984664023,0.04998330003581941,0.04977350006811321,0.10172579996287823,0.09958790009841323,0.7527409999165684
RSVPLG03,si,20260423-162250,1.0.2,20260219-152011,828,Experiment,Both,1,Automatic,main,57,20260423-162718,local,local,750,H,H,E,E,E-H.png,E-H.png,hH,hH,mask-2.png,mask-4.png,s,0,0.4891871998552233,h,1,0.03566450020298362,0.04925170005299151,0.050904500065371394,0.09974450012668967,0.09883740008808672,0.752882800064981
RSVPLG03,si,20260423-162250,1.0.2,20260219-152011,828,Experiment,Both,1,Automatic,main,58,20260423-162723,global,local,750,H,H,E,E,H-E.png,E-H.png,hH,hH,mask-1.png,mask-3.png,h,1,0.40385739994235337,s,0,0.04041239991784096,0.04960749996826053,0.04980090004391968,0.09935640008188784,0.10031670005992055,0.7511714999563992
RSVPLG03,si,20260423-162250,1.0.2,20260219-152011,828,Experiment,Both,1,Automatic,main,59,20260423-162727,global,local,750,H,H,A,A,H-A.png,A-H.png,hH,hH,mask-4.png,mask-3.png,h,1,0.4648964998777956,s,0,0.02237979997880757,0.050139099825173616,0.048736799973994493,0.10003790003247559,0.09977250010706484,0.7528718998655677
RSVPLG03,si,20260423-162250,1.0.2,20260219-152011,828,Experiment,Both,1,Automatic,main,60,20260423-162732,global,global,300,S,H,A,A,S-A.png,H-A.png,sS,hH,mask-2.png,mask-3.png,s,1,0.4206789000891149,h,1,0.022821699967607856,0.04945119982585311,0.05051840003579855,0.10010509984567761,0.10053559998050332,0.30012629996053874
RSVPLG03,si,20260423-162250,1.0.2,20260219-152011,828,Experiment,Both,1,Automatic,main,61,20260423-162736,global,local,300,S,S,A,A,S-A.png,A-S.png,sS,sS,mask-3.png,mask-2.png,s,1,0.449566800147295,s,1,0.0929167999420315,0.05090449983254075,0.04913490009494126,0.10090239997953176,0.09940790012478828,0.30131899984553456
RSVPLG03,si,20260423-162250,1.0.2,20260219-152011,828,Experiment,Both,1,Automatic,main,62,20260423-162740,local,global,300,S,S,A,E,A-S.png,S-E.png,sS,sS,mask-3.png,mask-4.png,s,1,0.39185060001909733,h,0,0.017401500139385462,0.047607299871742725,0.048207800136879086,0.09780539991334081,0.09969100006856024,0.3009008998051286
RSVPLG03,si,20260423-162250,1.0.2,20260219-152011,828,Experiment,Both,1,Automatic,main,63,20260423-162744,local,global,750,H,S,A,E,A-H.png,S-E.png,hH,sS,mask-3.png,mask-1.png,h,1,1.651253700023517,s,1,0.03902049991302192,0.04876169981434941,0.0513241000007838,0.09885139996185899,0.1002466999925673,0.7521075999829918
RSVPLG03,si,20260423-162250,1.0.2,20260219-152011,828,Experiment,Both,1,Automatic,main,64,20260423-162750,global,local,300,S,S,A,A,S-A.png,A-S.png,sS,sS,mask-3.png,mask-1.png,s,1,0.3741649999283254,h,0,0.039144199807196856,0.05062380013987422,0.05014429986476898,0.09969389997422695,0.10095350001938641,0.299856600118801
RSVPLG03,si,20260423-162250,1.0.2,20260219-152011,828,Experiment,Both,1,Automatic,main,65,20260423-162754,global,global,300,H,H,A,A,H-A.png,H-A.png,hH,hH,mask-4.png,mask-1.png,h,1,0.3990702999290079,h,1,0.10061870003119111,0.04973000008612871,0.05113319982774556,0.0999322000425309,0.10073389997705817,0.2992649001535028
RSVPLG03,si,20260423-162250,1.0.2,20260219-152011,828,Experiment,Both,1,Automatic,main,66,20260423-162758,global,global,750,S,H,E,E,S-E.png,H-E.png,sS,hH,mask-4.png,mask-2.png,s,1,0.35746100009419024,h,1,0.03305420000106096,0.05198260000906885,0.04833999997936189,0.10128700011409819,0.0994764999486506,0.7530541999731213
RSVPLG03,si,20260423-162250,1.0.2,20260219-152011,828,Experiment,Both,1,Automatic,main,67,20260423-162802,local,global,300,H,H,E,E,E-H.png,H-E.png,hH,hH,mask-4.png,mask-2.png,h,1,0.3073410999495536,s,0,0.031220000004395843,0.05202229996211827,0.049983000149950385,0.10228280001319945,0.0996964001096785,0.30233859992586076
RSVPLG03,si,20260423-162250,1.0.2,20260219-152011,828,Experiment,Both,1,Automatic,main,68,20260423-162806,local,global,750,S,S,E,A,E-S.png,S-A.png,sS,sS,mask-2.png,mask-4.png,s,1,0.4065357001964003,s,1,0.08752309996634722,0.04982029995881021,0.05078920000232756,0.10081790015101433,0.10057900007814169,0.7516612999606878
RSVPLG03,si,20260423-162250,1.0.2,20260219-152011,828,Experiment,Both,1,Automatic,main,69,20260423-162811,global,local,300,H,H,A,A,H-A.png,A-H.png,hH,hH,mask-4.png,mask-4.png,h,1,0.3786760000512004,s,0,0.04673819988965988,0.051114700036123395,0.05025239987298846,0.10008980007842183,0.10065579996444285,0.3000749000348151
RSVPLG03,si,20260423-162250,1.0.2,20260219-152011,828,Experiment,Both,1,Automatic,main,70,20260423-162815,local,global,300,S,S,A,E,A-S.png,S-E.png,sS,sS,mask-1.png,mask-4.png,h,0,0.5733777999412268,h,0,0.09472289984114468,0.05033959983848035,0.04980450007133186,0.09907260001637042,0.1001659999601543,0.2998265998903662
RSVPLG03,si,20260423-162250,1.0.2,20260219-152011,828,Experiment,Both,1,Automatic,main,71,20260423-162819,global,global,300,S,H,A,A,S-A.png,H-A.png,sS,hH,mask-4.png,mask-3.png,s,1,0.31649380014277995,h,1,0.048723099986091256,0.051569800125434995,0.05023650010116398,0.10199110000394285,0.10033260006457567,0.302331899991259
RSVPLG03,si,20260423-162250,1.0.2,20260219-152011,828,Experiment,Both,1,Automatic,main,72,20260423-162823,global,local,750,S,S,A,E,S-A.png,E-S.png,sS,sS,mask-2.png,mask-4.png,s,1,0.30929080001078546,s,1,0.07164990017190576,0.04882959998212755,0.050127399852499366,0.09932280005887151,0.10140949999913573,0.7514476000797004
RSVPLG03,si,20260423-162250,1.0.2,20260219-152011,828,Experiment,Both,1,Automatic,main,73,20260423-162827,global,local,300,S,S,A,A,S-A.png,A-S.png,sS,sS,mask-2.png,mask-2.png,s,1,0.3392297001555562,s,1,0.07185659999959171,0.049904099898412824,0.05001599993556738,0.10006850003264844,0.1009601999539882,0.2997185999993235
RSVPLG03,si,20260423-162250,1.0.2,20260219-152011,828,Experiment,Both,1,Automatic,main,74,20260423-162831,local,local,750,H,H,A,E,A-H.png,E-H.png,hH,hH,mask-4.png,mask-1.png,h,1,0.31245269998908043,h,1,0.10453589982353151,0.05121559998951852,0.04854930005967617,0.1001924998126924,0.09925450012087822,0.7528197998180985
RSVPLG03,si,20260423-162250,1.0.2,20260219-152011,828,Experiment,Both,1,Automatic,main,75,20260423-162836,local,global,300,S,S,E,E,E-S.png,S-E.png,sS,sS,mask-2.png,mask-2.png,s,1,0.2560204998590052,s,1,0.07745300000533462,0.05090679996646941,0.04939489997923374,0.10136949992738664,0.10049370001070201,0.3014700999483466
RSVPLG03,si,20260423-162250,1.0.2,20260219-152011,828,Experiment,Both,1,Automatic,main,76,20260423-162840,local,global,300,S,H,A,A,A-S.png,H-A.png,sS,hH,mask-2.png,mask-2.png,s,1,0.3712001999374479,h,1,0.04166599991731346,0.050471700029447675,0.04945129994302988,0.10012590000405908,0.10008010012097657,0.3021837999112904
RSVPLG03,si,20260423-162250,1.0.2,20260219-152011,828,Experiment,Both,1,Automatic,main,77,20260423-162844,local,global,750,H,S,A,E,A-H.png,S-E.png,hH,sS,mask-1.png,mask-3.png,h,1,0.7632329000625759,h,0,0.07855199999175966,0.04988269996829331,0.051111700013279915,0.10014109988696873,0.10018200008198619,0.7533926998730749
RSVPLG03,si,20260423-162250,1.0.2,20260219-152011,828,Experiment,Both,1,Automatic,main,78,20260423-162849,local,global,750,S,S,A,A,A-S.png,S-A.png,sS,sS,mask-2.png,mask-4.png,s,1,0.5473378000315279,s,1,0.06404389999806881,0.050373899983242154,0.05102609982714057,0.09839619998820126,0.10049179987981915,0.7510530001018196
RSVPLG03,si,20260423-162250,1.0.2,20260219-152011,828,Experiment,Both,1,Automatic,main,79,20260423-162854,local,global,300,H,H,A,A,A-H.png,H-A.png,hH,hH,mask-1.png,mask-3.png,h,1,0.3586145997978747,h,1,0.06407890003174543,0.051071699941530824,0.049024200066924095,0.099835499888286,0.10012270021252334,0.3004333998542279
RSVPLG03,si,20260423-162250,1.0.2,20260219-152011,828,Experiment,Both,1,Automatic,main,80,20260423-162858,local,local,300,H,S,A,A,A-H.png,A-S.png,hH,sS,mask-1.png,mask-3.png,h,1,0.4549457000102848,s,1,0.020634799962863326,0.049985399935394526,0.049091799883171916,0.09946649987250566,0.0993081999476999,0.30168929998762906
RSVPLG03,si,20260423-162250,1.0.2,20260219-152011,828,Experiment,Both,1,Automatic,main,81,20260423-162902,local,local,300,H,S,E,A,E-H.png,A-S.png,hH,sS,mask-3.png,mask-1.png,h,1,0.3895978999789804,h,0,0.10466559999622405,0.05001619993709028,0.05017849989235401,0.10026940004900098,0.09985219989903271,0.3013897000346333
RSVPLG03,si,20260423-162250,1.0.2,20260219-152011,828,Experiment,Both,1,Automatic,main,82,20260423-162906,local,global,750,S,S,A,A,A-S.png,S-A.png,sS,sS,mask-2.png,mask-2.png,s,1,0.3145608000922948,s,1,0.07914260006509721,0.05097460001707077,0.05077539989724755,0.10107289999723434,0.09985719993710518,0.7525816999841481
RSVPLG03,si,20260423-162250,1.0.2,20260219-152011,828,Experiment,Both,1,Automatic,main,83,20260423-162910,local,global,300,S,H,E,E,E-S.png,H-E.png,sS,hH,mask-1.png,mask-2.png,s,1,0.25861979997716844,s,0,0.08485740004107356,0.050681900000199676,0.049379299860447645,0.10050499998033047,0.10042669996619225,0.30101540009491146
RSVPLG03,si,20260423-162250,1.0.2,20260219-152011,828,Experiment,Both,1,Automatic,main,84,20260423-162914,global,local,300,S,S,A,E,S-A.png,E-S.png,sS,sS,mask-3.png,mask-3.png,h,0,1.6697223000228405,s,1,0.053544600028544664,0.05004059989005327,0.05023230006918311,0.09976829984225333,0.10134660010226071,0.29937609983608127
RSVPLG03,si,20260423-162250,1.0.2,20260219-152011,828,Experiment,Both,1,Automatic,main,85,20260423-162919,local,local,300,S,S,A,E,A-S.png,E-S.png,sS,sS,mask-1.png,mask-4.png,s,1,0.3136408000718802,s,1,0.08077830006368458,0.050019799964502454,0.05116900010034442,0.10040079988539219,0.10119640012271702,0.3010228998027742
RSVPLG03,si,20260423-162250,1.0.2,20260219-152011,828,Experiment,Both,1,Automatic,main,86,20260423-162923,global,global,300,H,H,A,E,H-A.png,H-E.png,hH,hH,mask-4.png,mask-1.png,h,1,0.5240759998559952,h,1,0.10016039991751313,0.049974999856203794,0.04986939998343587,0.1000121000688523,0.09901700005866587,0.30198349989950657
RSVPLG03,si,20260423-162250,1.0.2,20260219-152011,828,Experiment,Both,1,Automatic,main,87,20260423-162927,local,global,750,H,H,A,E,A-H.png,H-E.png,hH,hH,mask-4.png,mask-4.png,h,1,0.46492930012755096,s,0,0.029526100028306246,0.0490902999881655,0.0497834999114275,0.10023789992555976,0.10014929994940758,0.7517135001253337
RSVPLG03,si,20260423-162250,1.0.2,20260219-152011,828,Experiment,Both,1,Automatic,main,88,20260423-162932,local,local,300,S,H,E,A,E-S.png,A-H.png,sS,hH,mask-4.png,mask-4.png,s,1,0.21336110006086528,s,0,0.08654510020278394,0.04936939990147948,0.050414699828252196,0.09986319998279214,0.1005818999838084,0.29890380008146167
RSVPLG03,si,20260423-162250,1.0.2,20260219-152011,828,Experiment,Both,1,Automatic,main,89,20260423-162936,local,local,300,H,S,A,A,A-H.png,A-S.png,hH,sS,mask-1.png,mask-4.png,h,1,0.4801094001159072,s,1,0.08024480007588863,0.04768530000001192,0.04971079993993044,0.09857959998771548,0.09996400005184114,0.29970229999162257
RSVPLG03,si,20260423-162250,1.0.2,20260219-152011,828,Experiment,Both,1,Automatic,main,90,20260423-162940,global,global,750,S,S,E,A,S-E.png,S-A.png,sS,sS,mask-2.png,mask-4.png,h,0,0.56750230002217,h,0,0.10873430012725294,0.050567900063470006,0.05165280005894601,0.10018910001963377,0.10149860009551048,0.7523439999204129
RSVPLG03,si,20260423-162250,1.0.2,20260219-152011,828,Experiment,Both,1,Automatic,main,91,20260423-162945,global,global,750,H,H,A,A,H-A.png,H-A.png,hH,hH,mask-4.png,mask-1.png,h,1,0.9133551998529583,s,0,0.029921700013801455,0.049934000009670854,0.04903690004721284,0.09978349995799363,0.09861880005337298,0.7538042000960559
RSVPLG03,si,20260423-162250,1.0.2,20260219-152011,828,Experiment,Both,1,Automatic,main,92,20260423-162950,local,local,750,H,H,A,A,A-H.png,A-H.png,hH,hH,mask-2.png,mask-1.png,h,1,0.3665370000526309,h,1,0.0794790000654757,0.0488646999001503,0.0499381001573056,0.0999596999026835,0.09980840003117919,0.7518926998600364
RSVPLG03,si,20260423-162250,1.0.2,20260219-152011,828,Experiment,Both,1,Automatic,main,93,20260423-162954,local,local,750,H,H,A,E,A-H.png,E-H.png,hH,hH,mask-4.png,mask-3.png,h,1,0.38361090002581477,h,1,0.0856697999406606,0.05038439994677901,0.04965129983611405,0.10067859990522265,0.10170160001143813,0.752125300001353
RSVPLG03,si,20260423-162250,1.0.2,20260219-152011,828,Experiment,Both,1,Automatic,main,94,20260423-162959,local,global,750,S,S,A,A,A-S.png,S-A.png,sS,sS,mask-4.png,mask-3.png,s,1,0.4358685000333935,s,1,0.07136980001814663,0.05014309985563159,0.04898760002106428,0.10114010004326701,0.10009590000845492,0.7542385999113321
RSVPLG03,si,20260423-162250,1.0.2,20260219-152011,828,Experiment,Both,1,Automatic,main,95,20260423-163003,local,local,750,H,S,E,A,E-H.png,A-S.png,hH,sS,mask-2.png,mask-2.png,h,1,0.3596848000306636,s,1,0.044419199926778674,0.050296799978241324,0.04961360013112426,0.10200930014252663,0.10049310000613332,0.7528623000252992
RSVPLG03,si,20260423-162250,1.0.2,20260219-152011,828,Experiment,Both,1,Automatic,main,96,20260423-163008,local,global,300,H,S,A,A,A-H.png,S-A.png,hH,sS,mask-4.png,mask-2.png,h,1,0.8674961000215262,s,1,0.022712900070473552,0.05038070003502071,0.05028009996749461,0.10021599987521768,0.09965300001204014,0.3005309000145644
RSVPLG03,si,20260423-162250,1.0.2,20260219-152011,828,Experiment,Both,1,Automatic,main,97,20260423-163012,local,global,750,H,H,E,E,E-H.png,H-E.png,hH,hH,mask-4.png,mask-1.png,s,0,0.46950700017623603,h,1,0.045333199901506305,0.0523136998526752,0.048361599911004305,0.097576699918136,0.09886189992539585,0.751654600026086
RSVPLG03,si,20260423-162250,1.0.2,20260219-152011,828,Experiment,Both,1,Automatic,main,98,20260423-163017,global,global,300,S,S,E,A,S-E.png,S-A.png,sS,sS,mask-4.png,mask-1.png,h,0,0.5285068999510258,s,1,0.03507560002617538,0.049797399900853634,0.05075519997626543,0.10092490003444254,0.10034999996423721,0.30107089993543923
RSVPLG03,si,20260423-162250,1.0.2,20260219-152011,828,Experiment,Both,1,Automatic,main,99,20260423-163021,global,local,300,S,H,E,A,S-E.png,A-H.png,sS,hH,mask-1.png,mask-3.png,h,0,0.34505919995717704,s,0,0.013657100033015013,0.04960649996064603,0.04967539990320802,0.09977259999141097,0.1002271999605,0.3007557999808341
RSVPLG03,si,20260423-162250,1.0.2,20260219-152011,828,Experiment,Both,1,Automatic,main,100,20260423-163025,global,global,750,H,H,E,A,H-E.png,H-A.png,hH,hH,mask-2.png,mask-2.png,h,1,0.4100313999224454,h,1,0.07116480008699,0.051200499990954995,0.04703240003436804,0.10147979995235801,0.09723339998163283,0.7544219000265002
RSVPLG03,si,20260423-163111,1.0.2,20260219-152011,828,Experiment,Both,1,Automatic,warmup,1,20260423-163132,global,local,750,H,H,E,A,H-E.png,A-H.png,hH,hH,mask-1.png,mask-2.png,h,1,0.32361709978431463,h,1,0.21507859998382628,0.04189800005406141,0.049923700047656894,0.09196330001577735,0.09768399992026389,0.7433031001128256
RSVPLG03,si,20260423-163111,1.0.2,20260219-152011,828,Experiment,Both,1,Automatic,warmup,2,20260423-163137,global,global,300,H,S,A,E,H-A.png,S-E.png,hH,sS,mask-1.png,mask-3.png,h,1,0.3581252999138087,s,1,0.5010901000350714,0.05149490013718605,0.050042999908328056,0.10052890004590154,0.09877120004966855,0.30042670015245676
RSVPLG03,si,20260423-163111,1.0.2,20260219-152011,828,Experiment,Both,1,Automatic,warmup,3,20260423-163141,global,local,300,S,S,E,A,S-E.png,A-S.png,sS,sS,mask-2.png,mask-2.png,s,1,0.4395649000070989,s,1,0.06252909987233579,0.04827039991505444,0.0482532000169158,0.09962889994494617,0.09859770000912249,0.29981229989789426
RSVPLG03,si,20260423-163111,1.0.2,20260219-152011,828,Experiment,Both,1,Automatic,warmup,4,20260423-163145,global,global,750,S,H,A,A,S-A.png,H-A.png,sS,hH,mask-2.png,mask-2.png,s,1,0.2269367000553757,h,1,0.044367199996486306,0.050769499968737364,0.05046060006134212,0.099721800070256,0.10136079997755587,0.7494993000291288
RSVPLG03,si,20260423-163111,1.0.2,20260219-152011,828,Experiment,Both,1,Automatic,main,5,20260423-163149,local,local,750,H,H,E,A,E-H.png,A-H.png,hH,hH,mask-2.png,mask-1.png,h,1,0.38790810015052557,h,1,0.06050279992632568,0.05144079984165728,0.04937040014192462,0.10124300001189113,0.0999539999756962,0.7495879998896271
RSVPLG03,si,20260423-163111,1.0.2,20260219-152011,828,Experiment,Both,1,Automatic,main,6,20260423-163154,local,global,300,H,S,E,A,E-H.png,S-A.png,hH,sS,mask-1.png,mask-1.png,h,1,0.49579269997775555,h,0,0.0762026000302285,0.05054609989747405,0.049465599935501814,0.09891599998809397,0.09916199999861419,0.2982516000047326
RSVPLG03,si,20260423-163111,1.0.2,20260219-152011,828,Experiment,Both,1,Automatic,main,7,20260423-163158,local,global,750,H,H,E,A,E-H.png,H-A.png,hH,hH,mask-1.png,mask-2.png,h,1,0.4475537999533117,h,1,0.0769112000707537,0.051062499871477485,0.05093470006249845,0.10045329993590713,0.10000859992578626,0.7493382999673486
RSVPLG03,si,20260423-163111,1.0.2,20260219-152011,828,Experiment,Both,1,Automatic,main,8,20260423-163203,global,local,300,H,S,E,A,H-E.png,A-S.png,hH,sS,mask-4.png,mask-4.png,h,1,0.39004680002108216,s,1,0.4384779999963939,0.050062600057572126,0.04888460016809404,0.10115909995511174,0.09800570015795529,0.30039629992097616
RSVPLG03,si,20260423-163111,1.0.2,20260219-152011,828,Experiment,Both,1,Automatic,main,9,20260423-163207,local,local,750,H,S,E,E,E-H.png,E-S.png,hH,sS,mask-3.png,mask-4.png,h,1,0.48256719997152686,s,1,0.5865696000400931,0.04906170000322163,0.05009729997254908,0.09802499995566905,0.09926990000531077,0.749266600003466
RSVPLG03,si,20260423-163111,1.0.2,20260219-152011,828,Experiment,Both,1,Automatic,main,10,20260423-163212,global,global,750,H,S,E,E,H-E.png,S-E.png,hH,sS,mask-4.png,mask-1.png,h,1,0.1935155000537634,s,1,0.40661539998836815,0.04920580005273223,0.049059800105169415,0.09892460005357862,0.10019490006379783,0.7484196999575943
RSVPLG03,si,20260423-163111,1.0.2,20260219-152011,828,Experiment,Both,1,Automatic,main,11,20260423-163216,global,local,300,H,S,A,A,H-A.png,A-S.png,hH,sS,mask-4.png,mask-1.png,h,1,0.3817066000774503,s,1,0.34967190003953874,0.050145900109782815,0.05009740008972585,0.10029960004612803,0.10017800005152822,0.2986924999859184
RSVPLG03,si,20260423-163111,1.0.2,20260219-152011,828,Experiment,Both,1,Automatic,main,12,20260423-163221,local,local,750,H,S,A,A,A-H.png,A-S.png,hH,sS,mask-3.png,mask-4.png,h,1,0.5878268999513239,h,0,0.033539499854668975,0.04869140009395778,0.0501095000654459,0.09989800001494586,0.10031559993512928,0.7481247000396252
RSVPLG03,si,20260423-163111,1.0.2,20260219-152011,828,Experiment,Both,1,Automatic,main,13,20260423-163225,local,global,300,S,S,E,A,E-S.png,S-A.png,sS,sS,mask-4.png,mask-3.png,s,1,0.3690021000802517,s,1,0.0700827999971807,0.049736700020730495,0.04910179995931685,0.09930679993703961,0.09985110000707209,0.299382499884814
RSVPLG03,si,20260423-163111,1.0.2,20260219-152011,828,Experiment,Both,1,Automatic,main,14,20260423-163229,local,global,750,H,S,E,E,E-H.png,S-E.png,hH,sS,mask-4.png,mask-4.png,h,1,0.7535643000155687,h,0,0.05337290000170469,0.05020989989861846,0.04933750000782311,0.10163019993342459,0.09970940020866692,0.7499849998857826
RSVPLG03,si,20260423-163111,1.0.2,20260219-152011,828,Experiment,Both,1,Automatic,main,15,20260423-163234,global,global,300,S,S,A,A,S-A.png,S-A.png,sS,sS,mask-2.png,mask-2.png,s,1,0.2523342000786215,s,1,0.05317740002647042,0.04887810000218451,0.04923819983378053,0.0994014001917094,0.10050549986772239,0.2978468001820147
RSVPLG03,si,20260423-163111,1.0.2,20260219-152011,828,Experiment,Both,1,Automatic,main,16,20260423-163238,global,local,300,S,S,A,E,S-A.png,E-S.png,sS,sS,mask-4.png,mask-3.png,s,1,0.29597129998728633,s,1,0.07181299990043044,0.04884799988940358,0.05070429993793368,0.0985381999053061,0.10065879998728633,0.2983659999445081
RSVPLG03,si,20260423-163111,1.0.2,20260219-152011,828,Experiment,Both,1,Automatic,main,17,20260423-163242,local,local,300,H,H,A,A,A-H.png,A-H.png,hH,hH,mask-2.png,mask-1.png,h,1,0.2970205000601709,h,1,0.04613059991970658,0.048085799906402826,0.05046289996244013,0.0995004998985678,0.09958330006338656,0.2993081999011338
RSVPLG03,si,20260423-163111,1.0.2,20260219-152011,828,Experiment,Both,1,Automatic,main,18,20260423-163246,local,global,750,S,S,E,E,E-S.png,S-E.png,sS,sS,mask-1.png,mask-4.png,s,1,0.42090999986976385,s,1,0.2534392001107335,0.049828399904072285,0.048931000055745244,0.10017269989475608,0.09859029995277524,0.7506098998710513
RSVPLG03,si,20260423-163111,1.0.2,20260219-152011,828,Experiment,Both,1,Automatic,main,19,20260423-163251,global,global,300,S,S,E,E,S-E.png,S-E.png,sS,sS,mask-3.png,mask-2.png,s,1,0.36990600009448826,s,1,0.05615900014527142,0.04859739984385669,0.04957709996961057,0.09857959998771548,0.09941460005939007,0.2980926998425275
RSVPLG03,si,20260423-163111,1.0.2,20260219-152011,828,Experiment,Both,1,Automatic,main,20,20260423-163255,local,global,300,H,S,E,A,E-H.png,S-A.png,hH,sS,mask-2.png,mask-1.png,h,1,0.6252496000379324,h,0,0.1835135999135673,0.04977119993418455,0.04862739983946085,0.09965019999071956,0.10006539989262819,0.3006462000776082
RSVPLG03,si,20260423-163111,1.0.2,20260219-152011,828,Experiment,Both,1,Automatic,main,21,20260423-163259,local,local,750,S,H,E,A,E-S.png,A-H.png,sS,hH,mask-2.png,mask-4.png,s,1,0.3913250998593867,h,1,0.040359799982979894,0.049388299928978086,0.04993460001423955,0.10012919991277158,0.10136449988931417,0.7470474001020193
RSVPLG03,si,20260423-163111,1.0.2,20260219-152011,828,Experiment,Both,1,Automatic,main,22,20260423-163304,global,global,750,H,H,E,A,H-E.png,H-A.png,hH,hH,mask-3.png,mask-4.png,h,1,0.28882270003668964,h,1,0.08538770000450313,0.050807900028303266,0.04958610003814101,0.10116739990189672,0.09944709995761514,0.7488796999678016
RSVPLG03,si,20260423-163111,1.0.2,20260219-152011,828,Experiment,Both,1,Automatic,main,23,20260423-163308,local,global,300,H,H,A,E,A-H.png,H-E.png,hH,hH,mask-4.png,mask-3.png,h,1,0.483080199919641,h,1,0.09595989994704723,0.0498458999209106,0.049158900044858456,0.10014189989306033,0.09946389985270798,0.3006007999647409
RSVPLG03,si,20260423-163111,1.0.2,20260219-152011,828,Experiment,Both,1,Automatic,main,24,20260423-163312,global,local,300,H,S,A,A,H-A.png,A-S.png,hH,sS,mask-3.png,mask-1.png,h,1,2.1710072001442313,h,0,0.07886409992352128,0.04988669999875128,0.05035819998010993,0.10101079987362027,0.09997680014930665,0.2997096998151392
RSVPLG03,si,20260423-163111,1.0.2,20260219-152011,828,Experiment,Both,1,Automatic,main,25,20260423-163318,local,local,750,H,H,E,E,E-H.png,E-H.png,hH,hH,mask-2.png,mask-1.png,h,1,0.4352861000224948,h,1,0.07842519995756447,0.049154700012877584,0.04770050011575222,0.10002529993653297,0.09800720005296171,0.7500584998633713
RSVPLG03,si,20260423-163111,1.0.2,20260219-152011,828,Experiment,Both,1,Automatic,main,26,20260423-163324,local,local,750,H,H,E,E,E-H.png,E-H.png,hH,hH,mask-1.png,mask-4.png,h,1,0.3522667000070214,h,1,0.07189709995873272,0.04936120007187128,0.05061880010180175,0.09843040001578629,0.10099670011550188,0.7470384000334889
RSVPLG03,si,20260423-163111,1.0.2,20260219-152011,828,Experiment,Both,1,Automatic,main,27,20260423-163328,global,local,750,S,H,A,E,S-A.png,E-H.png,sS,hH,mask-4.png,mask-1.png,s,1,0.6081781000830233,h,1,0.031920199980959296,0.04847789998166263,0.05062579992227256,0.10016329982317984,0.10026169987395406,0.7475036999676377
RSVPLG03,si,20260423-163111,1.0.2,20260219-152011,828,Experiment,Both,1,Automatic,main,28,20260423-163333,local,local,300,H,S,E,A,E-H.png,A-S.png,hH,sS,mask-3.png,mask-3.png,h,1,0.4054989998694509,h,0,0.0977594000287354,0.04960140003822744,0.049643500009551644,0.09972810000181198,0.09800469991751015,0.30049649998545647
RSVPLG03,si,20260423-163111,1.0.2,20260219-152011,828,Experiment,Both,1,Automatic,main,29,20260423-163337,global,global,750,S,H,E,A,S-E.png,H-A.png,sS,hH,mask-4.png,mask-2.png,s,1,0.27727859979495406,h,1,0.02403480000793934,0.049170600017532706,0.05049489997327328,0.09939199988730252,0.10171269997954369,0.7482086999807507
RSVPLG03,si,20260423-163111,1.0.2,20260219-152011,828,Experiment,Both,1,Automatic,main,30,20260423-163341,local,local,300,H,H,E,E,E-H.png,E-H.png,hH,hH,mask-4.png,mask-4.png,h,1,0.41202310007065535,h,1,0.08749329997226596,0.05023580021224916,0.05022149998694658,0.09919070010073483,0.09915699996054173,0.3000644000712782
RSVPLG03,si,20260423-163111,1.0.2,20260219-152011,828,Experiment,Both,1,Automatic,main,31,20260423-163345,global,local,750,S,H,E,A,S-E.png,A-H.png,sS,hH,mask-4.png,mask-4.png,s,1,0.3639376999344677,s,0,0.07149660005234182,0.0501333000138402,0.0495068000163883,0.10071940021589398,0.09909019991755486,0.7490207001101226
RSVPLG03,si,20260423-163111,1.0.2,20260219-152011,828,Experiment,Both,1,Automatic,main,32,20260423-163350,local,global,300,H,H,A,E,A-H.png,H-E.png,hH,hH,mask-3.png,mask-4.png,h,1,0.4095593998208642,s,0,0.03365400014445186,0.0492620998993516,0.05026660021394491,0.09863390005193651,0.10035419999621809,0.29887379985302687
RSVPLG03,si,20260423-163111,1.0.2,20260219-152011,828,Experiment,Both,1,Automatic,main,33,20260423-163354,local,global,750,S,S,A,E,A-S.png,S-E.png,sS,sS,mask-3.png,mask-2.png,s,1,0.2864650001283735,h,0,0.05381670012138784,0.04962909989990294,0.048564699944108725,0.10012499988079071,0.09919089986942708,0.7501914000604302
RSVPLG03,si,20260423-163111,1.0.2,20260219-152011,828,Experiment,Both,1,Automatic,main,34,20260423-163358,local,local,750,S,H,A,E,A-S.png,E-H.png,sS,hH,mask-3.png,mask-4.png,h,0,0.25460959994234145,h,1,0.0885345998685807,0.049722000025212765,0.05040379986166954,0.09863830008544028,0.09909110004082322,0.7480687000788748
RSVPLG03,si,20260423-163111,1.0.2,20260219-152011,828,Experiment,Both,1,Automatic,main,35,20260423-163403,local,local,750,S,H,A,E,A-S.png,E-H.png,sS,hH,mask-1.png,mask-1.png,h,0,0.37570079998113215,h,1,0.07754379999823868,0.04909590003080666,0.04916209983639419,0.09891229984350502,0.1004580999724567,0.7494810000061989
RSVPLG03,si,20260423-163111,1.0.2,20260219-152011,828,Experiment,Both,1,Automatic,main,36,20260423-163407,global,global,750,S,H,A,E,S-A.png,H-E.png,sS,hH,mask-2.png,mask-2.png,s,1,0.2908570999279618,h,1,0.03953749989159405,0.04978889995254576,0.04963220003992319,0.09992900001816452,0.09957539988681674,0.7484267000108957
RSVPLG03,si,20260423-163111,1.0.2,20260219-152011,828,Experiment,Both,1,Automatic,main,37,20260423-163412,global,local,750,S,H,E,E,S-E.png,E-H.png,sS,hH,mask-3.png,mask-2.png,s,1,0.2649950999766588,s,0,0.09856489999219775,0.04962980002164841,0.05087749985978007,0.09998170007020235,0.09988710004836321,0.7480453001335263
RSVPLG03,si,20260423-163111,1.0.2,20260219-152011,828,Experiment,Both,1,Automatic,main,38,20260423-163416,global,global,300,H,H,E,A,H-E.png,H-A.png,hH,hH,mask-3.png,mask-3.png,h,1,0.5407852998469025,s,0,0.006958300014957786,0.049388499930500984,0.050428899936378,0.09991799993440509,0.0988310999237001,0.3000956999603659
RSVPLG03,si,20260423-163111,1.0.2,20260219-152011,828,Experiment,Both,1,Automatic,main,39,20260423-163420,local,local,300,S,S,A,A,A-S.png,A-S.png,sS,sS,mask-1.png,mask-1.png,h,0,0.345138399861753,s,1,0.4762530999723822,0.04998560016974807,0.04936750000342727,0.0987166000995785,0.0988680999726057,0.2996218001935631
RSVPLG03,si,20260423-163111,1.0.2,20260219-152011,828,Experiment,Both,1,Automatic,main,40,20260423-163425,local,local,750,S,S,E,E,E-S.png,E-S.png,sS,sS,mask-3.png,mask-2.png,s,1,0.3670636999886483,s,1,0.07373309996910393,0.04980209982022643,0.04899220005609095,0.09955059993080795,0.0991333001293242,0.7486303998157382
RSVPLG03,si,20260423-163111,1.0.2,20260219-152011,828,Experiment,Both,1,Automatic,main,41,20260423-163429,local,local,750,H,S,A,A,A-H.png,A-S.png,hH,sS,mask-2.png,mask-2.png,h,1,0.562977499794215,s,1,0.008516200119629502,0.0503664999268949,0.05043799988925457,0.09982110001146793,0.10113339987583458,0.7485267999581993
RSVPLG03,si,20260423-163111,1.0.2,20260219-152011,828,Experiment,Both,1,Automatic,main,42,20260423-163434,local,global,750,S,H,A,A,A-S.png,H-A.png,sS,hH,mask-4.png,mask-1.png,h,0,0.2279984001070261,s,0,0.1368007999844849,0.050422900123521686,0.04984400002285838,0.09992030006833375,0.10014360002242029,0.7496346000116318
RSVPLG03,si,20260423-163111,1.0.2,20260219-152011,828,Experiment,Both,1,Automatic,main,43,20260423-163438,global,global,750,H,H,E,E,H-E.png,H-E.png,hH,hH,mask-2.png,mask-3.png,h,1,0.5695848998147994,h,1,0.06812439998611808,0.0497165999840945,0.049070400185883045,0.10051549994386733,0.09917240007780492,0.7505614999681711
RSVPLG03,si,20260423-163111,1.0.2,20260219-152011,828,Experiment,Both,1,Automatic,main,44,20260423-163443,global,local,300,H,S,E,E,H-E.png,E-S.png,hH,sS,mask-3.png,mask-2.png,h,1,0.4701292999088764,s,1,0.022636800073087215,0.04970480012707412,0.04983510007150471,0.09984700009226799,0.10102970013394952,0.2992742999922484
RSVPLG03,si,20260423-163111,1.0.2,20260219-152011,828,Experiment,Both,1,Automatic,main,45,20260423-163447,local,global,300,H,H,A,A,A-H.png,H-A.png,hH,hH,mask-2.png,mask-4.png,h,1,0.3977314999792725,s,0,0.05552900000475347,0.04894820018671453,0.048905499977990985,0.09898270014673471,0.09959489991888404,0.2990567001979798
RSVPLG03,si,20260423-163111,1.0.2,20260219-152011,828,Experiment,Both,1,Automatic,main,46,20260423-163451,local,global,300,S,S,E,A,E-S.png,S-A.png,sS,sS,mask-1.png,mask-4.png,s,1,0.32027500006370246,s,1,0.06354569992981851,0.05280479998327792,0.05081339995376766,0.10007849987596273,0.09978779987432063,0.30026899999938905
RSVPLG03,si,20260423-163111,1.0.2,20260219-152011,828,Experiment,Both,1,Automatic,main,47,20260423-163455,global,local,300,S,H,A,A,S-A.png,A-H.png,sS,hH,mask-1.png,mask-2.png,s,1,0.36546280002221465,h,1,0.03139240015298128,0.049589799949899316,0.0493622999638319,0.0992850000038743,0.0999974999576807,0.29928230005316436
RSVPLG03,si,20260423-163111,1.0.2,20260219-152011,828,Experiment,Both,1,Automatic,main,48,20260423-163459,global,global,750,H,H,A,E,H-A.png,H-E.png,hH,hH,mask-3.png,mask-4.png,h,1,0.5001148998271674,h,1,0.07850859989412129,0.04853089991956949,0.04898600000888109,0.0990981999784708,0.09891469986177981,0.7484806999564171
RSVPLG03,si,20260423-163111,1.0.2,20260219-152011,828,Experiment,Both,1,Automatic,main,49,20260423-163503,local,global,300,H,H,A,A,A-H.png,H-A.png,hH,hH,mask-2.png,mask-1.png,h,1,0.37406099983491004,h,1,0.06426559993997216,0.05035000015050173,0.04900239990092814,0.10029930016025901,0.09825389995239675,0.29990610014647245
RSVPLG03,si,20260423-163111,1.0.2,20260219-152011,828,Experiment,Both,1,Automatic,main,50,20260423-163507,local,local,300,S,S,E,A,E-S.png,A-S.png,sS,sS,mask-2.png,mask-3.png,h,0,1.4334324998781085,h,0,0.0935682998970151,0.049767399905249476,0.050440700026229024,0.09940259996801615,0.10029640002176166,0.29975559981539845
RSVPLG03,si,20260423-163111,1.0.2,20260219-152011,828,Experiment,Both,1,Automatic,main,51,20260423-163513,global,local,300,S,S,E,A,S-E.png,A-S.png,sS,sS,mask-3.png,mask-3.png,s,1,0.34050230006687343,h,0,0.03716569999232888,0.050752499839290977,0.0506351999938488,0.09953489992767572,0.10029520001262426,0.3002142000477761
RSVPLG03,si,20260423-163111,1.0.2,20260219-152011,828,Experiment,Both,1,Automatic,main,52,20260423-163517,local,global,750,S,S,A,E,A-S.png,S-E.png,sS,sS,mask-3.png,mask-1.png,h,0,0.425907300086692,s,1,0.03840580000542104,0.04999919980764389,0.04918299987912178,0.10056929988786578,0.09895700006745756,0.7495907999109477
RSVPLG03,si,20260423-163111,1.0.2,20260219-152011,828,Experiment,Both,1,Automatic,main,53,20260423-163521,global,local,750,S,S,E,A,S-E.png,A-S.png,sS,sS,mask-2.png,mask-1.png,s,1,0.43260829988867044,h,0,0.0325186001136899,0.05039529991336167,0.050341299967840314,0.09941609995439649,0.09982050000689924,0.7487961000297219
RSVPLG03,si,20260423-163111,1.0.2,20260219-152011,828,Experiment,Both,1,Automatic,main,54,20260423-163526,global,global,750,H,S,E,E,H-E.png,S-E.png,hH,sS,mask-3.png,mask-2.png,h,1,0.32013459992595017,s,1,0.03148760017938912,0.05060490011237562,0.04886920005083084,0.1013752999715507,0.09994140011258423,0.7509828000329435
RSVPLG03,si,20260423-163111,1.0.2,20260219-152011,828,Experiment,Both,1,Automatic,main,55,20260423-163530,local,global,300,H,S,E,E,E-H.png,S-E.png,hH,sS,mask-4.png,mask-2.png,h,1,0.5356509999837726,s,1,0.43506300006993115,0.049951199907809496,0.0485599001403898,0.09961859998293221,0.10023159999400377,0.3007854998577386
RSVPLG03,si,20260423-163111,1.0.2,20260219-152011,828,Experiment,Both,1,Automatic,main,56,20260423-163535,global,local,300,S,S,E,A,S-E.png,A-S.png,sS,sS,mask-3.png,mask-3.png,s,1,0.5817563999444246,h,0,0.18305080011487007,0.0510132999625057,0.049099700059741735,0.10113919991999865,0.09928850014694035,0.3002425997983664
RSVPLG03,si,20260423-163111,1.0.2,20260219-152011,828,Experiment,Both,1,Automatic,main,57,20260423-163539,global,global,750,H,S,A,E,H-A.png,S-E.png,hH,sS,mask-2.png,mask-1.png,h,1,0.3520182000938803,s,1,0.021762300049886107,0.04888370004482567,0.04847080004401505,0.09990050015039742,0.0990504000801593,0.7491204000543803
RSVPLG03,si,20260423-163111,1.0.2,20260219-152011,828,Experiment,Both,1,Automatic,main,58,20260423-163544,local,local,300,S,S,E,E,E-S.png,E-S.png,sS,sS,mask-2.png,mask-3.png,s,1,0.303596000187099,s,1,0.07136590010486543,0.04934190004132688,0.04983390006236732,0.09924919996410608,0.1011181001085788,0.2986077000387013
RSVPLG03,si,20260423-163111,1.0.2,20260219-152011,828,Experiment,Both,1,Automatic,main,59,20260423-163548,global,local,750,H,H,E,E,H-E.png,E-H.png,hH,hH,mask-4.png,mask-1.png,h,1,0.4512451000045985,h,1,0.0694418998900801,0.05094320001080632,0.0503044999204576,0.10020970017649233,0.09974510013125837,0.7483087000437081
RSVPLG03,si,20260423-163111,1.0.2,20260219-152011,828,Experiment,Both,1,Automatic,main,60,20260423-163552,local,global,750,H,S,E,E,E-H.png,S-E.png,hH,sS,mask-2.png,mask-2.png,h,1,0.3820976000279188,h,0,0.07640899997204542,0.050757399993017316,0.048480199882760644,0.09977259999141097,0.09917779988609254,0.7495097001083195
RSVPLG03,si,20260423-163111,1.0.2,20260219-152011,828,Experiment,Both,1,Automatic,main,61,20260423-163557,global,local,750,H,H,E,E,H-E.png,E-H.png,hH,hH,mask-1.png,mask-1.png,h,1,0.3973715999163687,s,0,0.054810000117868185,0.04910319996997714,0.05099539994262159,0.09922129986807704,0.10125649999827147,0.748143499949947
RSVPLG03,si,20260423-163111,1.0.2,20260219-152011,828,Experiment,Both,1,Automatic,main,62,20260423-163601,global,global,300,S,S,E,E,S-E.png,S-E.png,sS,sS,mask-1.png,mask-1.png,s,1,0.3838349999859929,s,1,0.06213450012728572,0.04884130018763244,0.051207599928602576,0.09903879999183118,0.09954450000077486,0.2986676001455635
RSVPLG03,si,20260423-163111,1.0.2,20260219-152011,828,Experiment,Both,1,Automatic,main,63,20260423-163605,global,global,300,H,H,A,E,H-A.png,H-E.png,hH,hH,mask-1.png,mask-2.png,h,1,0.35212119994685054,h,1,0.05482219997793436,0.049457799876108766,0.05052669998258352,0.09920159983448684,0.09912070003338158,0.2987853998783976
RSVPLG03,si,20260423-163111,1.0.2,20260219-152011,828,Experiment,Both,1,Automatic,main,64,20260423-163609,global,local,300,H,H,A,A,H-A.png,A-H.png,hH,hH,mask-2.png,mask-3.png,h,1,0.3205995000898838,h,1,0.07808260014280677,0.049053800059482455,0.04831270012073219,0.09801449999213219,0.09803079999983311,0.29911560006439686
RSVPLG03,si,20260423-163111,1.0.2,20260219-152011,828,Experiment,Both,1,Automatic,main,65,20260423-163613,global,local,750,S,H,E,A,S-E.png,A-H.png,sS,hH,mask-1.png,mask-3.png,s,1,0.06955470005050302,s,0,0.09253270016051829,0.048618500120937824,0.05107359983958304,0.09852090012282133,0.10046899993903935,0.7469349000602961
RSVPLG03,si,20260423-163111,1.0.2,20260219-152011,828,Experiment,Both,1,Automatic,main,66,20260423-163617,global,local,300,S,S,A,A,S-A.png,A-S.png,sS,sS,mask-3.png,mask-3.png,s,1,0.5895873999688774,h,0,0.03952540014870465,0.049650700064376,0.04898810014128685,0.10106589994393289,0.0988597001414746,0.3006120999343693
RSVPLG03,si,20260423-163111,1.0.2,20260219-152011,828,Experiment,Both,1,Automatic,main,67,20260423-163622,local,global,750,H,H,A,E,A-H.png,H-E.png,hH,hH,mask-1.png,mask-4.png,h,1,0.10225539980456233,s,0,0.04527170001529157,0.04914080002345145,0.04973239987157285,0.10053970012813807,0.09978679986670613,0.7481607000809163
RSVPLG03,si,20260423-163111,1.0.2,20260219-152011,828,Experiment,Both,1,Automatic,main,68,20260423-163626,global,local,750,S,H,A,A,S-A.png,A-H.png,sS,hH,mask-4.png,mask-3.png,s,1,0.22011150000616908,h,1,0.05541449994780123,0.05016310000792146,0.04903919994831085,0.09946559998206794,0.09972709999419749,0.7488647000864148
RSVPLG03,si,20260423-163111,1.0.2,20260219-152011,828,Experiment,Both,1,Automatic,main,69,20260423-163630,global,global,750,S,H,E,E,S-E.png,H-E.png,sS,hH,mask-3.png,mask-3.png,s,1,0.039369900012388825,h,1,0.015200699912384152,0.04925669985823333,0.05111830006353557,0.09969180007465184,0.09946559998206794,0.7485249999444932
RSVPLG03,si,20260423-163111,1.0.2,20260219-152011,828,Experiment,Both,1,Automatic,main,70,20260423-163635,global,global,300,S,S,E,A,S-E.png,S-A.png,sS,sS,mask-2.png,mask-3.png,s,1,0.2996771999169141,s,1,0.0790874999947846,0.04765570000745356,0.04948580008931458,0.09878400014713407,0.10013870010152459,0.29802930005826056
RSVPLG03,si,20260423-163111,1.0.2,20260219-152011,828,Experiment,Both,1,Automatic,main,71,20260423-163639,local,local,300,H,H,A,A,A-H.png,A-H.png,hH,hH,mask-2.png,mask-3.png,h,1,0.25589910009875894,h,1,0.0874020999763161,0.04887079983018339,0.04991919989697635,0.10002509993501008,0.10032560001127422,0.2979840999469161
RSVPLG03,si,20260423-163111,1.0.2,20260219-152011,828,Experiment,Both,1,Automatic,main,72,20260423-163643,global,global,300,S,S,A,A,S-A.png,S-A.png,sS,sS,mask-2.png,mask-2.png,s,1,1.4843574999831617,h,0,0.039402099791914225,0.0488994000479579,0.04931309982202947,0.09771499992348254,0.09872179990634322,0.29834230011329055
RSVPLG03,si,20260423-163111,1.0.2,20260219-152011,828,Experiment,Both,1,Automatic,main,73,20260423-163648,local,global,300,S,H,E,E,E-S.png,H-E.png,sS,hH,mask-3.png,mask-1.png,s,1,0.04855050006881356,s,0,0.08567800000309944,0.04846190009266138,0.050668600015342236,0.09930770006030798,0.1015043999068439,0.2966629001311958
RSVPLG03,si,20260423-163111,1.0.2,20260219-152011,828,Experiment,Both,1,Automatic,main,74,20260423-163651,global,local,750,S,H,E,E,S-E.png,E-H.png,sS,hH,mask-1.png,mask-2.png,s,1,0.3870284999720752,s,0,0.06953600002452731,0.0500385002233088,0.04932189988903701,0.09988640015944839,0.09997890004888177,0.7495000001508743
RSVPLG03,si,20260423-163111,1.0.2,20260219-152011,828,Experiment,Both,1,Automatic,main,75,20260423-163656,local,local,300,S,S,E,E,E-S.png,E-S.png,sS,sS,mask-4.png,mask-2.png,s,1,0.32984210015274584,s,1,0.060996599961072206,0.048447800101712346,0.05118680000305176,0.09977330011315644,0.10149999987334013,0.29811260011047125
RSVPLG03,si,20260423-163111,1.0.2,20260219-152011,828,Experiment,Both,1,Automatic,main,76,20260423-163700,global,global,300,H,H,E,E,H-E.png,H-E.png,hH,hH,mask-1.png,mask-2.png,h,1,0.2456033998169005,h,1,0.07245659991167486,0.051413699984550476,0.04874719982035458,0.10051789996214211,0.10036579985171556,0.3013279000297189
RSVPLG03,si,20260423-163111,1.0.2,20260219-152011,828,Experiment,Both,1,Automatic,main,77,20260423-163704,local,local,750,S,H,A,A,A-S.png,A-H.png,sS,hH,mask-4.png,mask-4.png,h,0,0.6066087998915464,h,1,0.08047339995391667,0.04924779990687966,0.04926380002871156,0.09862790000624955,0.0993240000680089,0.7490949998609722
RSVPLG03,si,20260423-163111,1.0.2,20260219-152011,828,Experiment,Both,1,Automatic,main,78,20260423-163709,local,local,300,H,S,E,E,E-H.png,E-S.png,hH,sS,mask-3.png,mask-3.png,s,0,0.3980201000813395,s,1,0.25199469993822277,0.050161899998784065,0.04982159985229373,0.09940229984931648,0.09938220004551113,0.29914709995500743
RSVPLG03,si,20260423-163111,1.0.2,20260219-152011,828,Experiment,Both,1,Automatic,main,79,20260423-163713,local,global,750,H,H,A,A,A-H.png,H-A.png,hH,hH,mask-1.png,mask-3.png,h,1,0.5171616000588983,h,1,0.054404000053182244,0.050609099911525846,0.050012300023809075,0.10215819999575615,0.10031310003250837,0.7508493999484926
RSVPLG03,si,20260423-163111,1.0.2,20260219-152011,828,Experiment,Both,1,Automatic,main,80,20260423-163718,global,global,750,S,H,A,A,S-A.png,H-A.png,sS,hH,mask-2.png,mask-4.png,h,0,0.30097310012206435,h,1,0.05624440009705722,0.05008090008050203,0.048289400059729815,0.10025519994087517,0.09830640000291169,0.7493823000695556
RSVPLG03,si,20260423-163111,1.0.2,20260219-152011,828,Experiment,Both,1,Automatic,main,81,20260423-163722,local,global,300,H,H,A,E,A-H.png,H-E.png,hH,hH,mask-4.png,mask-1.png,h,1,0.30238109990023077,s,0,0.04635080019943416,0.050624100025743246,0.04908980010077357,0.10085500008426607,0.09898629994131625,0.30116600007750094
RSVPLG03,si,20260423-163111,1.0.2,20260219-152011,828,Experiment,Both,1,Automatic,main,82,20260423-163726,local,local,750,H,S,A,A,A-H.png,A-S.png,hH,sS,mask-1.png,mask-2.png,h,1,0.3309757001698017,s,1,0.03107080003246665,0.04448359995149076,0.05013450002297759,0.09453999996185303,0.10029660002328455,0.7446312999818474
RSVPLG03,si,20260423-163111,1.0.2,20260219-152011,828,Experiment,Both,1,Automatic,main,83,20260423-163730,global,local,750,S,H,A,E,S-A.png,E-H.png,sS,hH,mask-1.png,mask-2.png,h,0,0.5713176999706775,h,1,0.06539569981396198,0.05046169995330274,0.05130079993978143,0.09932429995387793,0.10040839994326234,0.7485470999963582
RSVPLG03,si,20260423-163111,1.0.2,20260219-152011,828,Experiment,Both,1,Automatic,main,84,20260423-163735,local,global,750,S,S,E,E,E-S.png,S-E.png,sS,sS,mask-3.png,mask-3.png,s,1,0.502424200065434,h,0,0.0460531001444906,0.05090599996037781,0.04962010006420314,0.10080830007791519,0.10066730016842484,0.7510269999038428
RSVPLG03,si,20260423-163111,1.0.2,20260219-152011,828,Experiment,Both,1,Automatic,main,85,20260423-163740,local,global,750,S,S,A,A,A-S.png,S-A.png,sS,sS,mask-4.png,mask-2.png,h,0,0.2322196001186967,s,1,0.13354619988240302,0.0501292000990361,0.04985960014164448,0.09890100010670722,0.10045250016264617,0.7499434999190271
RSVPLG03,si,20260423-163111,1.0.2,20260219-152011,828,Experiment,Both,1,Automatic,main,86,20260423-163744,global,global,300,H,S,E,A,H-E.png,S-A.png,hH,sS,mask-2.png,mask-2.png,h,1,0.42863469989970326,s,1,0.044297299813479185,0.0509893000125885,0.0494252999778837,0.1005662998650223,0.10097759985364974,0.29958210000768304
RSVPLG03,si,20260423-163111,1.0.2,20260219-152011,828,Experiment,Both,1,Automatic,main,87,20260423-163748,local,global,300,S,H,A,A,A-S.png,H-A.png,sS,hH,mask-3.png,mask-3.png,s,1,0.3664892001543194,h,1,0.09312060009688139,0.04943699995055795,0.049016800010576844,0.1000027998816222,0.10048229992389679,0.29912430001422763
RSVPLG03,si,20260423-163111,1.0.2,20260219-152011,828,Experiment,Both,1,Automatic,main,88,20260423-163752,local,global,750,S,H,A,A,A-S.png,H-A.png,sS,hH,mask-2.png,mask-1.png,s,1,0.43149020010605454,h,1,0.046158800134435296,0.0498649999499321,0.04943449981510639,0.10002629994414747,0.10000370000489056,0.7493110001087189
RSVPLG03,si,20260423-163111,1.0.2,20260219-152011,828,Experiment,Both,1,Automatic,main,89,20260423-163757,global,local,300,H,S,E,E,H-E.png,E-S.png,hH,sS,mask-1.png,mask-4.png,h,1,0.43491589999757707,s,1,0.05650450009852648,0.049575299955904484,0.050070099998265505,0.10058550001122057,0.10018200008198619,0.2987752999179065
RSVPLG03,si,20260423-163111,1.0.2,20260219-152011,828,Experiment,Both,1,Automatic,main,90,20260423-163801,global,local,300,S,S,E,A,S-E.png,A-S.png,sS,sS,mask-1.png,mask-1.png,s,1,0.4395725999493152,h,0,0.10908499988727272,0.04999580001458526,0.04924760013818741,0.09996200003661215,0.10079400008544326,0.29983539995737374
RSVPLG03,si,20260423-163111,1.0.2,20260219-152011,828,Experiment,Both,1,Automatic,main,91,20260423-163805,local,local,300,S,S,A,A,A-S.png,A-S.png,sS,sS,mask-4.png,mask-1.png,s,1,0.3484165999107063,s,1,0.07234779978170991,0.05004739994183183,0.04985409998334944,0.10007559997029603,0.10069210012443364,0.29999909992329776
RSVPLG03,si,20260423-163111,1.0.2,20260219-152011,828,Experiment,Both,1,Automatic,main,92,20260423-163809,global,global,300,S,S,E,A,S-E.png,S-A.png,sS,sS,mask-4.png,mask-3.png,s,1,0.4995053999591619,h,0,0.07139319996349514,0.04921759990975261,0.04909630003385246,0.09931210009381175,0.09920350019820035,0.29950449988245964
RSVPLG03,si,20260423-163111,1.0.2,20260219-152011,828,Experiment,Both,1,Automatic,main,93,20260423-163813,global,global,750,S,H,A,A,S-A.png,H-A.png,sS,hH,mask-2.png,mask-4.png,s,1,0.26382629992440343,h,1,0.03947790013626218,0.051213799975812435,0.0496698000933975,0.10109020001254976,0.0988166001625359,0.7497596000321209
RSVPLG03,si,20260423-163111,1.0.2,20260219-152011,828,Experiment,Both,1,Automatic,main,94,20260423-163818,local,local,300,S,H,E,A,E-S.png,A-H.png,sS,hH,mask-4.png,mask-4.png,s,1,0.3721321001648903,h,1,0.025038399966433644,0.04984820005483925,0.04930149996653199,0.09980259998701513,0.09906639996916056,0.29992990009486675
RSVPLG03,si,20260423-163111,1.0.2,20260219-152011,828,Experiment,Both,1,Automatic,main,95,20260423-163822,local,local,300,H,S,E,A,E-H.png,A-S.png,hH,sS,mask-3.png,mask-2.png,h,1,0.2553705000318587,s,1,0.4863426999654621,0.048579500056803226,0.04852059995755553,0.09791920008137822,0.09839949989691377,0.2986070001497865
RSVPLG03,si,20260423-163111,1.0.2,20260219-152011,828,Experiment,Both,1,Automatic,main,96,20260423-163826,global,local,750,S,S,E,A,S-E.png,A-S.png,sS,sS,mask-4.png,mask-1.png,s,1,0.328031700104475,h,0,0.029986900044605136,0.05050090001896024,0.04991950001567602,0.10018970002420247,0.09825709997676313,0.7507191000040621
RSVPLG03,si,20260423-163111,1.0.2,20260219-152011,828,Experiment,Both,1,Automatic,main,97,20260423-163830,global,local,750,H,H,E,A,H-E.png,A-H.png,hH,hH,mask-3.png,mask-2.png,h,1,0.33640559995546937,h,1,0.05590079980902374,0.05034810001961887,0.0498643999453634,0.10181730007752776,0.09910569991916418,0.749795300187543
RSVPLG03,si,20260423-163111,1.0.2,20260219-152011,828,Experiment,Both,1,Automatic,main,98,20260423-163835,global,global,300,H,S,E,E,H-E.png,S-E.png,hH,sS,mask-2.png,mask-3.png,h,1,0.326223999960348,s,1,0.016239200020208955,0.050342699978500605,0.049161799950525165,0.09917890001088381,0.09936709981411695,0.29941279999911785
RSVPLG03,si,20260423-163111,1.0.2,20260219-152011,828,Experiment,Both,1,Automatic,main,99,20260423-163839,global,global,300,H,H,E,E,H-E.png,H-E.png,hH,hH,mask-3.png,mask-1.png,h,1,0.3578743999823928,h,1,0.05504989996552467,0.04600360011681914,0.050562899792566895,0.09627920016646385,0.09856399986892939,0.29621050017885864
RSVPLG03,si,20260423-163111,1.0.2,20260219-152011,828,Experiment,Both,1,Automatic,main,100,20260423-163843,global,global,750,H,S,A,E,H-A.png,S-E.png,hH,sS,mask-2.png,mask-3.png,h,1,0.3284165000077337,s,1,0.02445079991593957,0.04954449995420873,0.04945289995521307,0.09890969982370734,0.0984710999764502,0.7495748999062926
