exp,exp_initials,runtime,ver,modtime,sub,blocktype,targets,cuetype,mode,trialtype,trial,trialtime,t1_level,t2_level,t2_lag,t1,t2,distractor1,distractor2,stimfile1,stimfile2,t1_corr,t2_corr,maskfile1,maskfile2,t1_resp,t1_acc,t1_rt,t2_resp,t2_acc,t2_rt,t1_dur,t2_dur,t1mask_soa,t2mask_soa,t1t2_soa
RSVPLG03,md,20260310-090151,1.0.2,20251105-084826,795,Introduction,T1,1,Automatic,main,1,20260310-091727,local,local,750,H,S,E,E,E-H.png,E-S.png,hH,sS,mask-2.png,mask-2.png,h,1,13.81640819995664,none,-5,0,0.09107029996812344,0.09644079999998212,0.19385539996437728,0.19933210010640323,0.7448056000284851
RSVPLG03,md,20260310-090151,1.0.2,20251105-084826,795,Introduction,T1,1,Automatic,main,2,20260310-091745,local,local,750,H,H,A,E,A-H.png,E-H.png,hH,hH,mask-1.png,mask-1.png,h,1,0.7252311001066118,none,-5,0,0.09839350008405745,0.09807340009137988,0.2009707000106573,0.1990692000836134,0.7510450999252498
RSVPLG03,md,20260310-090151,1.0.2,20251105-084826,795,Introduction,T1,1,Automatic,main,3,20260310-091750,global,global,750,H,H,A,E,H-A.png,H-E.png,hH,hH,mask-3.png,mask-1.png,h,1,1.84064060007222,none,-5,0,0.097252800129354,0.09755950001999736,0.20114840008318424,0.19890530011616647,0.7503366000019014
RSVPLG03,md,20260310-090151,1.0.2,20251105-084826,795,Introduction,T1,1,Automatic,main,4,20260310-091756,global,local,750,S,S,E,E,S-E.png,E-S.png,sS,sS,mask-4.png,mask-4.png,s,1,0.9577808000613004,none,-5,0,0.09795930003747344,0.09820230002515018,0.2004045001231134,0.20038369996473193,0.7498395000584424
RSVPLG03,md,20260310-090151,1.0.2,20251105-084826,795,Introduction,T1,1,Automatic,main,5,20260310-091801,local,global,750,S,H,E,E,E-S.png,H-E.png,sS,hH,mask-3.png,mask-4.png,s,1,1.087688900064677,none,-5,0,0.09824590012431145,0.09640350006520748,0.19963850011117756,0.20013429992832243,0.7494729000609368
RSVPLG03,md,20260310-090151,1.0.2,20251105-084826,795,Introduction,T1,1,Automatic,main,6,20260310-091806,local,global,750,S,H,A,A,A-S.png,H-A.png,sS,hH,mask-3.png,mask-4.png,s,1,1.1414570999331772,none,-5,0,0.09963529999367893,0.09753110003657639,0.20058150007389486,0.20057310000993311,0.7498711999505758
RSVPLG03,md,20260310-090151,1.0.2,20251105-084826,795,Introduction,T1,1,Automatic,main,7,20260310-091812,global,global,750,H,H,E,E,H-E.png,H-E.png,hH,hH,mask-3.png,mask-4.png,h,1,0.9167390000075102,none,-5,0,0.0973585001192987,0.09854959999211133,0.20110570010729134,0.19948309985920787,0.7498801001347601
RSVPLG03,md,20260310-090151,1.0.2,20251105-084826,795,Introduction,T1,1,Automatic,main,8,20260310-091817,global,local,750,S,H,A,A,S-A.png,A-H.png,sS,hH,mask-2.png,mask-3.png,s,1,1.2709780000150204,none,-5,0,0.09657870000228286,0.09761819988489151,0.19979220000095665,0.20108219981193542,0.7474158999975771
RSVPLG03,md,20260310-090151,1.0.2,20251105-084826,795,Introduction,T1,1,Automatic,main,9,20260310-091822,local,local,750,S,H,E,E,E-S.png,E-H.png,sS,hH,mask-1.png,mask-2.png,s,1,0.8082867001648992,none,-5,0,0.09637550008483231,0.09753179992549121,0.19834620016627014,0.1993928998708725,0.7492184001021087
RSVPLG03,md,20260310-090151,1.0.2,20251105-084826,795,Introduction,T1,1,Automatic,main,10,20260310-091827,local,local,750,H,S,E,A,E-H.png,A-S.png,hH,sS,mask-3.png,mask-4.png,h,1,0.4296375000849366,none,-5,0,0.09589220001362264,0.09756669984199107,0.19805200002156198,0.19869469990953803,0.7488589000422508
RSVPLG03,md,20260310-090151,1.0.2,20251105-084826,795,Introduction,T1,1,Automatic,main,11,20260310-091832,global,global,750,S,H,A,A,S-A.png,H-A.png,sS,hH,mask-4.png,mask-1.png,s,1,0.6019154998939484,none,-5,0,0.09738159994594753,0.09743009996600449,0.19908509985543787,0.20120189990848303,0.7477102999109775
RSVPLG03,md,20260310-090151,1.0.2,20251105-084826,795,Introduction,T1,1,Automatic,main,12,20260310-091837,local,global,750,H,S,A,A,A-H.png,S-A.png,hH,sS,mask-4.png,mask-4.png,h,1,0.4589211998973042,none,-5,0,0.09678800008259714,0.09744180017150939,0.19928510021418333,0.2003846000880003,0.749585899990052
RSVPLG03,md,20260310-090151,1.0.2,20251105-084826,795,Introduction,T1,1,Automatic,main,13,20260310-091841,local,global,750,S,S,A,A,A-S.png,S-A.png,sS,sS,mask-2.png,mask-2.png,s,1,0.4921539998613298,none,-5,0,0.0965525999199599,0.09731579991057515,0.199622199870646,0.19995529996231198,0.7478189000394195
RSVPLG03,md,20260310-090151,1.0.2,20251105-084826,795,Introduction,T1,1,Automatic,main,14,20260310-091846,global,local,750,H,H,A,E,H-A.png,E-H.png,hH,hH,mask-4.png,mask-2.png,h,1,0.3174275001510978,none,-5,0,0.09756510006263852,0.09721199981868267,0.20063330000266433,0.2001224998384714,0.7499538001138717
RSVPLG03,md,20260310-090151,1.0.2,20251105-084826,795,Introduction,T1,1,Automatic,main,15,20260310-091851,global,local,750,S,H,E,E,S-E.png,E-H.png,sS,hH,mask-4.png,mask-2.png,s,1,0.6304243998602033,none,-5,0,0.0975443001370877,0.0985954999923706,0.19825480016879737,0.1997440999839455,0.748333000112325
RSVPLG03,md,20260310-090151,1.0.2,20251105-084826,795,Introduction,T1,1,Automatic,main,16,20260310-091855,global,global,750,H,S,A,E,H-A.png,S-E.png,hH,sS,mask-4.png,mask-2.png,h,1,0.35360899986699224,none,-5,0,0.0984763999003917,0.09639690001495183,0.20042099989950657,0.1989462999626994,0.7505928999744356
RSVPLG03,md,20260310-091947,1.0.2,20251105-084826,795,Practice,T1,1,Automatic,main,1,20260310-092006,local,local,750,S,H,E,A,E-S.png,A-H.png,sS,hH,mask-4.png,mask-2.png,s,1,1.1321771000511944,none,-5,0,0.03997209994122386,0.047281499952077866,0.09307920001447201,0.09943909989669919,0.7433213000185788
RSVPLG03,md,20260310-091947,1.0.2,20251105-084826,795,Practice,T1,1,Automatic,main,2,20260310-092011,global,local,750,S,H,E,E,S-E.png,E-H.png,sS,hH,mask-2.png,mask-2.png,s,1,1.21225899993442,none,-5,0,0.04732760018669069,0.046968100126832724,0.10047820000909269,0.0992179000750184,0.7504505000542849
RSVPLG03,md,20260310-091947,1.0.2,20251105-084826,795,Practice,T1,1,Automatic,main,3,20260310-092017,global,local,750,S,S,E,A,S-E.png,A-S.png,sS,sS,mask-2.png,mask-1.png,s,1,1.0115504001732916,none,-5,0,0.04745459998957813,0.048753999872133136,0.09988179989159107,0.09994089999236166,0.7497199999634176
RSVPLG03,md,20260310-091947,1.0.2,20251105-084826,795,Practice,T1,1,Automatic,main,4,20260310-092022,local,local,750,S,H,A,E,A-S.png,E-H.png,sS,hH,mask-3.png,mask-1.png,h,0,0.7964290999807417,none,-5,0,0.04881139984354377,0.04771860013715923,0.1010177000425756,0.10092610004357994,0.7507094999309629
RSVPLG03,md,20260310-091947,1.0.2,20251105-084826,795,Practice,T1,1,Automatic,main,5,20260310-092027,local,global,750,S,S,E,E,E-S.png,S-E.png,sS,sS,mask-4.png,mask-2.png,s,1,0.9829196999780834,none,-5,0,0.047502300003543496,0.046999899903312325,0.09917080006562173,0.1000562000554055,0.750634100055322
RSVPLG03,md,20260310-091947,1.0.2,20251105-084826,795,Practice,T1,1,Automatic,main,6,20260310-092032,global,local,300,S,H,E,E,S-E.png,E-H.png,sS,hH,mask-2.png,mask-1.png,s,1,1.0885523001197726,none,-5,0,0.04776109987869859,0.047778399894014,0.09831599984318018,0.10091380006633699,0.29935629991814494
RSVPLG03,md,20260310-091947,1.0.2,20251105-084826,795,Practice,T1,1,Automatic,main,7,20260310-092036,local,local,300,S,S,E,A,E-S.png,A-S.png,sS,sS,mask-1.png,mask-1.png,s,1,1.4130677999928594,none,-5,0,0.04671400017105043,0.0477314000017941,0.09979940019547939,0.1001420000102371,0.2993741000536829
RSVPLG03,md,20260310-091947,1.0.2,20251105-084826,795,Practice,T1,1,Automatic,main,8,20260310-092041,global,global,750,S,S,A,A,S-A.png,S-A.png,sS,sS,mask-3.png,mask-2.png,s,1,0.7691669999621809,none,-5,0,0.045920100063085556,0.04767969995737076,0.09958819998428226,0.09987020003609359,0.7498896999750286
RSVPLG03,md,20260310-091947,1.0.2,20251105-084826,795,Practice,T1,1,Automatic,main,9,20260310-092046,global,global,750,H,S,A,E,H-A.png,S-E.png,hH,sS,mask-1.png,mask-3.png,h,1,0.42539500002749264,none,-5,0,0.04834680003114045,0.046705499989911914,0.09935880010016263,0.09977600001730025,0.7504835000727326
RSVPLG03,md,20260310-091947,1.0.2,20251105-084826,795,Practice,T1,1,Automatic,main,10,20260310-092051,global,global,300,H,S,E,E,H-E.png,S-E.png,hH,sS,mask-2.png,mask-3.png,h,1,0.8273142001125962,none,-5,0,0.04662970011122525,0.04851550003513694,0.09895910019986331,0.09954109997488558,0.2999076000414789
RSVPLG03,md,20260310-091947,1.0.2,20251105-084826,795,Practice,T1,1,Automatic,main,11,20260310-092055,global,local,300,H,H,A,E,H-A.png,E-H.png,hH,hH,mask-3.png,mask-4.png,h,1,0.6344920000992715,none,-5,0,0.04738810006529093,0.047588299959897995,0.09975349996238947,0.10058870003558695,0.29957909998483956
RSVPLG03,md,20260310-091947,1.0.2,20251105-084826,795,Practice,T1,1,Automatic,main,12,20260310-092100,global,global,300,H,S,E,A,H-E.png,S-A.png,hH,sS,mask-1.png,mask-2.png,h,1,0.5605739001184702,none,-5,0,0.04759670002385974,0.04731319984421134,0.09996069991029799,0.10028909984976053,0.30020470009185374
RSVPLG03,md,20260310-091947,1.0.2,20251105-084826,795,Practice,T1,1,Automatic,main,13,20260310-092104,local,global,300,H,H,A,E,A-H.png,H-E.png,hH,hH,mask-1.png,mask-1.png,h,1,0.5308989000041038,none,-5,0,0.04683899995870888,0.04651149990968406,0.10003089997917414,0.10034629981964827,0.3012698001693934
RSVPLG03,md,20260310-091947,1.0.2,20251105-084826,795,Practice,T1,1,Automatic,main,14,20260310-092108,local,local,300,S,S,E,A,E-S.png,A-S.png,sS,sS,mask-2.png,mask-2.png,s,1,0.6855872999876738,none,-5,0,0.04781780019402504,0.04670129995793104,0.10001880000345409,0.09989690012298524,0.30079000000841916
RSVPLG03,md,20260310-091947,1.0.2,20251105-084826,795,Practice,T1,1,Automatic,main,15,20260310-092112,local,global,300,H,S,A,E,A-H.png,S-E.png,hH,sS,mask-4.png,mask-4.png,h,1,0.47029019985347986,none,-5,0,0.04738910007290542,0.048177799908444285,0.09937390009872615,0.10020249988883734,0.29889299999922514
RSVPLG03,md,20260310-091947,1.0.2,20251105-084826,795,Practice,T1,1,Automatic,main,16,20260310-092116,local,global,750,S,H,A,A,A-S.png,H-A.png,sS,hH,mask-3.png,mask-3.png,s,1,0.6314920999575406,none,-5,0,0.0476580997928977,0.04752829996868968,0.09988569980487227,0.10156129999086261,0.7495193998329341
RSVPLG03,md,20260310-092309,1.0.2,20251105-084826,795,Practice,Both,1,Automatic,main,1,20260310-092350,local,local,300,S,H,A,E,A-S.png,E-H.png,sS,hH,mask-2.png,mask-2.png,s,1,2.967131100129336,h,1,1.0651853999588639,0.04698910005390644,0.04734699986875057,0.0982531001791358,0.10199399990960956,0.29869760014116764
RSVPLG03,md,20260310-092309,1.0.2,20251105-084826,795,Practice,Both,1,Automatic,main,2,20260310-092358,global,global,750,H,S,E,E,H-E.png,S-E.png,hH,sS,mask-2.png,mask-4.png,h,1,6.396540199872106,s,1,0.02194259990938008,0.04913170007057488,0.04750099987722933,0.1024845999199897,0.10084819979965687,0.7497175000607967
RSVPLG03,md,20260310-092309,1.0.2,20251105-084826,795,Practice,Both,1,Automatic,main,3,20260310-092408,local,global,300,H,H,A,E,A-H.png,H-E.png,hH,hH,mask-1.png,mask-2.png,h,1,1.804151700111106,s,0,1.9642435000278056,0.04783640010282397,0.047423999989405274,0.09961759997531772,0.09965110011398792,0.2999917999841273
RSVPLG03,md,20260310-092309,1.0.2,20251105-084826,795,Practice,Both,1,Automatic,main,4,20260310-092414,local,global,300,S,S,E,E,E-S.png,S-E.png,sS,sS,mask-2.png,mask-4.png,s,1,2.811812700005248,h,0,0.7823672997765243,0.046676999889314175,0.04665879998356104,0.09929509996436536,0.09866929985582829,0.3002593999262899
RSVPLG03,md,20260310-092309,1.0.2,20251105-084826,795,Practice,Both,1,Automatic,main,5,20260310-092421,global,local,750,S,S,E,E,S-E.png,E-S.png,sS,sS,mask-1.png,mask-3.png,h,0,5.043878600001335,s,1,0.07604239997453988,0.047188400058075786,0.04603619989939034,0.10202690004371107,0.10046999994665384,0.7497024000622332
RSVPLG03,md,20260310-092309,1.0.2,20251105-084826,795,Practice,Both,1,Automatic,main,6,20260310-092430,local,local,300,S,H,A,E,A-S.png,E-H.png,sS,hH,mask-1.png,mask-4.png,s,1,4.855553000001237,h,1,0.07863189978525043,0.04675629991106689,0.04914650018326938,0.09819519985467196,0.10057220002636313,0.29879629984498024
RSVPLG03,md,20260310-092309,1.0.2,20251105-084826,795,Practice,Both,1,Automatic,main,7,20260310-092439,global,global,300,H,H,A,A,H-A.png,H-A.png,hH,hH,mask-4.png,mask-4.png,h,1,2.319269699975848,s,0,1.017205199925229,0.047044500010088086,0.04573259991593659,0.102036900119856,0.09975419985130429,0.3025484001263976
RSVPLG03,md,20260310-092309,1.0.2,20251105-084826,795,Practice,Both,1,Automatic,main,8,20260310-092446,local,global,750,H,H,E,A,E-H.png,H-A.png,hH,hH,mask-3.png,mask-4.png,h,1,1.6483913999982178,s,0,0.9962100000120699,0.04728970001451671,0.04735479992814362,0.1005619999486953,0.09865149995312095,0.750076700001955
RSVPLG03,md,20260310-092309,1.0.2,20251105-084826,795,Practice,Both,1,Automatic,main,9,20260310-092453,global,local,300,S,S,E,E,S-E.png,E-S.png,sS,sS,mask-1.png,mask-3.png,s,1,3.461503200000152,h,0,0.9191650999709964,0.047211699886247516,0.04803319997154176,0.09976169979199767,0.09997800015844405,0.29885609983466566
RSVPLG03,md,20260310-092309,1.0.2,20251105-084826,795,Practice,Both,1,Automatic,main,10,20260310-092501,global,local,750,S,S,E,A,S-E.png,A-S.png,sS,sS,mask-1.png,mask-4.png,s,1,6.629949900088832,h,0,2.3349146000109613,0.04731089994311333,0.048381099943071604,0.10142469988204539,0.09960529999807477,0.7502772000152618
RSVPLG03,md,20260310-092309,1.0.2,20251105-084826,795,Practice,Both,1,Automatic,main,11,20260310-092515,local,local,750,S,S,A,E,A-S.png,E-S.png,sS,sS,mask-4.png,mask-1.png,s,1,3.660989800002426,s,1,0.8080158999655396,0.04812700022011995,0.04794679977931082,0.10005790018476546,0.09950799983926117,0.7503348002210259
RSVPLG03,md,20260310-092309,1.0.2,20251105-084826,795,Practice,Both,1,Automatic,main,12,20260310-092523,global,global,300,H,S,E,E,H-E.png,S-E.png,hH,sS,mask-1.png,mask-2.png,h,1,2.493242499884218,s,1,1.0659657001961023,0.046096199890598655,0.04682869999669492,0.09961369982920587,0.09905189997516572,0.2995452999603003
RSVPLG03,md,20260310-092309,1.0.2,20251105-084826,795,Practice,Both,1,Automatic,main,13,20260310-092531,local,global,750,H,S,A,A,A-H.png,S-A.png,hH,sS,mask-3.png,mask-2.png,s,0,3.0659294000361115,h,0,0.8451727000065148,0.046574899926781654,0.04781130002811551,0.10089889983646572,0.0999549999833107,0.7501735999248922
RSVPLG03,md,20260310-092309,1.0.2,20251105-084826,795,Practice,Both,1,Automatic,main,14,20260310-092539,global,global,750,H,H,A,A,H-A.png,H-A.png,hH,hH,mask-2.png,mask-1.png,h,1,3.689756100066006,h,1,0.3023427000734955,0.04731069994159043,0.04665470006875694,0.09984020004048944,0.10001550009474158,0.7504948999267071
RSVPLG03,md,20260310-092309,1.0.2,20251105-084826,795,Practice,Both,1,Automatic,main,15,20260310-092547,local,local,750,H,S,E,A,E-H.png,A-S.png,hH,sS,mask-1.png,mask-2.png,h,1,1.6140125000383705,s,1,0.4573603000026196,0.047238799976184964,0.04609069996513426,0.09888750012032688,0.09860009979456663,0.7491499001625925
RSVPLG03,md,20260310-092309,1.0.2,20251105-084826,795,Practice,Both,1,Automatic,main,16,20260310-092553,global,local,300,S,S,A,E,S-A.png,E-S.png,sS,sS,mask-1.png,mask-2.png,s,1,1.88258449989371,s,1,0.4543944001197815,0.049446600023657084,0.04653439996764064,0.10075450013391674,0.10050110006704926,0.3018839000724256
RSVPLG03,md,20260310-092632,1.0.2,20251105-084826,795,Practice,Both,1,Automatic,main,1,20260310-092650,global,global,750,H,S,A,E,H-A.png,S-E.png,hH,sS,mask-3.png,mask-3.png,h,1,0.9020777998957783,s,1,1.0496722999960184,0.04709669994190335,0.04921340011060238,0.09992059995420277,0.10270490008406341,0.7471140997949988
RSVPLG03,md,20260310-092632,1.0.2,20251105-084826,795,Practice,Both,1,Automatic,main,2,20260310-092656,local,local,300,H,H,A,E,A-H.png,E-H.png,hH,hH,mask-3.png,mask-1.png,h,1,1.511562000028789,h,1,0.31503080017864704,0.04708079993724823,0.04770039999857545,0.10053930012509227,0.10125629999674857,0.2993771000765264
RSVPLG03,md,20260310-092632,1.0.2,20251105-084826,795,Practice,Both,1,Automatic,main,3,20260310-092702,local,global,750,H,S,E,A,E-H.png,S-A.png,hH,sS,mask-4.png,mask-4.png,h,1,1.1911824999842793,s,1,0.7737871001008898,0.04615180008113384,0.04793489980511367,0.09827389987185597,0.1018245997838676,0.7480695000849664
RSVPLG03,md,20260310-092632,1.0.2,20251105-084826,795,Practice,Both,1,Automatic,main,4,20260310-092708,global,global,300,H,S,A,E,H-A.png,S-E.png,hH,sS,mask-1.png,mask-2.png,h,1,0.8165728999301791,s,1,0.49438940011896193,0.04669780004769564,0.04815619997680187,0.09989630011841655,0.10134440008550882,0.2986473001074046
RSVPLG03,md,20260310-092632,1.0.2,20251105-084826,795,Practice,Both,1,Automatic,main,5,20260310-092713,global,local,300,S,S,A,E,S-A.png,E-S.png,sS,sS,mask-1.png,mask-1.png,s,1,1.2514154000673443,s,1,0.382515300065279,0.0477082000579685,0.04786940012127161,0.10042789997532964,0.10122589999809861,0.298677199985832
RSVPLG03,md,20260310-092632,1.0.2,20251105-084826,795,Practice,Both,1,Automatic,main,6,20260310-092719,local,global,300,H,H,A,A,A-H.png,H-A.png,hH,hH,mask-3.png,mask-3.png,h,1,0.8340137000195682,s,0,0.7667396999895573,0.04682620009407401,0.0472915000282228,0.09862860012799501,0.09899979992769659,0.3000260000117123
RSVPLG03,md,20260310-092632,1.0.2,20251105-084826,795,Practice,Both,1,Automatic,main,7,20260310-092724,global,global,750,S,S,E,E,S-E.png,S-E.png,sS,sS,mask-4.png,mask-1.png,s,1,2.029066599905491,s,1,0.13832750008441508,0.04738739994354546,0.0479846999514848,0.098659300012514,0.10233450005762279,0.7472212999127805
RSVPLG03,md,20260310-092632,1.0.2,20251105-084826,795,Practice,Both,1,Automatic,main,8,20260310-092730,local,local,750,S,S,E,E,E-S.png,E-S.png,sS,sS,mask-4.png,mask-3.png,s,1,2.2428385000675917,s,1,0.1799503001384437,0.04626460000872612,0.05045169987715781,0.0997602001298219,0.10202199988998473,0.7459728000685573
RSVPLG03,md,20260310-092632,1.0.2,20251105-084826,795,Practice,Both,1,Automatic,main,9,20260310-092737,local,global,300,S,S,A,E,A-S.png,S-E.png,sS,sS,mask-1.png,mask-1.png,s,1,0.6464875999372452,s,1,0.4917228000704199,0.04825290013104677,0.047660900047048926,0.101864900207147,0.10091380006633699,0.300652600126341
RSVPLG03,md,20260310-092632,1.0.2,20251105-084826,795,Practice,Both,1,Automatic,main,10,20260310-092742,local,global,750,S,S,A,E,A-S.png,S-E.png,sS,sS,mask-4.png,mask-4.png,s,1,1.2914557999465615,s,1,0.3648496998939663,0.04827289981767535,0.046290099853649735,0.10085519985295832,0.10070009995251894,0.7508886000141501
RSVPLG03,md,20260310-092632,1.0.2,20251105-084826,795,Practice,Both,1,Automatic,main,11,20260310-092747,global,local,750,H,S,E,A,H-E.png,A-S.png,hH,sS,mask-4.png,mask-3.png,h,1,0.6029306999407709,s,1,0.5087262000888586,0.04649160010740161,0.04836989985778928,0.09913180000148714,0.10084649990312755,0.7481257000472397
RSVPLG03,md,20260310-092632,1.0.2,20251105-084826,795,Practice,Both,1,Automatic,main,12,20260310-092753,global,global,300,H,S,E,A,H-E.png,S-A.png,hH,sS,mask-3.png,mask-1.png,h,1,0.9089814000762999,s,1,0.46090080006979406,0.04546849988400936,0.048562000039964914,0.09772800002247095,0.10080459993332624,0.2961315999273211
RSVPLG03,md,20260310-092632,1.0.2,20251105-084826,795,Practice,Both,1,Automatic,main,13,20260310-092758,local,local,750,S,S,E,E,E-S.png,E-S.png,sS,sS,mask-2.png,mask-4.png,s,1,0.8261463998351246,s,1,0.27050359989516437,0.04720539995469153,0.048224200028926134,0.10041110008023679,0.09970470005646348,0.7488605999387801
RSVPLG03,md,20260310-092632,1.0.2,20251105-084826,795,Practice,Both,1,Automatic,main,14,20260310-092803,global,local,300,H,H,A,A,H-A.png,A-H.png,hH,hH,mask-2.png,mask-3.png,h,1,1.5835812999866903,h,1,0.23851830000057817,0.04553809994831681,0.04572090017609298,0.09785809996537864,0.09794530016370118,0.29919269983656704
RSVPLG03,md,20260310-092632,1.0.2,20251105-084826,795,Practice,Both,1,Automatic,main,15,20260310-092809,local,local,300,S,H,E,A,E-S.png,A-H.png,sS,hH,mask-4.png,mask-1.png,s,1,0.5130036000628024,h,1,0.1910365999210626,0.04460519994609058,0.04840849991887808,0.09821570012718439,0.10235929978080094,0.29626970016397536
RSVPLG03,md,20260310-092632,1.0.2,20251105-084826,795,Practice,Both,1,Automatic,main,16,20260310-092813,global,local,750,H,H,E,E,H-E.png,E-H.png,hH,hH,mask-2.png,mask-1.png,h,1,1.0793120998423547,s,0,0.2617316998075694,0.048472899943590164,0.046954100020229816,0.10217939992435277,0.10047350008971989,0.7500057998113334
RSVPLG03,md,20260310-092957,1.0.2,20251105-084826,795,Experiment,Both,1,Automatic,warmup,1,20260310-093127,local,global,300,H,H,E,A,E-H.png,H-A.png,hH,hH,mask-3.png,mask-3.png,h,1,1.904768800130114,s,0,0.3911154998932034,0.04606380010955036,0.0476259000133723,0.09894910012371838,0.10099730012007058,0.2977370999287814
RSVPLG03,md,20260310-092957,1.0.2,20251105-084826,795,Experiment,Both,1,Automatic,warmup,2,20260310-093133,global,global,750,S,S,E,A,S-E.png,S-A.png,sS,sS,mask-3.png,mask-3.png,s,1,0.668567799963057,s,1,0.28755160002037883,0.04697939986363053,0.046290399972349405,0.10096109984442592,0.0981598999351263,0.7504779999144375
RSVPLG03,md,20260310-092957,1.0.2,20251105-084826,795,Experiment,Both,1,Automatic,warmup,3,20260310-093138,local,local,300,S,S,A,A,A-S.png,A-S.png,sS,sS,mask-2.png,mask-1.png,s,1,1.265476199798286,h,0,0.2551020001992583,0.04841000004671514,0.046881699934601784,0.100576400058344,0.0992195000872016,0.2998999000992626
RSVPLG03,md,20260310-092957,1.0.2,20251105-084826,795,Experiment,Both,1,Automatic,warmup,4,20260310-093144,global,local,300,S,S,E,A,S-E.png,A-S.png,sS,sS,mask-2.png,mask-3.png,s,1,1.2365524999331683,s,1,0.2714162999764085,0.04670779989100993,0.04652850003913045,0.09989559999667108,0.10087540000677109,0.2991565999109298
RSVPLG03,md,20260310-092957,1.0.2,20251105-084826,795,Experiment,Both,1,Automatic,main,5,20260310-093149,local,local,750,H,S,E,E,E-H.png,E-S.png,hH,sS,mask-1.png,mask-1.png,s,0,1.1579493000172079,h,0,0.2948449000250548,0.047725999960675836,0.04838319984264672,0.09993480006232858,0.1009366000071168,0.7481367001309991
RSVPLG03,md,20260310-092957,1.0.2,20251105-084826,795,Experiment,Both,1,Automatic,main,6,20260310-093154,local,global,300,H,S,A,A,A-H.png,S-A.png,hH,sS,mask-1.png,mask-2.png,h,1,0.9195560999214649,s,1,0.7070585999172181,0.04733900004066527,0.045272500021383166,0.09907810017466545,0.09979989985004067,0.30209580017253757
RSVPLG03,md,20260310-092957,1.0.2,20251105-084826,795,Experiment,Both,1,Automatic,main,7,20260310-093200,local,global,300,S,S,A,A,A-S.png,S-A.png,sS,sS,mask-4.png,mask-3.png,s,1,1.0837524000089616,s,1,0.5693288999609649,0.047824200009927154,0.04470900003798306,0.10024149995297194,0.09718239982612431,0.30116949998773634
RSVPLG03,md,20260310-092957,1.0.2,20251105-084826,795,Experiment,Both,1,Automatic,main,8,20260310-093205,global,global,750,H,S,E,A,H-E.png,S-A.png,hH,sS,mask-1.png,mask-1.png,h,1,0.625077199889347,s,1,0.11939900019206107,0.046379399951547384,0.04813089990057051,0.09864749992266297,0.09962989995256066,0.7470611999742687
RSVPLG03,md,20260310-092957,1.0.2,20251105-084826,795,Experiment,Both,1,Automatic,main,9,20260310-093210,global,global,300,H,S,A,A,H-A.png,S-A.png,hH,sS,mask-3.png,mask-1.png,h,1,0.7165890999604017,s,1,0.10028090002015233,0.0504766998346895,0.04734380007721484,0.10260439990088344,0.09975740010850132,0.30019079986959696
RSVPLG03,md,20260310-092957,1.0.2,20251105-084826,795,Experiment,Both,1,Automatic,main,10,20260310-093214,local,local,750,S,H,A,E,A-S.png,E-H.png,sS,hH,mask-4.png,mask-1.png,s,1,0.7467867999803275,h,1,0.07542779995128512,0.04633749998174608,0.044574299827218056,0.10184219991788268,0.09706479986198246,0.7506216999609023
RSVPLG03,md,20260310-092957,1.0.2,20251105-084826,795,Experiment,Both,1,Automatic,main,11,20260310-093219,local,global,300,H,S,E,A,E-H.png,S-A.png,hH,sS,mask-4.png,mask-3.png,h,1,0.5948183001019061,s,1,0.0947586998809129,0.048495199996978045,0.04914759984239936,0.10268389992415905,0.10078380000777543,0.3003173000179231
RSVPLG03,md,20260310-092957,1.0.2,20251105-084826,795,Experiment,Both,1,Automatic,main,12,20260310-093223,global,global,300,H,S,A,E,H-A.png,S-E.png,hH,sS,mask-4.png,mask-2.png,h,1,0.6691165000665933,s,1,0.09360149991698563,0.045358699979260564,0.04563469998538494,0.09907700004987419,0.09964759997092187,0.3001290999818593
RSVPLG03,md,20260310-092957,1.0.2,20251105-084826,795,Experiment,Both,1,Automatic,main,13,20260310-093228,global,local,300,H,S,A,E,H-A.png,E-S.png,hH,sS,mask-3.png,mask-3.png,h,1,0.916343999793753,s,1,0.08724829996936023,0.04706189990974963,0.04930289997719228,0.09953209990635514,0.10061530000530183,0.30012529995292425
RSVPLG03,md,20260310-092957,1.0.2,20251105-084826,795,Experiment,Both,1,Automatic,main,14,20260310-093232,global,local,750,S,H,A,E,S-A.png,E-H.png,sS,hH,mask-4.png,mask-4.png,s,1,0.7239536999259144,s,0,0.0791911999695003,0.04700109991244972,0.04555580019950867,0.10002369992434978,0.10102850012481213,0.748156099813059
RSVPLG03,md,20260310-092957,1.0.2,20251105-084826,795,Experiment,Both,1,Automatic,main,15,20260310-093237,global,local,300,S,S,E,A,S-E.png,A-S.png,sS,sS,mask-2.png,mask-3.png,s,1,1.187835199991241,s,1,0.09513130015693605,0.04636839986778796,0.0459996999707073,0.09808649984188378,0.09975930000655353,0.29860439989715815
RSVPLG03,md,20260310-092957,1.0.2,20251105-084826,795,Experiment,Both,1,Automatic,main,16,20260310-093242,global,global,300,H,H,A,E,H-A.png,H-E.png,hH,hH,mask-4.png,mask-4.png,h,1,1.8215099999215454,h,1,0.09543959982693195,0.04759660013951361,0.04651529993861914,0.09897250006906688,0.09922939981333911,0.3001207001507282
RSVPLG03,md,20260310-092957,1.0.2,20251105-084826,795,Experiment,Both,1,Automatic,main,17,20260310-093248,local,global,750,S,S,A,A,A-S.png,S-A.png,sS,sS,mask-4.png,mask-4.png,s,1,4.386080699972808,h,0,0.2122317999601364,0.04615670000202954,0.04643069999292493,0.09872950008139014,0.09974119998514652,0.7497446001507342
RSVPLG03,md,20260310-092957,1.0.2,20251105-084826,795,Experiment,Both,1,Automatic,main,18,20260310-093257,global,global,300,H,S,A,E,H-A.png,S-E.png,hH,sS,mask-3.png,mask-2.png,s,0,2.4284647998865694,h,0,0.1427951999939978,0.04497910011559725,0.048096399987116456,0.10013000015169382,0.10050009982660413,0.2982219001278281
RSVPLG03,md,20260310-092957,1.0.2,20251105-084826,795,Experiment,Both,1,Automatic,main,19,20260310-093303,global,global,300,S,S,A,A,S-A.png,S-A.png,sS,sS,mask-1.png,mask-2.png,s,1,1.1970756999216974,h,0,9.095566499978304,0.045927900122478604,0.04704919992946088,0.09831330017186701,0.09861740004271269,0.298899200046435
RSVPLG03,md,20260310-092957,1.0.2,20251105-084826,795,Experiment,Both,1,Automatic,main,20,20260310-093317,local,local,300,H,S,E,A,E-H.png,A-S.png,hH,sS,mask-4.png,mask-1.png,s,0,1.5251762999687344,h,0,0.46969800000078976,0.04825440002605319,0.04667810001410544,0.10068109980784357,0.09986179997213185,0.3010205999016762
RSVPLG03,md,20260310-092957,1.0.2,20251105-084826,795,Experiment,Both,1,Automatic,main,21,20260310-093323,local,local,300,H,S,E,A,E-H.png,A-S.png,hH,sS,mask-3.png,mask-3.png,h,1,0.7213848000392318,s,1,0.29214669996872544,0.04814610001631081,0.046751399990171194,0.10140100005082786,0.09883540007285774,0.30121099995449185
RSVPLG03,md,20260310-092957,1.0.2,20251105-084826,795,Experiment,Both,1,Automatic,main,22,20260310-093328,local,local,300,S,S,E,E,E-S.png,E-S.png,sS,sS,mask-1.png,mask-1.png,s,1,1.0539609000552446,s,1,0.0873102000914514,0.0472250001039356,0.048240300035104156,0.10063489992171526,0.10124260000884533,0.2981634000316262
RSVPLG03,md,20260310-092957,1.0.2,20251105-084826,795,Experiment,Both,1,Automatic,main,23,20260310-093332,global,local,750,S,H,A,E,S-A.png,E-H.png,sS,hH,mask-2.png,mask-4.png,s,1,1.616855900036171,h,1,0.20381950004957616,0.04737560008652508,0.04641920002177358,0.09980500000528991,0.0996580000501126,0.7480170999187976
RSVPLG03,md,20260310-092957,1.0.2,20251105-084826,795,Experiment,Both,1,Automatic,main,24,20260310-093338,local,local,300,S,S,A,E,A-S.png,E-S.png,sS,sS,mask-4.png,mask-4.png,s,1,0.4805360999889672,s,1,0.1880697999149561,0.04571649990975857,0.04836169979535043,0.09960950003005564,0.10130019998177886,0.29681670013815165
RSVPLG03,md,20260310-092957,1.0.2,20251105-084826,795,Experiment,Both,1,Automatic,main,25,20260310-093343,local,local,300,H,S,E,E,E-H.png,E-S.png,hH,sS,mask-3.png,mask-3.png,h,1,0.6437300001271069,s,1,0.05378509988076985,0.047236999962478876,0.04816389991901815,0.10042909998446703,0.09858250012621284,0.2993471999652684
RSVPLG03,md,20260310-092957,1.0.2,20251105-084826,795,Experiment,Both,1,Automatic,main,26,20260310-093350,global,local,750,S,H,E,E,S-E.png,E-H.png,sS,hH,mask-1.png,mask-4.png,h,0,2.571613100124523,s,0,0.07835500012151897,0.04443329991772771,0.04606190021149814,0.09743100008927286,0.09839940001256764,0.7464683998841792
RSVPLG03,md,20260310-092957,1.0.2,20251105-084826,795,Experiment,Both,1,Automatic,main,27,20260310-093357,local,local,750,S,S,A,E,A-S.png,E-S.png,sS,sS,mask-1.png,mask-2.png,h,0,2.1716519999317825,s,1,0.0626638000831008,0.04678789991885424,0.04611489991657436,0.09878630004823208,0.09973299992270768,0.7464515001047403
RSVPLG03,md,20260310-092957,1.0.2,20251105-084826,795,Experiment,Both,1,Automatic,main,28,20260310-093403,global,global,750,H,S,A,E,H-A.png,S-E.png,hH,sS,mask-1.png,mask-1.png,h,1,10.11835390003398,s,1,0.10084230010397732,0.047546999994665384,0.0478175999596715,0.10007290006615222,0.10063849994912744,0.749422200024128
RSVPLG03,md,20260310-092957,1.0.2,20251105-084826,795,Experiment,Both,1,Automatic,main,29,20260310-093417,global,local,300,H,H,E,A,H-E.png,A-H.png,hH,hH,mask-3.png,mask-2.png,h,1,1.3751868000254035,h,1,0.08700549998320639,0.047279899939894676,0.04645260004326701,0.09962360002100468,0.09895820007659495,0.30002179997973144
RSVPLG03,md,20260310-092957,1.0.2,20251105-084826,795,Experiment,Both,1,Automatic,main,30,20260310-093423,local,local,300,H,S,E,E,E-H.png,E-S.png,hH,sS,mask-2.png,mask-4.png,s,0,3.2965508999768645,h,0,0.12313760002143681,0.046505399979650974,0.046748099848628044,0.0997681999579072,0.09833619999699295,0.2989028000738472
RSVPLG03,md,20260310-092957,1.0.2,20251105-084826,795,Experiment,Both,1,Automatic,main,31,20260310-093430,global,global,750,S,H,A,A,S-A.png,H-A.png,sS,hH,mask-2.png,mask-4.png,s,1,0.6411432002205402,h,1,0.2148381001316011,0.046191600151360035,0.04462790000252426,0.09966140007600188,0.099849299993366,0.7489320000167936
RSVPLG03,md,20260310-092957,1.0.2,20251105-084826,795,Experiment,Both,1,Automatic,main,32,20260310-093435,global,local,300,H,H,E,E,H-E.png,E-H.png,hH,hH,mask-3.png,mask-1.png,h,1,0.6102181000169367,s,0,0.06395900016650558,0.047497100196778774,0.04702009982429445,0.0981513001024723,0.0999450997915119,0.29904300021007657
RSVPLG03,md,20260310-092957,1.0.2,20251105-084826,795,Experiment,Both,1,Automatic,main,33,20260310-093439,global,global,300,H,S,E,A,H-E.png,S-A.png,hH,sS,mask-2.png,mask-2.png,h,1,0.6888098998460919,s,1,0.047821100102737546,0.047857699915766716,0.047096800059080124,0.09975480008870363,0.10065030003897846,0.2991069999989122
RSVPLG03,md,20260310-092957,1.0.2,20251105-084826,795,Experiment,Both,1,Automatic,main,34,20260310-093443,global,local,300,S,H,E,E,S-E.png,E-H.png,sS,hH,mask-1.png,mask-4.png,s,1,0.7840841999277472,s,0,0.137133700074628,0.04669019998982549,0.04731990001164377,0.09787370008416474,0.099319500150159,0.30022430000826716
RSVPLG03,md,20260310-092957,1.0.2,20251105-084826,795,Experiment,Both,1,Automatic,main,35,20260310-093448,local,global,750,S,H,A,E,A-S.png,H-E.png,sS,hH,mask-3.png,mask-3.png,s,1,1.536520600086078,h,1,0.014573700027540326,0.0471715999301523,0.04738430003635585,0.10139640001580119,0.09925560001283884,0.7498810000251979
RSVPLG03,md,20260310-092957,1.0.2,20251105-084826,795,Experiment,Both,1,Automatic,main,36,20260310-093454,global,local,750,S,H,A,E,S-A.png,E-H.png,sS,hH,mask-1.png,mask-3.png,h,0,1.037371899932623,s,0,1.1358161000534892,0.04758009989745915,0.04641310009174049,0.10083210002630949,0.0996628999710083,0.7502232999540865
RSVPLG03,md,20260310-092957,1.0.2,20251105-084826,795,Experiment,Both,1,Automatic,main,37,20260310-093500,local,global,300,H,H,E,E,E-H.png,H-E.png,hH,hH,mask-1.png,mask-2.png,s,0,2.332481099991128,s,0,0.22245440003462136,0.04582719993777573,0.04567050002515316,0.0989314999897033,0.09968710015527904,0.2992962999269366
RSVPLG03,md,20260310-092957,1.0.2,20251105-084826,795,Experiment,Both,1,Automatic,main,38,20260310-093506,local,local,750,H,S,A,E,A-H.png,E-S.png,hH,sS,mask-2.png,mask-4.png,h,1,0.44506760011427104,s,1,0.02916349982842803,0.04681889992207289,0.04667939990758896,0.09965150011703372,0.09915369981899858,0.7491465001367033
RSVPLG03,md,20260310-092957,1.0.2,20251105-084826,795,Experiment,Both,1,Automatic,main,39,20260310-093511,local,global,750,S,S,E,A,E-S.png,S-A.png,sS,sS,mask-4.png,mask-1.png,s,1,0.7359043001197278,h,0,0.5202732998877764,0.04748580022715032,0.04718010011129081,0.10045310016721487,0.1016869000159204,0.7487602001056075
RSVPLG03,md,20260310-092957,1.0.2,20251105-084826,795,Experiment,Both,1,Automatic,main,40,20260310-093516,global,global,750,S,S,A,A,S-A.png,S-A.png,sS,sS,mask-2.png,mask-1.png,s,1,0.9428826000075787,s,1,0.18512470019049942,0.04843179997988045,0.046578300185501575,0.09979140013456345,0.0991085001733154,0.7493795999325812
RSVPLG03,md,20260310-092957,1.0.2,20251105-084826,795,Experiment,Both,1,Automatic,main,41,20260310-093522,global,global,750,H,H,A,A,H-A.png,H-A.png,hH,hH,mask-1.png,mask-4.png,h,1,0.4476455000694841,h,1,0.10627819993533194,0.04801909998059273,0.04680380015634,0.10138559993356466,0.09941100003197789,0.7492026998661458
RSVPLG03,md,20260310-092957,1.0.2,20251105-084826,795,Experiment,Both,1,Automatic,main,42,20260310-093526,local,global,750,H,H,E,E,E-H.png,H-E.png,hH,hH,mask-1.png,mask-4.png,h,1,1.4516495000571012,s,0,0.13717380003072321,0.044533600099384785,0.04542889981530607,0.09659150009974837,0.09688909980468452,0.7481113001704216
RSVPLG03,md,20260310-092957,1.0.2,20251105-084826,795,Experiment,Both,1,Automatic,main,43,20260310-093532,local,global,750,S,S,E,E,E-S.png,S-E.png,sS,sS,mask-3.png,mask-1.png,s,1,2.606105800019577,s,1,0.3034159999806434,0.04718789993785322,0.047464200062677264,0.10026469989679754,0.09929349995218217,0.7485660999082029
RSVPLG03,md,20260310-092957,1.0.2,20251105-084826,795,Experiment,Both,1,Automatic,main,44,20260310-093539,global,local,300,H,S,A,E,H-A.png,E-S.png,hH,sS,mask-2.png,mask-1.png,h,1,0.5972781998571008,s,1,0.02641239995136857,0.04738499992527068,0.048368100076913834,0.0999115000013262,0.09970350004732609,0.29789619985967875
RSVPLG03,md,20260310-092957,1.0.2,20251105-084826,795,Experiment,Both,1,Automatic,main,45,20260310-093544,global,global,300,H,S,E,E,H-E.png,S-E.png,hH,sS,mask-3.png,mask-4.png,h,1,0.37126350007019937,s,1,0.005765300011262298,0.04869159986265004,0.046091699972748756,0.10148909990675747,0.09925890015438199,0.3033025998156518
RSVPLG03,md,20260310-092957,1.0.2,20251105-084826,795,Experiment,Both,1,Automatic,main,46,20260310-093548,local,local,300,S,S,A,E,A-S.png,E-S.png,sS,sS,mask-2.png,mask-1.png,s,1,1.0936422999948263,s,1,0.14360089995898306,0.04805770004168153,0.046218100003898144,0.10219510016031563,0.09753340017050505,0.3023649000097066
RSVPLG03,md,20260310-092957,1.0.2,20251105-084826,795,Experiment,Both,1,Automatic,main,47,20260310-093553,local,local,750,H,S,A,A,A-H.png,A-S.png,hH,sS,mask-3.png,mask-1.png,h,1,0.21857300004921854,s,1,0.07853400008752942,0.047973299864679575,0.046047299867495894,0.1005656998604536,0.09977529989555478,0.7490369000006467
RSVPLG03,md,20260310-092957,1.0.2,20251105-084826,795,Experiment,Both,1,Automatic,main,48,20260310-093557,global,global,750,S,H,E,E,S-E.png,H-E.png,sS,hH,mask-2.png,mask-2.png,s,1,2.591862899949774,s,0,0.029019800014793873,0.049297000048682094,0.046612099977210164,0.10181410005316138,0.09698639996349812,0.7517250999808311
RSVPLG03,md,20260310-092957,1.0.2,20251105-084826,795,Experiment,Both,1,Automatic,main,49,20260310-093604,local,global,300,H,S,A,A,A-H.png,S-A.png,hH,sS,mask-3.png,mask-2.png,h,1,0.4034450000617653,s,1,0.10394069994799793,0.04734300007112324,0.04743210016749799,0.09902400011196733,0.10071060014888644,0.29931239993311465
RSVPLG03,md,20260310-092957,1.0.2,20251105-084826,795,Experiment,Both,1,Automatic,main,50,20260310-093608,local,local,750,S,H,E,A,E-S.png,A-H.png,sS,hH,mask-4.png,mask-3.png,s,1,2.155799499945715,h,1,0.1062943001743406,0.048467300133779645,0.04526299983263016,0.1009514001198113,0.09771769982762635,0.7500669001601636
RSVPLG03,md,20260310-092957,1.0.2,20251105-084826,795,Experiment,Both,1,Automatic,main,51,20260310-093635,global,local,750,H,H,E,E,H-E.png,E-H.png,hH,hH,mask-1.png,mask-4.png,s,0,0.7491850000806153,s,0,0.07849580002948642,0.048189799999818206,0.046761699952185154,0.09946800000034273,0.09828689997084439,0.7501177000813186
RSVPLG03,md,20260310-092957,1.0.2,20251105-084826,795,Experiment,Both,1,Automatic,main,52,20260310-093640,local,global,750,S,H,A,A,A-S.png,H-A.png,sS,hH,mask-3.png,mask-4.png,s,1,0.7852990000974387,h,1,0.03890189994126558,0.048102400032803416,0.04710030020214617,0.1000367000233382,0.09950830019079149,0.7483621998690069
RSVPLG03,md,20260310-092957,1.0.2,20251105-084826,795,Experiment,Both,1,Automatic,main,53,20260310-093645,local,local,750,S,S,A,E,A-S.png,E-S.png,sS,sS,mask-1.png,mask-1.png,s,1,0.6237101999577135,s,1,0.08911990001797676,0.04540989990346134,0.04522580001503229,0.09794780006632209,0.0966582999099046,0.7501821999903768
RSVPLG03,md,20260310-092957,1.0.2,20251105-084826,795,Experiment,Both,1,Automatic,main,54,20260310-093650,global,global,750,H,H,E,E,H-E.png,H-E.png,hH,hH,mask-3.png,mask-4.png,h,1,0.5327460998669267,h,1,0.0633417998906225,0.04837119998410344,0.046633899910375476,0.09975120006129146,0.09933579992502928,0.7495661000721157
RSVPLG03,md,20260310-092957,1.0.2,20251105-084826,795,Experiment,Both,1,Automatic,main,55,20260310-093655,local,global,300,S,H,A,A,A-S.png,H-A.png,sS,hH,mask-3.png,mask-4.png,s,1,0.40947000007145107,s,0,0.11970410007052124,0.046271200058981776,0.047416300047189,0.09985919995233417,0.10073500010184944,0.29811799991875887
RSVPLG03,md,20260310-092957,1.0.2,20251105-084826,795,Experiment,Both,1,Automatic,main,56,20260310-093659,global,local,300,S,H,A,A,S-A.png,A-H.png,sS,hH,mask-2.png,mask-2.png,h,0,0.8637339998967946,s,0,0.1570108998566866,0.04707209998741746,0.046897599939256907,0.09980629989877343,0.09888929990120232,0.2990500999148935
RSVPLG03,md,20260310-092957,1.0.2,20251105-084826,795,Experiment,Both,1,Automatic,main,57,20260310-093704,global,local,750,H,H,A,A,H-A.png,A-H.png,hH,hH,mask-1.png,mask-1.png,h,1,0.480207699816674,h,1,0.348299500066787,0.04703029990196228,0.04456680011935532,0.1001068998593837,0.09830270009115338,0.7501653998624533
RSVPLG03,md,20260310-092957,1.0.2,20251105-084826,795,Experiment,Both,1,Automatic,main,58,20260310-093709,local,global,300,S,H,E,A,E-S.png,H-A.png,sS,hH,mask-2.png,mask-2.png,s,1,0.8738501998595893,s,0,0.07297830004245043,0.04833559994585812,0.047282300191000104,0.10135919996537268,0.09978220006451011,0.3010431998409331
RSVPLG03,md,20260310-092957,1.0.2,20251105-084826,795,Experiment,Both,1,Automatic,main,59,20260310-093713,global,local,300,H,H,A,E,H-A.png,E-H.png,hH,hH,mask-2.png,mask-4.png,h,1,0.4457078999839723,s,0,0.20610309997573495,0.048256499925628304,0.045263499952852726,0.10015159985050559,0.09972719987854362,0.3009118000045419
RSVPLG03,md,20260310-092957,1.0.2,20251105-084826,795,Experiment,Both,1,Automatic,main,60,20260310-093718,local,local,300,S,H,A,E,A-S.png,E-H.png,sS,hH,mask-2.png,mask-4.png,s,1,0.7058899998664856,s,0,0.041367300087586045,0.04823249997571111,0.04739430011250079,0.09994459990411997,0.10038050008006394,0.30035629984922707
RSVPLG03,md,20260310-092957,1.0.2,20251105-084826,795,Experiment,Both,1,Automatic,main,61,20260310-093722,local,global,300,H,S,E,A,E-H.png,S-A.png,hH,sS,mask-3.png,mask-4.png,h,1,1.7286288999021053,s,1,0.031122199958190322,0.04727400001138449,0.047316799871623516,0.09891719999723136,0.10023529990576208,0.30137789994478226
RSVPLG03,md,20260310-092957,1.0.2,20251105-084826,795,Experiment,Both,1,Automatic,main,62,20260310-093727,global,local,300,S,S,E,A,S-E.png,A-S.png,sS,sS,mask-1.png,mask-1.png,s,1,1.8304394998122007,h,0,0.27021149988286197,0.047042999882251024,0.04606570000760257,0.10075789992697537,0.09959349990822375,0.30230499990284443
RSVPLG03,md,20260310-092957,1.0.2,20251105-084826,795,Experiment,Both,1,Automatic,main,63,20260310-093733,global,local,750,H,H,E,A,H-E.png,A-H.png,hH,hH,mask-1.png,mask-2.png,h,1,1.40562399988994,s,0,0.19793300004675984,0.04664109996519983,0.04416809999383986,0.09922019997611642,0.09964859997853637,0.7492693001404405
RSVPLG03,md,20260310-092957,1.0.2,20251105-084826,795,Experiment,Both,1,Automatic,main,64,20260310-093739,global,local,750,S,S,E,E,S-E.png,E-S.png,sS,sS,mask-4.png,mask-1.png,s,1,1.1211531998123974,s,1,1.7529585999436677,0.04783990001305938,0.047644299920648336,0.10038569988682866,0.09889440005645156,0.749010399915278
RSVPLG03,md,20260310-092957,1.0.2,20251105-084826,795,Experiment,Both,1,Automatic,main,65,20260310-093746,global,local,750,H,S,E,A,H-E.png,A-S.png,hH,sS,mask-4.png,mask-1.png,h,1,0.445581000065431,h,0,0.4248912001494318,0.047704000025987625,0.046418100129812956,0.1003861001227051,0.0981374999973923,0.7487947000190616
RSVPLG03,md,20260310-092957,1.0.2,20251105-084826,795,Experiment,Both,1,Automatic,main,66,20260310-093751,local,global,300,S,S,E,E,E-S.png,S-E.png,sS,sS,mask-2.png,mask-2.png,s,1,1.1241258000954986,s,1,0.39181079994887114,0.045626699924468994,0.047515599988400936,0.0995189999230206,0.09984669997356832,0.2993706001434475
RSVPLG03,md,20260310-092957,1.0.2,20251105-084826,795,Experiment,Both,1,Automatic,main,67,20260310-093756,local,local,750,H,S,A,E,A-H.png,E-S.png,hH,sS,mask-3.png,mask-1.png,h,1,0.5097678999882191,s,1,0.01289119990542531,0.04837269987910986,0.04800450010225177,0.10091449995525181,0.09995530010201037,0.7504296998959035
RSVPLG03,md,20260310-092957,1.0.2,20251105-084826,795,Experiment,Both,1,Automatic,main,68,20260310-093801,global,global,750,S,S,E,E,S-E.png,S-E.png,sS,sS,mask-4.png,mask-3.png,s,1,1.8735968000255525,s,1,0.0587394000031054,0.04685440007597208,0.046771999914199114,0.10048569994978607,0.10038129985332489,0.7480768000241369
RSVPLG03,md,20260310-092957,1.0.2,20251105-084826,795,Experiment,Both,1,Automatic,main,69,20260310-093807,local,global,750,H,S,E,A,E-H.png,S-A.png,hH,sS,mask-1.png,mask-3.png,h,1,0.6563630001619458,h,0,0.7442876000422984,0.046267599798738956,0.04476199997588992,0.09934399998746812,0.09830720000900328,0.7492584998253733
RSVPLG03,md,20260310-092957,1.0.2,20251105-084826,795,Experiment,Both,1,Automatic,main,70,20260310-093813,local,global,300,H,S,A,A,A-H.png,S-A.png,hH,sS,mask-4.png,mask-4.png,h,1,0.7048566001467407,s,1,0.9834169000387192,0.047475799918174744,0.04642609995789826,0.09991139988414943,0.09894219995476305,0.3001568999607116
RSVPLG03,md,20260310-092957,1.0.2,20251105-084826,795,Experiment,Both,1,Automatic,main,71,20260310-093818,local,local,750,S,S,E,E,E-S.png,E-S.png,sS,sS,mask-4.png,mask-2.png,s,1,0.962194100022316,s,1,0.05442570010200143,0.04706620005890727,0.04507460002787411,0.09868369996547699,0.0975583998952061,0.7496973001398146
RSVPLG03,md,20260310-092957,1.0.2,20251105-084826,795,Experiment,Both,1,Automatic,main,72,20260310-093823,global,global,750,S,S,A,E,S-A.png,S-E.png,sS,sS,mask-1.png,mask-2.png,h,0,0.6099721000064164,s,1,0.07035900000482798,0.04839959996752441,0.04742490011267364,0.10103089991025627,0.10063420003280044,0.7498663999140263
RSVPLG03,md,20260310-092957,1.0.2,20251105-084826,795,Experiment,Both,1,Automatic,main,73,20260310-093828,global,global,300,H,H,E,E,H-E.png,H-E.png,hH,hH,mask-4.png,mask-2.png,h,1,0.38806460006162524,h,1,0.07644340000115335,0.04476390010677278,0.04773010010831058,0.09806410013698041,0.0987841000314802,0.29780850000679493
RSVPLG03,md,20260310-092957,1.0.2,20251105-084826,795,Experiment,Both,1,Automatic,main,74,20260310-093832,global,global,750,H,H,E,E,H-E.png,H-E.png,hH,hH,mask-2.png,mask-4.png,h,1,0.6741891000419855,h,1,0.12562680011615157,0.04740520007908344,0.04703989997506142,0.09982179990038276,0.0997055999469012,0.7503229000139982
RSVPLG03,md,20260310-092957,1.0.2,20251105-084826,795,Experiment,Both,1,Automatic,main,75,20260310-093837,local,global,750,S,H,A,E,A-S.png,H-E.png,sS,hH,mask-2.png,mask-1.png,s,1,0.6738881000783294,h,1,0.6004158998839557,0.04849150008521974,0.04751359997317195,0.09978660009801388,0.09812389989383519,0.750670500099659
RSVPLG03,md,20260310-092957,1.0.2,20251105-084826,795,Experiment,Both,1,Automatic,main,76,20260310-093844,global,local,750,H,S,A,E,H-A.png,E-S.png,hH,sS,mask-1.png,mask-2.png,h,1,0.7026472999714315,s,1,0.07219930016435683,0.046326200012117624,0.045963400043547153,0.10061890003271401,0.09721669997088611,0.7494804998859763
RSVPLG03,md,20260310-092957,1.0.2,20251105-084826,795,Experiment,Both,1,Automatic,main,77,20260310-093849,local,global,750,S,H,E,A,E-S.png,H-A.png,sS,hH,mask-3.png,mask-1.png,s,1,0.9708090999629349,s,0,0.05420770007185638,0.04922899999655783,0.04757250007241964,0.1023180999327451,0.10007110005244613,0.748715199995786
RSVPLG03,md,20260310-092957,1.0.2,20251105-084826,795,Experiment,Both,1,Automatic,main,78,20260310-093855,global,local,300,S,H,E,E,S-E.png,E-H.png,sS,hH,mask-3.png,mask-4.png,h,0,1.8431391001213342,s,0,0.08751520002260804,0.04722770000807941,0.04752679984085262,0.0996982001233846,0.09889420005492866,0.29903200012631714
RSVPLG03,md,20260310-092957,1.0.2,20251105-084826,795,Experiment,Both,1,Automatic,main,79,20260310-093900,local,global,750,H,S,A,E,A-H.png,S-E.png,hH,sS,mask-4.png,mask-1.png,s,0,4.945739299990237,s,1,0.10326849995180964,0.04775550006888807,0.044530099956318736,0.10056150006130338,0.09977969992905855,0.7513866999652237
RSVPLG03,md,20260310-092957,1.0.2,20251105-084826,795,Experiment,Both,1,Automatic,main,80,20260310-093909,local,local,300,H,H,A,A,A-H.png,A-H.png,hH,hH,mask-4.png,mask-4.png,h,1,0.514572799904272,s,0,0.06090239994227886,0.046171699883416295,0.04739980003796518,0.09946860000491142,0.10053369984962046,0.298216599971056
RSVPLG03,md,20260310-092957,1.0.2,20251105-084826,795,Experiment,Both,1,Automatic,main,81,20260310-093913,global,global,300,H,S,A,A,H-A.png,S-A.png,hH,sS,mask-1.png,mask-4.png,h,1,0.707207600120455,s,1,0.2850450000260025,0.047208999982103705,0.045319899916648865,0.10033060004934669,0.0978635000064969,0.3021388000342995
RSVPLG03,md,20260310-092957,1.0.2,20251105-084826,795,Experiment,Both,1,Automatic,main,82,20260310-093918,global,global,300,S,S,A,E,S-A.png,S-E.png,sS,sS,mask-2.png,mask-2.png,s,1,0.4049726000521332,s,1,0.07858039997518063,0.048786599887534976,0.047839999897405505,0.10120559995993972,0.1017722999677062,0.30021009990014136
RSVPLG03,md,20260310-092957,1.0.2,20251105-084826,795,Experiment,Both,1,Automatic,main,83,20260310-093922,global,global,750,H,S,E,A,H-E.png,S-A.png,hH,sS,mask-4.png,mask-3.png,h,1,0.43079279991798103,s,1,0.071086399955675,0.04712949995882809,0.04617150011472404,0.09918230003677309,0.09770689997822046,0.7500745998695493
RSVPLG03,md,20260310-092957,1.0.2,20251105-084826,795,Experiment,Both,1,Automatic,main,84,20260310-093927,global,global,300,S,H,E,A,S-E.png,H-A.png,sS,hH,mask-3.png,mask-3.png,s,1,0.6709177000448108,s,0,1.0551010998897254,0.04620669991709292,0.049369100015610456,0.09940449986606836,0.10157159995287657,0.29707410000264645
RSVPLG03,md,20260310-092957,1.0.2,20251105-084826,795,Experiment,Both,1,Automatic,main,85,20260310-093932,local,global,300,S,H,A,E,A-S.png,H-E.png,sS,hH,mask-2.png,mask-1.png,h,0,1.344438700005412,s,0,0.07934150006622076,0.04679169994778931,0.04541010013781488,0.09818070009350777,0.09888570010662079,0.2995647999923676
RSVPLG03,md,20260310-092957,1.0.2,20251105-084826,795,Experiment,Both,1,Automatic,main,86,20260310-093937,global,global,750,S,S,A,E,S-A.png,S-E.png,sS,sS,mask-1.png,mask-2.png,s,1,0.7954943000804633,s,1,0.07418400002643466,0.04762439988553524,0.04820860014297068,0.09993769996799529,0.10006149997934699,0.7475313998293132
RSVPLG03,md,20260310-092957,1.0.2,20251105-084826,795,Experiment,Both,1,Automatic,main,87,20260310-093942,local,local,300,H,H,A,A,A-H.png,A-H.png,hH,hH,mask-1.png,mask-2.png,h,1,0.5963316999841481,s,0,0.0613173998426646,0.046661300119012594,0.047700800001621246,0.1004257001914084,0.10107040009461343,0.29958009999245405
RSVPLG03,md,20260310-092957,1.0.2,20251105-084826,795,Experiment,Both,1,Automatic,main,88,20260310-093947,local,local,300,H,S,E,E,E-H.png,E-S.png,hH,sS,mask-3.png,mask-4.png,h,1,0.431919600116089,s,1,0.024228999856859446,0.04723540018312633,0.04487180011346936,0.09986439999192953,0.0972534001339227,0.30106219998560846
RSVPLG03,md,20260310-092957,1.0.2,20251105-084826,795,Experiment,Both,1,Automatic,main,89,20260310-093951,global,local,750,H,H,A,A,H-A.png,A-H.png,hH,hH,mask-3.png,mask-2.png,h,1,0.3690529998857528,h,1,0.06224350002594292,0.04731219983659685,0.048342399997636676,0.10073199984617531,0.10259789996780455,0.7479377000126988
RSVPLG03,md,20260310-092957,1.0.2,20251105-084826,795,Experiment,Both,1,Automatic,main,90,20260310-093955,local,local,750,H,S,E,A,E-H.png,A-S.png,hH,sS,mask-2.png,mask-1.png,h,1,0.5094588999636471,s,1,0.10216200002469122,0.048044699942693114,0.045110899955034256,0.098930099979043,0.09666440007276833,0.7498953999020159
RSVPLG03,md,20260310-092957,1.0.2,20251105-084826,795,Experiment,Both,1,Automatic,main,91,20260310-094000,local,local,750,H,S,A,E,A-H.png,E-S.png,hH,sS,mask-2.png,mask-3.png,h,1,1.6454672999680042,s,1,0.03952470002695918,0.04654289991594851,0.044477200135588646,0.09805490006692708,0.09892789996229112,0.7496843999251723
RSVPLG03,md,20260310-092957,1.0.2,20251105-084826,795,Experiment,Both,1,Automatic,main,92,20260310-094006,local,global,750,H,S,A,A,A-H.png,S-A.png,hH,sS,mask-1.png,mask-2.png,h,1,0.3725261997897178,s,1,0.07992230006493628,0.04671949986368418,0.04719950002618134,0.09811619995161891,0.1023176999296993,0.7474001999944448
RSVPLG03,md,20260310-092957,1.0.2,20251105-084826,795,Experiment,Both,1,Automatic,main,93,20260310-094011,global,local,300,H,H,E,E,H-E.png,E-H.png,hH,hH,mask-3.png,mask-3.png,h,1,1.1864683001767844,s,0,0.06130760000087321,0.047627200139686465,0.047130600083619356,0.10031550005078316,0.10144939995370805,0.2997523001395166
RSVPLG03,md,20260310-092957,1.0.2,20251105-084826,795,Experiment,Both,1,Automatic,main,94,20260310-094016,local,global,750,S,H,E,A,E-S.png,H-A.png,sS,hH,mask-2.png,mask-1.png,s,1,1.9847092998679727,s,0,0.0710871999617666,0.04619990009814501,0.048484900034964085,0.09954340010881424,0.10016270005144179,0.7479328999761492
RSVPLG03,md,20260310-092957,1.0.2,20251105-084826,795,Experiment,Both,1,Automatic,main,95,20260310-094022,global,local,300,S,H,E,A,S-E.png,A-H.png,sS,hH,mask-3.png,mask-3.png,s,1,1.90653089992702,h,1,0.055500300135463476,0.04652399988844991,0.047356400173157454,0.09968269988894463,0.0988020000513643,0.29929719981737435
RSVPLG03,md,20260310-092957,1.0.2,20251105-084826,795,Experiment,Both,1,Automatic,main,96,20260310-094027,global,local,750,S,H,E,E,S-E.png,E-H.png,sS,hH,mask-3.png,mask-1.png,s,1,1.1801885000895709,s,0,0.07943389983847737,0.046328599797561765,0.04552960000000894,0.09947059978730977,0.09960890002548695,0.7497508998494595
RSVPLG03,md,20260310-092957,1.0.2,20251105-084826,795,Experiment,Both,1,Automatic,main,97,20260310-094033,local,local,750,S,S,A,A,A-S.png,A-S.png,sS,sS,mask-4.png,mask-4.png,s,1,2.300785900093615,s,1,0.10690400004386902,0.0447460999712348,0.04710849979892373,0.09693679981864989,0.09950629994273186,0.7475240000057966
RSVPLG03,md,20260310-092957,1.0.2,20251105-084826,795,Experiment,Both,1,Automatic,main,98,20260310-094039,global,global,300,S,S,E,E,S-E.png,S-E.png,sS,sS,mask-1.png,mask-1.png,s,1,0.41879259981215,s,1,0.0684799998998642,0.04710439988411963,0.048171999864280224,0.10064610000699759,0.09982310002669692,0.3003686999436468
RSVPLG03,md,20260310-092957,1.0.2,20251105-084826,795,Experiment,Both,1,Automatic,main,99,20260310-094043,local,global,300,S,S,A,A,A-S.png,S-A.png,sS,sS,mask-3.png,mask-3.png,s,1,1.3277326999232173,h,0,0.057433399837464094,0.046410599956288934,0.04773579980246723,0.09921060013584793,0.09988869982771575,0.29996790015138686
RSVPLG03,md,20260310-092957,1.0.2,20251105-084826,795,Experiment,Both,1,Automatic,main,100,20260310-094048,local,local,300,H,S,A,E,A-H.png,E-S.png,hH,sS,mask-1.png,mask-1.png,h,1,0.4135638999287039,h,0,1.2943377001211047,0.048440099926665425,0.04669720004312694,0.10178110003471375,0.09797569992952049,0.3029976000543684
RSVPLG03,md,20260310-094152,1.0.2,20251105-084826,795,Experiment,Both,1,Automatic,warmup,1,20260310-094301,global,global,750,S,S,E,A,S-E.png,S-A.png,sS,sS,mask-1.png,mask-4.png,s,1,0.9126492999494076,s,1,0.07443679985590279,0.04534910013899207,0.04830290004611015,0.0987009999807924,0.10193370003253222,0.7500440999865532
RSVPLG03,md,20260310-094152,1.0.2,20251105-084826,795,Experiment,Both,1,Automatic,warmup,2,20260310-094306,local,global,750,H,H,A,A,A-H.png,H-A.png,hH,hH,mask-4.png,mask-3.png,s,0,1.0189188001677394,s,0,1.6085982001386583,0.04707349999807775,0.04736310010775924,0.10108310007490218,0.09995619999244809,0.7528872999828309
RSVPLG03,md,20260310-094152,1.0.2,20251105-084826,795,Experiment,Both,1,Automatic,warmup,3,20260310-094313,global,local,300,S,H,A,E,S-A.png,E-H.png,sS,hH,mask-2.png,mask-1.png,s,1,0.6858514999039471,s,0,0.09064309997484088,0.04733160021714866,0.04827140015549958,0.09987730020657182,0.10205180011689663,0.3002579000312835
RSVPLG03,md,20260310-094152,1.0.2,20251105-084826,795,Experiment,Both,1,Automatic,warmup,4,20260310-094318,global,local,750,H,H,E,E,H-E.png,E-H.png,hH,hH,mask-2.png,mask-1.png,s,0,1.3138383000623435,s,0,0.7828977999743074,0.04644150007516146,0.048335300059989095,0.09970140014775097,0.10084400000050664,0.7508622999303043
RSVPLG03,md,20260310-094152,1.0.2,20251105-084826,795,Experiment,Both,1,Automatic,main,5,20260310-094324,local,local,300,H,S,A,A,A-H.png,A-S.png,hH,sS,mask-3.png,mask-2.png,h,1,3.576898999977857,s,1,0.8783835999201983,0.04734649998135865,0.04826319986023009,0.10007699998095632,0.10077090002596378,0.2992928000167012
RSVPLG03,md,20260310-094152,1.0.2,20251105-084826,795,Experiment,Both,1,Automatic,main,6,20260310-094332,global,local,750,S,H,E,A,S-E.png,A-H.png,sS,hH,mask-4.png,mask-4.png,s,1,1.1466971000190824,h,1,0.040001099929213524,0.04798740008845925,0.047124800039455295,0.09831549995578825,0.09988120011985302,0.7521347999572754
RSVPLG03,md,20260310-094152,1.0.2,20251105-084826,795,Experiment,Both,1,Automatic,main,7,20260310-094337,local,local,750,S,S,E,E,E-S.png,E-S.png,sS,sS,mask-3.png,mask-4.png,s,1,0.3920436000917107,s,1,0.09603020013310015,0.04783120006322861,0.0472490000538528,0.0990201998502016,0.09919669991359115,0.7518474999815226
RSVPLG03,md,20260310-094152,1.0.2,20251105-084826,795,Experiment,Both,1,Automatic,main,8,20260310-094342,local,local,750,H,H,E,A,E-H.png,A-H.png,hH,hH,mask-2.png,mask-1.png,h,1,0.29925540019758046,h,1,0.0774974999949336,0.04824059992097318,0.04726439993828535,0.10004879999905825,0.10077250003814697,0.7528760000132024
RSVPLG03,md,20260310-094152,1.0.2,20251105-084826,795,Experiment,Both,1,Automatic,main,9,20260310-094346,local,local,300,S,H,A,E,A-S.png,E-H.png,sS,hH,mask-2.png,mask-4.png,s,1,0.5891050000209361,s,0,0.0792159999255091,0.048258099937811494,0.04728689999319613,0.10061490000225604,0.09971280000172555,0.30111259990371764
RSVPLG03,md,20260310-094152,1.0.2,20251105-084826,795,Experiment,Both,1,Automatic,main,10,20260310-094351,local,local,750,S,H,A,A,A-S.png,A-H.png,sS,hH,mask-3.png,mask-4.png,s,1,0.1806544999126345,h,1,0.014858100097626448,0.04650499997660518,0.04981140000745654,0.10055189998820424,0.10081090009771287,0.7514155998360366
RSVPLG03,md,20260310-094152,1.0.2,20251105-084826,795,Experiment,Both,1,Automatic,main,11,20260310-094355,global,global,300,H,H,E,A,H-E.png,H-A.png,hH,hH,mask-3.png,mask-1.png,h,1,1.1372001999989152,h,1,0.23850119998678565,0.04922659997828305,0.04833569983020425,0.10186120006255805,0.10003639990463853,0.3020437001250684
RSVPLG03,md,20260310-094152,1.0.2,20251105-084826,795,Experiment,Both,1,Automatic,main,12,20260310-094400,global,local,300,H,S,E,E,H-E.png,E-S.png,hH,sS,mask-2.png,mask-2.png,h,1,0.4176574000157416,h,0,0.18408640008419752,0.04847400006838143,0.04924379987642169,0.1009461001958698,0.10078269988298416,0.30032220017164946
RSVPLG03,md,20260310-094152,1.0.2,20251105-084826,795,Experiment,Both,1,Automatic,main,13,20260310-094404,global,global,750,S,H,E,A,S-E.png,H-A.png,sS,hH,mask-4.png,mask-3.png,s,1,0.4131164997816086,h,1,0.04143450013361871,0.04478110000491142,0.04676100006327033,0.09889500006102026,0.0985105000436306,0.7502812999300659
RSVPLG03,md,20260310-094152,1.0.2,20251105-084826,795,Experiment,Both,1,Automatic,main,14,20260310-094409,global,global,750,H,S,A,A,H-A.png,S-A.png,hH,sS,mask-4.png,mask-4.png,h,1,0.5344913001172245,s,1,0.2070526999887079,0.04626199998892844,0.046303899958729744,0.09868620010092854,0.10048999986611307,0.7518532001413405
RSVPLG03,md,20260310-094152,1.0.2,20251105-084826,795,Experiment,Both,1,Automatic,main,15,20260310-094414,global,local,750,S,H,E,A,S-E.png,A-H.png,sS,hH,mask-3.png,mask-3.png,s,1,0.9937968000303954,h,1,0.32715409994125366,0.047114399960264564,0.04833299992606044,0.09976379992440343,0.10185819980688393,0.7509183001238853
RSVPLG03,md,20260310-094152,1.0.2,20251105-084826,795,Experiment,Both,1,Automatic,main,16,20260310-094419,local,local,750,S,H,A,A,A-S.png,A-H.png,sS,hH,mask-4.png,mask-1.png,s,1,0.8965579001232982,h,1,0.12671980005688965,0.04759810003452003,0.04705809988081455,0.09973910008557141,0.09953819983638823,0.7511406000703573
RSVPLG03,md,20260310-094152,1.0.2,20251105-084826,795,Experiment,Both,1,Automatic,main,17,20260310-094424,global,local,750,H,S,E,A,H-E.png,A-S.png,hH,sS,mask-2.png,mask-2.png,h,1,0.6430498000700027,s,1,0.1252552999649197,0.04722840012982488,0.046704200096428394,0.09872160013765097,0.09964679996483028,0.7529029999859631
RSVPLG03,md,20260310-094152,1.0.2,20251105-084826,795,Experiment,Both,1,Automatic,main,18,20260310-094429,global,global,750,H,S,A,E,H-A.png,S-E.png,hH,sS,mask-1.png,mask-1.png,h,1,0.159316600067541,s,1,0.2190441999118775,0.0471908999606967,0.04826340009458363,0.09950999985449016,0.10066440002992749,0.7518485998734832
RSVPLG03,md,20260310-094152,1.0.2,20251105-084826,795,Experiment,Both,1,Automatic,main,19,20260310-094434,local,local,300,S,S,A,E,A-S.png,E-S.png,sS,sS,mask-4.png,mask-3.png,s,1,1.2539249998517334,h,0,1.3979799000080675,0.045868099899962544,0.049248400144279,0.09828119981102645,0.10174510022625327,0.29883619979955256
RSVPLG03,md,20260310-094152,1.0.2,20251105-084826,795,Experiment,Both,1,Automatic,main,20,20260310-094439,local,global,750,S,H,A,A,A-S.png,H-A.png,sS,hH,mask-4.png,mask-1.png,h,0,0.4523610998876393,s,0,0.19788450002670288,0.047022700076922774,0.047153300140053034,0.09977520001120865,0.10140100005082786,0.7497855999972671
RSVPLG03,md,20260310-094152,1.0.2,20251105-084826,795,Experiment,Both,1,Automatic,main,21,20260310-094443,local,global,750,S,S,A,A,A-S.png,S-A.png,sS,sS,mask-2.png,mask-1.png,h,0,1.3951956999953836,s,1,0.17563669988885522,0.04803550010547042,0.047370600048452616,0.09931889991275966,0.10089839994907379,0.7519487999379635
RSVPLG03,md,20260310-094152,1.0.2,20251105-084826,795,Experiment,Both,1,Automatic,main,22,20260310-094449,local,global,750,S,H,E,E,E-S.png,H-E.png,sS,hH,mask-4.png,mask-1.png,s,1,0.4662442998960614,h,1,0.11136430012993515,0.047917400021106005,0.048308099852874875,0.10054320003837347,0.10160920000635087,0.7516062001232058
RSVPLG03,md,20260310-094152,1.0.2,20251105-084826,795,Experiment,Both,1,Automatic,main,23,20260310-094454,local,global,300,H,H,A,A,A-H.png,H-A.png,hH,hH,mask-2.png,mask-4.png,h,1,0.7412193999625742,s,0,0.139703500084579,0.04649249999783933,0.0482487000990659,0.09867019997909665,0.1018259001430124,0.29915569978766143
RSVPLG03,md,20260310-094152,1.0.2,20251105-084826,795,Experiment,Both,1,Automatic,main,24,20260310-094458,local,global,750,S,H,E,A,E-S.png,H-A.png,sS,hH,mask-1.png,mask-3.png,s,1,1.1213646000251174,h,1,0.015403500059619546,0.0470654999371618,0.04836849984712899,0.09963340009562671,0.10057219979353249,0.7521365000866354
RSVPLG03,md,20260310-094152,1.0.2,20251105-084826,795,Experiment,Both,1,Automatic,main,25,20260310-094504,global,global,300,H,H,E,E,H-E.png,H-E.png,hH,hH,mask-4.png,mask-4.png,h,1,0.4674547999165952,h,1,0.10894099995493889,0.04731749999336898,0.04938429989852011,0.1008213001769036,0.10178539995104074,0.3001946001313627
RSVPLG03,md,20260310-094152,1.0.2,20251105-084826,795,Experiment,Both,1,Automatic,main,26,20260310-094510,local,global,750,H,H,E,E,E-H.png,H-E.png,hH,hH,mask-4.png,mask-3.png,s,0,0.9884895998984575,h,1,1.1005054998677224,0.04736379999667406,0.046949699986726046,0.10086909984238446,0.10043840017169714,0.7512710997834802
RSVPLG03,md,20260310-094152,1.0.2,20251105-084826,795,Experiment,Both,1,Automatic,main,27,20260310-094515,local,local,300,H,S,A,A,A-H.png,A-S.png,hH,sS,mask-2.png,mask-1.png,h,1,0.44854189991019666,h,0,0.08646119991317391,0.0472723999992013,0.048555699875578284,0.09974249987863004,0.10100199980661273,0.30082800006493926
RSVPLG03,md,20260310-094152,1.0.2,20251105-084826,795,Experiment,Both,1,Automatic,main,28,20260310-094519,global,global,300,H,H,E,A,H-E.png,H-A.png,hH,hH,mask-1.png,mask-3.png,h,1,0.45391119993291795,h,1,0.07961819996125996,0.04576359991915524,0.04816329991444945,0.09939669980667531,0.10086499992758036,0.29881209996528924
RSVPLG03,md,20260310-094152,1.0.2,20251105-084826,795,Experiment,Both,1,Automatic,main,29,20260310-094523,global,global,750,H,H,A,E,H-A.png,H-E.png,hH,hH,mask-3.png,mask-1.png,h,1,0.5141636000480503,h,1,0.05277470010332763,0.04818019992671907,0.04814009997062385,0.10011320002377033,0.09975540009327233,0.7520125999581069
RSVPLG03,md,20260310-094152,1.0.2,20251105-084826,795,Experiment,Both,1,Automatic,main,30,20260310-094528,global,local,300,H,H,A,A,H-A.png,A-H.png,hH,hH,mask-3.png,mask-1.png,h,1,1.2833970000501722,s,0,1.0356570000294596,0.0473187998868525,0.0479564000852406,0.10102639999240637,0.10062279994599521,0.30154849984683096
RSVPLG03,md,20260310-094152,1.0.2,20251105-084826,795,Experiment,Both,1,Automatic,main,31,20260310-094534,local,global,300,H,S,E,A,E-H.png,S-A.png,hH,sS,mask-2.png,mask-2.png,h,1,1.2504466001410037,s,1,0.23720770003274083,0.0471707999240607,0.047177999978885055,0.09987320005893707,0.09964230004698038,0.30024669994600117
RSVPLG03,md,20260310-094152,1.0.2,20251105-084826,795,Experiment,Both,1,Automatic,main,32,20260310-094539,global,global,750,H,H,E,A,H-E.png,H-A.png,hH,hH,mask-1.png,mask-4.png,h,1,0.6710886000655591,h,1,0.07003359985537827,0.04753399989567697,0.0462397001683712,0.09871009993366897,0.09957980015315115,0.7518358998931944
RSVPLG03,md,20260310-094152,1.0.2,20251105-084826,795,Experiment,Both,1,Automatic,main,33,20260310-094544,global,global,300,S,S,E,A,S-E.png,S-A.png,sS,sS,mask-2.png,mask-3.png,s,1,0.4523775998968631,s,1,0.06304879998788238,0.04715240001678467,0.04950010008178651,0.0996580000501126,0.10089730005711317,0.3001389999408275
RSVPLG03,md,20260310-094152,1.0.2,20251105-084826,795,Experiment,Both,1,Automatic,main,34,20260310-094548,global,local,300,H,S,A,A,H-A.png,A-S.png,hH,sS,mask-2.png,mask-1.png,h,1,0.4343357998877764,h,0,0.05662270006723702,0.04734950000420213,0.04719369998201728,0.09975799988023937,0.0996824000030756,0.30131060001440346
RSVPLG03,md,20260310-094152,1.0.2,20251105-084826,795,Experiment,Both,1,Automatic,main,35,20260310-094552,local,global,750,H,S,E,E,E-H.png,S-E.png,hH,sS,mask-2.png,mask-1.png,h,1,0.19065459980629385,s,1,0.09175110002979636,0.04739099997095764,0.047284399857744575,0.09994399989955127,0.10070819989778101,0.7519457000307739
RSVPLG03,md,20260310-094152,1.0.2,20251105-084826,795,Experiment,Both,1,Automatic,main,36,20260310-094556,local,local,300,S,H,A,A,A-S.png,A-H.png,sS,hH,mask-3.png,mask-3.png,s,1,0.633343500085175,h,1,0.08925819979049265,0.04722329997457564,0.04726490005850792,0.10115579981356859,0.10137740010395646,0.3001400998327881
RSVPLG03,md,20260310-094152,1.0.2,20251105-084826,795,Experiment,Both,1,Automatic,main,37,20260310-094601,local,local,750,H,S,A,A,A-H.png,A-S.png,hH,sS,mask-3.png,mask-2.png,h,1,0.361098799854517,s,1,0.030668599996715784,0.04757139994762838,0.046957300044596195,0.10212070005945861,0.10009659989736974,0.7524993000552058
RSVPLG03,md,20260310-094152,1.0.2,20251105-084826,795,Experiment,Both,1,Automatic,main,38,20260310-094605,global,local,300,H,S,E,A,H-E.png,A-S.png,hH,sS,mask-1.png,mask-2.png,h,1,0.5238261001650244,s,1,0.041496500140056014,0.047133699990808964,0.047192899975925684,0.09948049997910857,0.10154370008967817,0.29993179999291897
RSVPLG03,md,20260310-094152,1.0.2,20251105-084826,795,Experiment,Both,1,Automatic,main,39,20260310-094610,local,global,300,S,H,A,A,A-S.png,H-A.png,sS,hH,mask-3.png,mask-1.png,s,1,0.4054117000196129,s,0,0.11167860007844865,0.04607759998179972,0.049591500079259276,0.09959869994781911,0.10079420008696616,0.2990738998632878
RSVPLG03,md,20260310-094152,1.0.2,20251105-084826,795,Experiment,Both,1,Automatic,main,40,20260310-094614,local,global,750,S,S,E,A,E-S.png,S-A.png,sS,sS,mask-1.png,mask-1.png,s,1,0.592691000085324,s,1,0.03172239987179637,0.046310200123116374,0.04932280001230538,0.10064460011199117,0.10092389979399741,0.7508861001115292
RSVPLG03,md,20260310-094152,1.0.2,20251105-084826,795,Experiment,Both,1,Automatic,main,41,20260310-094619,global,local,300,S,S,A,A,S-A.png,A-S.png,sS,sS,mask-3.png,mask-1.png,h,0,0.5477822001557797,h,0,1.2707412999588996,0.0463190998416394,0.0468939000274986,0.098782500019297,0.09952359995804727,0.301602799911052
RSVPLG03,md,20260310-094152,1.0.2,20251105-084826,795,Experiment,Both,1,Automatic,main,42,20260310-094624,global,global,300,S,S,E,A,S-E.png,S-A.png,sS,sS,mask-4.png,mask-3.png,s,1,0.7558840999845415,s,1,0.0627921000123024,0.04723079991526902,0.048103699926286936,0.10096869990229607,0.0994376998860389,0.301467000041157
RSVPLG03,md,20260310-094152,1.0.2,20251105-084826,795,Experiment,Both,1,Automatic,main,43,20260310-094629,local,global,300,S,S,E,E,E-S.png,S-E.png,sS,sS,mask-4.png,mask-1.png,s,1,0.5116964001208544,s,1,0.03905789996497333,0.048505199840292335,0.04661399987526238,0.10203889990225434,0.09911739989183843,0.30202770000323653
RSVPLG03,md,20260310-094152,1.0.2,20251105-084826,795,Experiment,Both,1,Automatic,main,44,20260310-094633,local,local,750,S,S,A,E,A-S.png,E-S.png,sS,sS,mask-2.png,mask-4.png,s,1,1.7103846000973135,s,1,0.07552330009639263,0.04737460007891059,0.0457464000210166,0.09959200001321733,0.10124980006366968,0.7518704000394791
RSVPLG03,md,20260310-094152,1.0.2,20251105-084826,795,Experiment,Both,1,Automatic,main,45,20260310-094639,local,global,300,S,S,E,E,E-S.png,S-E.png,sS,sS,mask-1.png,mask-3.png,s,1,0.37329989997670054,s,1,0.05451649986207485,0.04913459997624159,0.04736139997839928,0.10157840000465512,0.10165229998528957,0.3011924000456929
RSVPLG03,md,20260310-094152,1.0.2,20251105-084826,795,Experiment,Both,1,Automatic,main,46,20260310-094643,local,global,300,H,S,A,E,A-H.png,S-E.png,hH,sS,mask-4.png,mask-3.png,s,0,0.7894369000568986,h,0,0.030154600040987134,0.047112900065258145,0.047052400186657906,0.0995145000051707,0.1007211001124233,0.30031389999203384
RSVPLG03,md,20260310-094152,1.0.2,20251105-084826,795,Experiment,Both,1,Automatic,main,47,20260310-094647,local,global,300,H,S,A,A,A-H.png,S-A.png,hH,sS,mask-2.png,mask-4.png,h,1,0.43610300007276237,s,1,0.04534780001267791,0.04733239999040961,0.04817660013213754,0.09969020006246865,0.10190440015867352,0.2993467999622226
RSVPLG03,md,20260310-094152,1.0.2,20251105-084826,795,Experiment,Both,1,Automatic,main,48,20260310-094651,local,local,750,S,H,A,E,A-S.png,E-H.png,sS,hH,mask-2.png,mask-2.png,s,1,0.27440130012109876,h,1,0.07694169995374978,0.047391399974003434,0.04630849999375641,0.09985870006494224,0.09975549997761846,0.752030499977991
RSVPLG03,md,20260310-094152,1.0.2,20251105-084826,795,Experiment,Both,1,Automatic,main,49,20260310-094656,global,global,300,H,H,E,E,H-E.png,H-E.png,hH,hH,mask-2.png,mask-2.png,h,1,0.3423309000208974,s,0,0.04166109999641776,0.047208999982103705,0.04826639988459647,0.10059159994125366,0.10002009989693761,0.3009424000047147
RSVPLG03,md,20260310-094152,1.0.2,20251105-084826,795,Experiment,Both,1,Automatic,main,50,20260310-094700,global,global,750,S,H,E,E,S-E.png,H-E.png,sS,hH,mask-4.png,mask-1.png,s,1,1.6973776000086218,h,1,0.09458100004121661,0.046397099969908595,0.04732999997213483,0.09905800013802946,0.09980450011789799,0.7510349999647588
RSVPLG03,md,20260310-094152,1.0.2,20251105-084826,795,Experiment,Both,1,Automatic,main,51,20260310-094707,global,global,750,H,S,E,A,H-E.png,S-A.png,hH,sS,mask-4.png,mask-4.png,h,1,0.31614500004798174,s,1,0.09486780012957752,0.048674700083211064,0.048321499954909086,0.10177290020510554,0.10077799996361136,0.7528491001576185
RSVPLG03,md,20260310-094152,1.0.2,20251105-084826,795,Experiment,Both,1,Automatic,main,52,20260310-094711,global,global,300,H,S,A,A,H-A.png,S-A.png,hH,sS,mask-2.png,mask-1.png,h,1,0.7244176000822335,s,1,0.04629399999976158,0.04807449993677437,0.04908699984662235,0.09868959989398718,0.10147150000557303,0.29937210003845394
RSVPLG03,md,20260310-094152,1.0.2,20251105-084826,795,Experiment,Both,1,Automatic,main,53,20260310-094716,global,local,300,H,S,E,E,H-E.png,E-S.png,hH,sS,mask-3.png,mask-4.png,h,1,0.43782069999724627,s,1,0.023437599884346128,0.04731850000098348,0.04721519979648292,0.09973010001704097,0.0986814999487251,0.30222610011696815
RSVPLG03,md,20260310-094152,1.0.2,20251105-084826,795,Experiment,Both,1,Automatic,main,54,20260310-094720,local,global,300,H,S,A,A,A-H.png,S-A.png,hH,sS,mask-2.png,mask-2.png,h,1,0.4365704001393169,s,1,0.07937190006487072,0.04691199981607497,0.04824979999102652,0.1005471998360008,0.10054849996231496,0.3001502000261098
RSVPLG03,md,20260310-094152,1.0.2,20251105-084826,795,Experiment,Both,1,Automatic,main,55,20260310-094724,local,global,750,H,H,E,A,E-H.png,H-A.png,hH,hH,mask-4.png,mask-1.png,h,1,0.9909004999790341,s,0,0.01542489998973906,0.04610500019043684,0.04813480004668236,0.09857480018399656,0.09957089996896684,0.750951400026679
RSVPLG03,md,20260310-094152,1.0.2,20251105-084826,795,Experiment,Both,1,Automatic,main,56,20260310-094729,local,local,750,H,H,E,E,E-H.png,E-H.png,hH,hH,mask-1.png,mask-4.png,h,1,0.20906589995138347,h,1,0.11079009994864464,0.046277099987491965,0.0482097000349313,0.09972029994241893,0.10125240008346736,0.7511185999028385
RSVPLG03,md,20260310-094152,1.0.2,20251105-084826,795,Experiment,Both,1,Automatic,main,57,20260310-094734,global,global,750,S,H,A,A,S-A.png,H-A.png,sS,hH,mask-2.png,mask-3.png,s,1,0.978001199895516,s,0,0.07754069985821843,0.04698989982716739,0.046220700023695827,0.09966579987667501,0.09980149986222386,0.7533068999182433
RSVPLG03,md,20260310-094152,1.0.2,20251105-084826,795,Experiment,Both,1,Automatic,main,58,20260310-094739,global,global,300,S,S,E,A,S-E.png,S-A.png,sS,sS,mask-1.png,mask-2.png,h,0,1.7754885000176728,s,1,0.031221900135278702,0.04809840000234544,0.04647949989885092,0.09981529996730387,0.0989695000462234,0.30106680002063513
RSVPLG03,md,20260310-094152,1.0.2,20251105-084826,795,Experiment,Both,1,Automatic,main,59,20260310-094745,global,global,300,S,H,A,E,S-A.png,H-E.png,sS,hH,mask-3.png,mask-3.png,s,1,0.7413250999525189,h,1,0.22313740011304617,0.04710770002566278,0.04704219987615943,0.10059149982407689,0.09845739998854697,0.30233490001410246
RSVPLG03,md,20260310-094152,1.0.2,20251105-084826,795,Experiment,Both,1,Automatic,main,60,20260310-094749,global,local,750,S,H,E,E,S-E.png,E-H.png,sS,hH,mask-2.png,mask-2.png,s,1,0.558939800132066,s,0,0.060300800018012524,0.04710999992676079,0.04723660019226372,0.10058779991231859,0.09925259998999536,0.7527695999015123
RSVPLG03,md,20260310-094152,1.0.2,20251105-084826,795,Experiment,Both,1,Automatic,main,61,20260310-094754,global,local,300,S,H,A,E,S-A.png,E-H.png,sS,hH,mask-2.png,mask-2.png,s,1,0.7112787999212742,s,0,0.04222239996306598,0.04811200010590255,0.04705870011821389,0.100780000211671,0.09977570013143122,0.302279100054875
RSVPLG03,md,20260310-094152,1.0.2,20251105-084826,795,Experiment,Both,1,Automatic,main,62,20260310-094758,global,local,300,S,H,A,E,S-A.png,E-H.png,sS,hH,mask-4.png,mask-4.png,s,1,0.4859843000303954,h,1,0.14265749999321997,0.0477742999792099,0.04927159985527396,0.10055119986645877,0.10052799992263317,0.30021040001884103
RSVPLG03,md,20260310-094152,1.0.2,20251105-084826,795,Experiment,Both,1,Automatic,main,63,20260310-094803,global,global,300,S,H,A,E,S-A.png,H-E.png,sS,hH,mask-2.png,mask-4.png,s,1,0.35458369995467365,h,1,0.04552339995279908,0.048317400040104985,0.049274499993771315,0.10012950003147125,0.10292520001530647,0.3002270001452416
RSVPLG03,md,20260310-094152,1.0.2,20251105-084826,795,Experiment,Both,1,Automatic,main,64,20260310-094807,global,local,300,H,S,E,E,H-E.png,E-S.png,hH,sS,mask-3.png,mask-1.png,h,1,0.2904213999863714,h,0,0.36667070002295077,0.04721580003388226,0.048329100012779236,0.09957129997201264,0.09981360007077456,0.30112849990837276
RSVPLG03,md,20260310-094152,1.0.2,20251105-084826,795,Experiment,Both,1,Automatic,main,65,20260310-094811,local,local,300,S,S,E,A,E-S.png,A-S.png,sS,sS,mask-1.png,mask-4.png,s,1,0.7075088999699801,s,1,0.05378909991122782,0.04717999999411404,0.04823549999855459,0.10085160005837679,0.10111019993200898,0.30118599999696016
RSVPLG03,md,20260310-094152,1.0.2,20251105-084826,795,Experiment,Both,1,Automatic,main,66,20260310-094815,global,local,750,H,H,A,E,H-A.png,E-H.png,hH,hH,mask-3.png,mask-3.png,h,1,0.3553196999710053,h,1,0.06404289999045432,0.04553650016896427,0.046277099987491965,0.09905429999344051,0.09963799989782274,0.7513501001521945
RSVPLG03,md,20260310-094152,1.0.2,20251105-084826,795,Experiment,Both,1,Automatic,main,67,20260310-094820,local,global,300,S,S,A,A,A-S.png,S-A.png,sS,sS,mask-1.png,mask-1.png,s,1,0.5324122000019997,s,1,0.08666209992952645,0.04740809998475015,0.04767069988884032,0.10062529984861612,0.0990841998718679,0.3017818999942392
RSVPLG03,md,20260310-094152,1.0.2,20251105-084826,795,Experiment,Both,1,Automatic,main,68,20260310-094824,global,local,750,H,S,A,A,H-A.png,A-S.png,hH,sS,mask-2.png,mask-3.png,h,1,0.4028028000611812,h,0,0.10953380004502833,0.047043099999427795,0.04804400005377829,0.09963020007126033,0.09966710000298917,0.7520473001059145
RSVPLG03,md,20260310-094152,1.0.2,20251105-084826,795,Experiment,Both,1,Automatic,main,69,20260310-094829,local,global,300,S,H,E,A,E-S.png,H-A.png,sS,hH,mask-3.png,mask-3.png,s,1,1.012463599909097,h,1,0.0473768999800086,0.04847989999689162,0.04835009993985295,0.10101559991016984,0.10089329979382455,0.300214400049299
RSVPLG03,md,20260310-094152,1.0.2,20251105-084826,795,Experiment,Both,1,Automatic,main,70,20260310-094833,local,global,300,H,S,E,E,E-H.png,S-E.png,hH,sS,mask-4.png,mask-2.png,s,0,1.4280493000987917,s,1,0.08022989984601736,0.04666640004143119,0.0482914000749588,0.09904050012119114,0.10013679997064173,0.3000277001410723
RSVPLG03,md,20260310-094152,1.0.2,20251105-084826,795,Experiment,Both,1,Automatic,main,71,20260310-094839,local,local,750,H,S,E,E,E-H.png,E-S.png,hH,sS,mask-3.png,mask-1.png,h,1,0.8131107999943197,s,1,0.20296070002950728,0.04578629997558892,0.04731329996138811,0.09820190002210438,0.10072329989634454,0.7506762000266463
RSVPLG03,md,20260310-094152,1.0.2,20251105-084826,795,Experiment,Both,1,Automatic,main,72,20260310-094844,global,local,750,H,H,A,E,H-A.png,E-H.png,hH,hH,mask-4.png,mask-4.png,h,1,0.5433261999860406,h,1,0.07416180009022355,0.04712200001813471,0.04720070003531873,0.09892030013725162,0.09957580012269318,0.7521983999758959
RSVPLG03,md,20260310-094152,1.0.2,20251105-084826,795,Experiment,Both,1,Automatic,main,73,20260310-094848,global,global,300,H,H,E,A,H-E.png,H-A.png,hH,hH,mask-3.png,mask-1.png,h,1,0.4102203999646008,h,1,0.07165980013087392,0.04719389998354018,0.04824539995752275,0.09988540015183389,0.10197069984860718,0.2990811001509428
RSVPLG03,md,20260310-094152,1.0.2,20251105-084826,795,Experiment,Both,1,Automatic,main,74,20260310-094852,local,global,750,S,S,A,A,A-S.png,S-A.png,sS,sS,mask-3.png,mask-3.png,s,1,0.9907706000376493,s,1,0.03868170012719929,0.04723800020292401,0.04484319989569485,0.09954480011947453,0.09718809998594224,0.7533933001104742
RSVPLG03,md,20260310-094152,1.0.2,20251105-084826,795,Experiment,Both,1,Automatic,main,75,20260310-094858,global,local,750,H,S,A,E,H-A.png,E-S.png,hH,sS,mask-4.png,mask-3.png,h,1,0.26860049995593727,s,1,0.037774400087073445,0.049734999891370535,0.046401199884712696,0.10313379997387528,0.09779589995741844,0.7545803999528289
RSVPLG03,md,20260310-094152,1.0.2,20251105-084826,795,Experiment,Both,1,Automatic,main,76,20260310-094905,local,local,300,S,H,A,E,A-S.png,E-H.png,sS,hH,mask-4.png,mask-1.png,s,1,2.507063400000334,s,0,0.34479870018549263,0.04820069996640086,0.0463338999543339,0.10064990003593266,0.09784689988009632,0.3030596000608057
RSVPLG03,md,20260310-094152,1.0.2,20251105-084826,795,Experiment,Both,1,Automatic,main,77,20260310-094911,global,global,750,S,S,A,E,S-A.png,S-E.png,sS,sS,mask-1.png,mask-2.png,h,0,0.445522400084883,s,1,0.054754799930378795,0.047338000033050776,0.04723970009945333,0.09885890013538301,0.10110580013133585,0.7510428000241518
RSVPLG03,md,20260310-094152,1.0.2,20251105-084826,795,Experiment,Both,1,Automatic,main,78,20260310-094916,local,local,750,H,H,E,A,E-H.png,A-H.png,hH,hH,mask-1.png,mask-3.png,h,1,0.07697069994173944,h,1,0.09277250012382865,0.0473386999219656,0.04832209995947778,0.10160119994543493,0.10037469980306923,0.7520930001046509
RSVPLG03,md,20260310-094152,1.0.2,20251105-084826,795,Experiment,Both,1,Automatic,main,79,20260310-094920,local,local,300,H,S,A,E,A-H.png,E-S.png,hH,sS,mask-4.png,mask-3.png,s,0,0.2921845999080688,h,0,0.6206217999570072,0.046204800019040704,0.04825590015389025,0.09873900003731251,0.10084099997766316,0.2991796999704093
RSVPLG03,md,20260310-094152,1.0.2,20251105-084826,795,Experiment,Both,1,Automatic,main,80,20260310-094925,global,local,300,S,H,A,A,S-A.png,A-H.png,sS,hH,mask-1.png,mask-3.png,s,1,1.7462975000962615,h,1,0.02818579995073378,0.04809840000234544,0.04830320016480982,0.1006481999065727,0.10065559996291995,0.30012389994226396
RSVPLG03,md,20260310-094152,1.0.2,20251105-084826,795,Experiment,Both,1,Automatic,main,81,20260310-094930,global,local,750,S,H,A,A,S-A.png,A-H.png,sS,hH,mask-2.png,mask-2.png,s,1,0.7102618000935763,h,1,0.12487099994905293,0.04658049996942282,0.04655660013668239,0.0990740000270307,0.09907669993117452,0.7517270999960601
RSVPLG03,md,20260310-094152,1.0.2,20251105-084826,795,Experiment,Both,1,Automatic,main,82,20260310-094935,global,global,750,S,S,E,E,S-E.png,S-E.png,sS,sS,mask-4.png,mask-3.png,s,1,0.3060823001433164,s,1,0.05544569995254278,0.04787799995392561,0.04734800010919571,0.10052039986476302,0.0996789000928402,0.7513911998830736
RSVPLG03,md,20260310-094152,1.0.2,20251105-084826,795,Experiment,Both,1,Automatic,main,83,20260310-094940,global,local,300,H,H,E,E,H-E.png,E-H.png,hH,hH,mask-4.png,mask-2.png,h,1,0.4775680999737233,s,0,0.04744620015844703,0.04823660012334585,0.049340799916535616,0.10239030001685023,0.10215819999575615,0.30105990008451045
RSVPLG03,md,20260310-094152,1.0.2,20251105-084826,795,Experiment,Both,1,Automatic,main,84,20260310-094944,local,local,300,S,S,A,A,A-S.png,A-S.png,sS,sS,mask-1.png,mask-1.png,s,1,0.2273107001092285,s,1,0.06331150000914931,0.0482530000153929,0.04824819997884333,0.09961810009554029,0.1031084000132978,0.3001294999849051
RSVPLG03,md,20260310-094152,1.0.2,20251105-084826,795,Experiment,Both,1,Automatic,main,85,20260310-094948,local,global,750,S,H,A,A,A-S.png,H-A.png,sS,hH,mask-4.png,mask-4.png,s,1,0.11418320005759597,s,0,0.0713595999404788,0.045811599818989635,0.04730329988524318,0.09927809983491898,0.10066700004972517,0.7515771999023855
RSVPLG03,md,20260310-094152,1.0.2,20251105-084826,795,Experiment,Both,1,Automatic,main,86,20260310-094952,global,local,300,H,H,A,E,H-A.png,E-H.png,hH,hH,mask-4.png,mask-1.png,h,1,1.3790152000728995,h,1,0.06009069993160665,0.04797050007618964,0.0467467000707984,0.10040670004673302,0.09849660005420446,0.3025144001003355
RSVPLG03,md,20260310-094152,1.0.2,20251105-084826,795,Experiment,Both,1,Automatic,main,87,20260310-094957,local,global,750,H,S,A,E,A-H.png,S-E.png,hH,sS,mask-4.png,mask-4.png,h,1,0.4185130000114441,h,0,0.06998930010013282,0.045773299876600504,0.04806630010716617,0.09870500001125038,0.10054420004598796,0.7500473998952657
RSVPLG03,md,20260310-094152,1.0.2,20251105-084826,795,Experiment,Both,1,Automatic,main,88,20260310-095002,global,local,750,H,H,E,A,H-E.png,A-H.png,hH,hH,mask-3.png,mask-1.png,h,1,0.33733920007944107,h,1,0.06021999986842275,0.04724200000055134,0.04706280003301799,0.10012580011971295,0.09909279993735254,0.7531600000802428
RSVPLG03,md,20260310-094152,1.0.2,20251105-084826,795,Experiment,Both,1,Automatic,main,89,20260310-095006,local,local,300,S,H,E,A,E-S.png,A-H.png,sS,hH,mask-2.png,mask-4.png,s,1,0.2612308000680059,s,0,0.05771940015256405,0.04721900005824864,0.04927659989334643,0.0996002999600023,0.10068839997984469,0.2992114999797195
RSVPLG03,md,20260310-094152,1.0.2,20251105-084826,795,Experiment,Both,1,Automatic,main,90,20260310-095010,local,local,750,S,H,E,A,E-S.png,A-H.png,sS,hH,mask-4.png,mask-2.png,s,1,0.21218999987468123,h,1,0.04201890015974641,0.04831510013900697,0.047080300049856305,0.10182370012626052,0.0998682000208646,0.7532858001068234
RSVPLG03,md,20260310-094152,1.0.2,20251105-084826,795,Experiment,Both,1,Automatic,main,91,20260310-095015,global,global,750,H,S,A,E,H-A.png,S-E.png,hH,sS,mask-2.png,mask-3.png,h,1,0.3686084998771548,s,1,0.05552039993926883,0.04811439989134669,0.04731660010293126,0.10059299995191395,0.09975260007195175,0.7527974999975413
RSVPLG03,md,20260310-094152,1.0.2,20251105-084826,795,Experiment,Both,1,Automatic,main,92,20260310-095019,global,global,750,H,S,E,A,H-E.png,S-A.png,hH,sS,mask-3.png,mask-4.png,h,1,0.32057219999842346,s,1,0.03226040001027286,0.047300799982622266,0.04780519986525178,0.10167070012539625,0.10135569982230663,0.7522971001453698
RSVPLG03,md,20260310-094152,1.0.2,20251105-084826,795,Experiment,Both,1,Automatic,main,93,20260310-095024,local,global,300,H,H,E,A,E-H.png,H-A.png,hH,hH,mask-3.png,mask-4.png,s,0,0.5805232001002878,h,1,0.025549300014972687,0.04616039991378784,0.048188399989157915,0.09851119993254542,0.10087940003722906,0.3000715998932719
RSVPLG03,md,20260310-094152,1.0.2,20251105-084826,795,Experiment,Both,1,Automatic,main,94,20260310-095028,global,local,750,H,S,A,E,H-A.png,E-S.png,hH,sS,mask-4.png,mask-1.png,h,1,0.07905890000984073,s,1,0.09547030017711222,0.0483963000588119,0.04734759987331927,0.09993909997865558,0.09958049980923533,0.7531982001382858
RSVPLG03,md,20260310-094152,1.0.2,20251105-084826,795,Experiment,Both,1,Automatic,main,95,20260310-095032,local,local,300,H,S,E,E,E-H.png,E-S.png,hH,sS,mask-4.png,mask-1.png,h,1,0.5329214001540095,s,1,0.18136060005053878,0.046161399921402335,0.047705299919471145,0.0996236999053508,0.10119080008007586,0.30035929987207055
RSVPLG03,md,20260310-094152,1.0.2,20251105-084826,795,Experiment,Both,1,Automatic,main,96,20260310-095037,local,local,750,H,H,E,E,E-H.png,E-H.png,hH,hH,mask-4.png,mask-3.png,h,1,0.4535050999838859,h,1,0.07127450010739267,0.04538329993374646,0.04822769993916154,0.09850459988228977,0.10061940015293658,0.7498989999294281
RSVPLG03,md,20260310-094152,1.0.2,20251105-084826,795,Experiment,Both,1,Automatic,main,97,20260310-095041,global,global,300,S,S,A,A,S-A.png,S-A.png,sS,sS,mask-3.png,mask-3.png,h,0,2.3695910999085754,s,1,0.030858400044962764,0.04847400006838143,0.04882200015708804,0.09976230002939701,0.10117959999479353,0.30081359995529056
RSVPLG03,md,20260310-094152,1.0.2,20251105-084826,795,Experiment,Both,1,Automatic,main,98,20260310-095047,local,local,300,S,S,E,A,E-S.png,A-S.png,sS,sS,mask-2.png,mask-1.png,s,1,0.48311159992590547,s,1,0.04122809995897114,0.04835579986684024,0.04699390009045601,0.10067309997975826,0.10059010004624724,0.3014357998035848
RSVPLG03,md,20260310-094152,1.0.2,20251105-084826,795,Experiment,Both,1,Automatic,main,99,20260310-095052,local,global,750,H,S,E,A,E-H.png,S-A.png,hH,sS,mask-3.png,mask-1.png,h,1,0.6572673001792282,s,1,0.03830270003527403,0.04794729989953339,0.048210099805146456,0.09961039992049336,0.10169289982877672,0.7516775000840425
RSVPLG03,md,20260310-094152,1.0.2,20251105-084826,795,Experiment,Both,1,Automatic,main,100,20260310-095057,global,local,750,S,H,A,A,S-A.png,A-H.png,sS,hH,mask-1.png,mask-1.png,s,1,1.02644530008547,h,1,0.05331109999679029,0.04747540014795959,0.04717839998193085,0.09990509995259345,0.09968480002135038,0.7522313001099974
