exp,exp_initials,runtime,ver,modtime,sub,blocktype,targets,cuetype,mode,trialtype,trial,trialtime,t1_level,t2_level,t2_lag,t1,t2,distractor1,distractor2,stimfile1,stimfile2,t1_corr,t2_corr,maskfile1,maskfile2,t1_resp,t1_acc,t1_rt,t2_resp,t2_acc,t2_rt,t1_dur,t2_dur,t1mask_soa,t2mask_soa,t1t2_soa
RSVPLG03,cs,20251022-105658,1.0.1,20251020-085245,709,Introduction,T1,1,Automatic,main,1,20251022-105731,local,global,750,S,S,E,A,E-S.png,S-A.png,sS,sS,mask-1.png,mask-2.png,s,1,2.509405400000105,none,-5,0,0.08911480000097072,0.0965548000021954,0.19042300000000978,0.19988609999563778,0.7415997999996762
RSVPLG03,cs,20251022-105658,1.0.1,20251020-085245,709,Introduction,T1,1,Automatic,main,2,20251022-105737,local,local,750,S,S,E,A,E-S.png,A-S.png,sS,sS,mask-1.png,mask-4.png,s,1,1.0316326999964076,none,-5,0,0.09855320000497159,0.09739669999544276,0.20040910000534495,0.20045399999798974,0.7503064000047743
RSVPLG03,cs,20251022-105658,1.0.1,20251020-085245,709,Introduction,T1,1,Automatic,main,3,20251022-105743,global,local,750,S,S,E,A,S-E.png,A-S.png,sS,sS,mask-1.png,mask-3.png,s,1,1.1553340000027674,none,-5,0,0.09856450000370387,0.0966614999997546,0.1992584000036004,0.19975450000492856,0.7507025000013527
RSVPLG03,cs,20251022-105658,1.0.1,20251020-085245,709,Introduction,T1,1,Automatic,main,4,20251022-105748,global,local,750,S,S,E,E,S-E.png,E-S.png,sS,sS,mask-1.png,mask-2.png,s,1,0.9929883000004338,none,-5,0,0.09742420000111451,0.09736469999916153,0.20028499999898486,0.20005959999980405,0.7503881000011461
RSVPLG03,cs,20251022-105658,1.0.1,20251020-085245,709,Introduction,T1,1,Automatic,main,5,20251022-105753,global,local,750,H,S,A,E,H-A.png,E-S.png,hH,sS,mask-2.png,mask-4.png,s,0,0.7027525999947102,none,-5,0,0.09743480000179261,0.09736839999823133,0.20016690000193194,0.20106319999467814,0.7502205000055255
RSVPLG03,cs,20251022-105658,1.0.1,20251020-085245,709,Introduction,T1,1,Automatic,main,6,20251022-105758,global,local,750,H,H,A,A,H-A.png,A-H.png,hH,hH,mask-4.png,mask-3.png,h,1,0.6200324000019464,none,-5,0,0.09761110000545159,0.0964148999992176,0.19962410000152886,0.1987165000027744,0.7498531000019284
RSVPLG03,cs,20251022-105658,1.0.1,20251020-085245,709,Introduction,T1,1,Automatic,main,7,20251022-105803,global,global,750,H,S,E,A,H-E.png,S-A.png,hH,sS,mask-1.png,mask-2.png,s,0,0.7783989000017755,none,-5,0,0.09602550000272458,0.09557420000055572,0.20007230000192067,0.20051740000053542,0.7498526000053971
RSVPLG03,cs,20251022-105658,1.0.1,20251020-085245,709,Introduction,T1,1,Automatic,main,8,20251022-105808,local,local,750,H,S,A,E,A-H.png,E-S.png,hH,sS,mask-2.png,mask-4.png,h,1,0.8821915000007721,none,-5,0,0.09817090000433382,0.09740769999916665,0.19993260000046575,0.19970359999570064,0.7503877000053762
RSVPLG03,cs,20251022-105658,1.0.1,20251020-085245,709,Introduction,T1,1,Automatic,main,9,20251022-105813,global,global,750,S,S,A,E,S-A.png,S-E.png,sS,sS,mask-4.png,mask-3.png,s,1,0.5347604999988107,none,-5,0,0.09597930000018096,0.09755040000163717,0.1990141999995103,0.20165149999957066,0.748277999999118
RSVPLG03,cs,20251022-105658,1.0.1,20251020-085245,709,Introduction,T1,1,Automatic,main,10,20251022-105818,global,global,750,S,S,A,A,S-A.png,S-A.png,sS,sS,mask-3.png,mask-4.png,s,1,0.5040089000031003,none,-5,0,0.09757030000037048,0.09639660000539152,0.19942859999719076,0.19927730000199517,0.7504628999959095
RSVPLG03,cs,20251022-105658,1.0.1,20251020-085245,709,Introduction,T1,1,Automatic,main,11,20251022-105822,local,global,750,S,S,E,A,E-S.png,S-A.png,sS,sS,mask-3.png,mask-2.png,s,1,0.5177516000039759,none,-5,0,0.09741370000119787,0.09938420000253245,0.19833800000196788,0.20003949999954784,0.7483420999997179
RSVPLG03,cs,20251022-105658,1.0.1,20251020-085245,709,Introduction,T1,1,Automatic,main,12,20251022-105827,local,global,750,S,H,E,A,E-S.png,H-A.png,sS,hH,mask-3.png,mask-1.png,h,0,0.4508362999986275,none,-5,0,0.0975073000008706,0.09728249999898253,0.20134410000173375,0.19995899999776157,0.7507784000044921
RSVPLG03,cs,20251022-105658,1.0.1,20251020-085245,709,Introduction,T1,1,Automatic,main,13,20251022-105832,local,local,750,S,S,A,A,A-S.png,A-S.png,sS,sS,mask-3.png,mask-3.png,h,0,0.9717011000029743,none,-5,0,0.09623149999970337,0.09759330000088084,0.20061370000621537,0.19962320000195177,0.7503970000034315
RSVPLG03,cs,20251022-105658,1.0.1,20251020-085245,709,Introduction,T1,1,Automatic,main,14,20251022-105837,local,local,750,S,S,E,E,E-S.png,E-S.png,sS,sS,mask-1.png,mask-1.png,s,1,0.5563309999997728,none,-5,0,0.0955857000008109,0.09892330000002403,0.19967120000364957,0.20218390000081854,0.7475145999997039
RSVPLG03,cs,20251022-105658,1.0.1,20251020-085245,709,Introduction,T1,1,Automatic,main,15,20251022-105842,global,global,750,H,H,E,E,H-E.png,H-E.png,hH,hH,mask-2.png,mask-1.png,h,1,0.36851369999931194,none,-5,0,0.09644090000074357,0.09643399999913527,0.19939000000158558,0.19937349999963772,0.750102700003481
RSVPLG03,cs,20251022-105658,1.0.1,20251020-085245,709,Introduction,T1,1,Automatic,main,16,20251022-105846,local,global,750,S,H,A,E,A-S.png,H-E.png,sS,hH,mask-3.png,mask-3.png,h,0,0.36284409999643685,none,-5,0,0.0962710000021616,0.09834389999741688,0.1995078000036301,0.20016710000345483,0.7489789000028395
RSVPLG03,cs,20251022-105937,1.0.1,20251020-085245,709,Practice,T1,1,Automatic,main,1,20251022-105958,global,global,300,S,S,E,E,S-E.png,S-E.png,sS,sS,mask-2.png,mask-2.png,s,1,0.7928510999990976,none,-5,0,0.04920539999875473,0.047684400000434835,0.1022921000039787,0.09978940000291914,0.30063130000053206
RSVPLG03,cs,20251022-105937,1.0.1,20251020-085245,709,Practice,T1,1,Automatic,main,2,20251022-110003,local,global,300,S,S,E,A,E-S.png,S-A.png,sS,sS,mask-2.png,mask-1.png,s,1,0.6269026000009035,none,-5,0,0.047042999998666346,0.04752169999846956,0.09917599999607773,0.09956989999773214,0.30084550000174204
RSVPLG03,cs,20251022-105937,1.0.1,20251020-085245,709,Practice,T1,1,Automatic,main,3,20251022-110007,global,local,300,S,S,E,A,S-E.png,A-S.png,sS,sS,mask-3.png,mask-4.png,s,1,0.45615850000467617,none,-5,0,0.04754569999931846,0.04852329999994254,0.09875579999788897,0.10053440000046976,0.2990758000014466
RSVPLG03,cs,20251022-105937,1.0.1,20251020-085245,709,Practice,T1,1,Automatic,main,4,20251022-110011,global,global,300,H,H,E,A,H-E.png,H-A.png,hH,hH,mask-4.png,mask-4.png,h,1,1.1288583999994444,none,-5,0,0.04755209999711951,0.04648680000536842,0.09968019999359967,0.09927950000565033,0.30095999999321066
RSVPLG03,cs,20251022-105937,1.0.1,20251020-085245,709,Practice,T1,1,Automatic,main,5,20251022-110016,local,local,750,S,S,A,A,A-S.png,A-S.png,sS,sS,mask-2.png,mask-1.png,h,0,0.44527930000185734,none,-5,0,0.04562019999866607,0.046513000001141336,0.09862959999736631,0.0995148000001791,0.749274100002367
RSVPLG03,cs,20251022-105937,1.0.1,20251020-085245,709,Practice,T1,1,Automatic,main,6,20251022-110020,local,local,300,H,H,A,E,A-H.png,E-H.png,hH,hH,mask-2.png,mask-3.png,s,0,0.9532661999983247,none,-5,0,0.047711299994261935,0.04570580000290647,0.0999353999941377,0.0999800999998115,0.3004653999960283
RSVPLG03,cs,20251022-105937,1.0.1,20251020-085245,709,Practice,T1,1,Automatic,main,7,20251022-110025,global,local,300,S,H,E,E,S-E.png,E-H.png,sS,hH,mask-2.png,mask-1.png,h,0,1.047466500000155,none,-5,0,0.047698300004412886,0.045732299993687775,0.09992179999971995,0.09992809999675956,0.30052790000627283
RSVPLG03,cs,20251022-105937,1.0.1,20251020-085245,709,Practice,T1,1,Automatic,main,8,20251022-110029,local,local,300,H,H,A,A,A-H.png,A-H.png,hH,hH,mask-2.png,mask-2.png,h,1,0.44977510000171605,none,-5,0,0.04769490000035148,0.046694600001501385,0.09990249999827938,0.10007169999880716,0.30040059999737423
RSVPLG03,cs,20251022-105937,1.0.1,20251020-085245,709,Practice,T1,1,Automatic,main,9,20251022-110033,local,global,300,S,S,E,E,E-S.png,S-E.png,sS,sS,mask-3.png,mask-2.png,s,1,0.46343530000012834,none,-5,0,0.04826119999779621,0.04762330000085058,0.0994286999994074,0.10072629999922356,0.2998669000007794
RSVPLG03,cs,20251022-105937,1.0.1,20251020-085245,709,Practice,T1,1,Automatic,main,10,20251022-110037,global,global,750,S,S,A,E,S-A.png,S-E.png,sS,sS,mask-3.png,mask-3.png,h,0,0.6091061999977683,none,-5,0,0.047381600001244806,0.04677559999981895,0.0983937999990303,0.09966250000434229,0.7482549999986077
RSVPLG03,cs,20251022-105937,1.0.1,20251020-085245,709,Practice,T1,1,Automatic,main,11,20251022-110042,global,global,750,S,S,A,A,S-A.png,S-A.png,sS,sS,mask-3.png,mask-1.png,s,1,0.47944709999865154,none,-5,0,0.04763929999899119,0.047735399995872285,0.10161280000465922,0.09883289999561384,0.7508148000051733
RSVPLG03,cs,20251022-105937,1.0.1,20251020-085245,709,Practice,T1,1,Automatic,main,12,20251022-110046,local,local,750,H,H,E,E,E-H.png,E-H.png,hH,hH,mask-2.png,mask-3.png,h,1,0.31227019999641925,none,-5,0,0.046508599996741395,0.04644150000240188,0.09952769999654265,0.09844629999861354,0.7499700999978813
RSVPLG03,cs,20251022-105937,1.0.1,20251020-085245,709,Practice,T1,1,Automatic,main,13,20251022-110051,local,global,750,S,H,E,E,E-S.png,H-E.png,sS,hH,mask-3.png,mask-1.png,s,1,0.3161623000050895,none,-5,0,0.046685299996170215,0.046696999997948296,0.09991079999599606,0.09988670000166167,0.7497872999956599
RSVPLG03,cs,20251022-105937,1.0.1,20251020-085245,709,Practice,T1,1,Automatic,main,14,20251022-110055,local,global,750,H,S,E,E,E-H.png,S-E.png,hH,sS,mask-2.png,mask-2.png,h,1,0.5093555999992532,none,-5,0,0.04866549999860581,0.04774349999934202,0.10225370000262046,0.09997960000328021,0.750202299997909
RSVPLG03,cs,20251022-105937,1.0.1,20251020-085245,709,Practice,T1,1,Automatic,main,15,20251022-110100,global,local,750,H,S,E,E,H-E.png,E-S.png,hH,sS,mask-1.png,mask-2.png,s,0,0.32934430000022985,none,-5,0,0.04769430000305874,0.04772220000450034,0.1009252000003471,0.09991360000276472,0.7507346999991569
RSVPLG03,cs,20251022-105937,1.0.1,20251020-085245,709,Practice,T1,1,Automatic,main,16,20251022-110104,global,local,750,S,H,E,A,S-E.png,A-H.png,sS,hH,mask-4.png,mask-4.png,h,0,0.32398960000136867,none,-5,0,0.04639490000408841,0.04669640000065556,0.09927220000099624,0.0981437999944319,0.7491647000060766
RSVPLG03,cs,20251022-110128,1.0.1,20251020-085245,709,Practice,T1,1,Automatic,main,1,20251022-110153,global,local,750,H,S,E,A,H-E.png,A-S.png,hH,sS,mask-1.png,mask-2.png,h,1,0.6111893999986933,none,-5,0,0.04455289999896195,0.04676309999922523,0.09794729999703122,0.10003579999465728,0.7483584000001429
RSVPLG03,cs,20251022-110128,1.0.1,20251020-085245,709,Practice,T1,1,Automatic,main,2,20251022-110157,local,local,750,S,H,E,E,E-S.png,E-H.png,sS,hH,mask-3.png,mask-2.png,s,1,0.5141308999955072,none,-5,0,0.04571600000053877,0.04762249999475898,0.0999158000049647,0.0997605999946245,0.7496816000057152
RSVPLG03,cs,20251022-110128,1.0.1,20251020-085245,709,Practice,T1,1,Automatic,main,3,20251022-110202,local,global,750,S,S,A,E,A-S.png,S-E.png,sS,sS,mask-3.png,mask-3.png,s,1,0.47252470000239555,none,-5,0,0.04768060000060359,0.04772360000060871,0.10202070000377716,0.09992849999980535,0.7511567000037758
RSVPLG03,cs,20251022-110128,1.0.1,20251020-085245,709,Practice,T1,1,Automatic,main,4,20251022-110206,global,global,300,H,H,A,E,H-A.png,H-E.png,hH,hH,mask-2.png,mask-4.png,h,1,0.49555379999947036,none,-5,0,0.04849110000213841,0.04759380000177771,0.10053380000317702,0.09964070000569336,0.3008373999982723
RSVPLG03,cs,20251022-110128,1.0.1,20251020-085245,709,Practice,T1,1,Automatic,main,5,20251022-110211,local,global,300,S,H,A,A,A-S.png,H-A.png,sS,hH,mask-3.png,mask-1.png,s,1,0.4529139000005671,none,-5,0,0.045516500002122484,0.047507999996014405,0.09946789999958128,0.10139840000192635,0.29807930000242777
RSVPLG03,cs,20251022-110128,1.0.1,20251020-085245,709,Practice,T1,1,Automatic,main,6,20251022-110215,local,local,300,H,S,A,A,A-H.png,A-S.png,hH,sS,mask-4.png,mask-4.png,h,1,1.0224023999981,none,-5,0,0.0475289999958477,0.04847919999883743,0.098421499998949,0.10033999999723164,0.29822689999855356
RSVPLG03,cs,20251022-110128,1.0.1,20251020-085245,709,Practice,T1,1,Automatic,main,7,20251022-110219,global,global,750,H,S,A,E,H-A.png,S-E.png,hH,sS,mask-2.png,mask-4.png,s,0,0.584409200004302,none,-5,0,0.047522000000753906,0.04638110000087181,0.10154400000465102,0.09922830000141403,0.7516886000012164
RSVPLG03,cs,20251022-110128,1.0.1,20251020-085245,709,Practice,T1,1,Automatic,main,8,20251022-110224,local,global,300,S,H,A,A,A-S.png,H-A.png,sS,hH,mask-4.png,mask-1.png,s,1,0.4433920000010403,none,-5,0,0.04720680000173161,0.045801500004017726,0.09823470000264933,0.10038709999935236,0.29912229999899864
RSVPLG03,cs,20251022-110128,1.0.1,20251020-085245,709,Practice,T1,1,Automatic,main,9,20251022-110228,local,global,750,S,S,E,A,E-S.png,S-A.png,sS,sS,mask-2.png,mask-2.png,s,1,0.36519189999671653,none,-5,0,0.048449399997480214,0.047975099994800985,0.10084339999593794,0.0990038999952958,0.7515133999986574
RSVPLG03,cs,20251022-110128,1.0.1,20251020-085245,709,Practice,T1,1,Automatic,main,10,20251022-110232,global,local,750,H,H,E,A,H-E.png,A-H.png,hH,hH,mask-1.png,mask-2.png,h,1,0.3633214000001317,none,-5,0,0.047234500001650304,0.04674160000286065,0.10031050000543473,0.10070070000074338,0.7496325000029174
RSVPLG03,cs,20251022-110128,1.0.1,20251020-085245,709,Practice,T1,1,Automatic,main,11,20251022-110236,global,global,300,H,H,E,A,H-E.png,H-A.png,hH,hH,mask-3.png,mask-1.png,h,1,0.856222099995648,none,-5,0,0.04652749999513617,0.0475908000007621,0.10070369999448303,0.10087909999856493,0.29916879999655066
RSVPLG03,cs,20251022-110128,1.0.1,20251020-085245,709,Practice,T1,1,Automatic,main,12,20251022-110241,local,local,300,H,H,E,E,E-H.png,E-H.png,hH,hH,mask-2.png,mask-2.png,h,1,0.4990890999979456,none,-5,0,0.04767659999924945,0.047831899995799176,0.09979279999970458,0.10035919999791076,0.29869699999835575
RSVPLG03,cs,20251022-110128,1.0.1,20251020-085245,709,Practice,T1,1,Automatic,main,13,20251022-110245,global,local,300,S,H,A,A,S-A.png,A-H.png,sS,hH,mask-4.png,mask-1.png,h,0,0.711467499997525,none,-5,0,0.046518000002834015,0.04789670000172919,0.10071089999837568,0.10006580000481335,0.30000519999885
RSVPLG03,cs,20251022-110128,1.0.1,20251020-085245,709,Practice,T1,1,Automatic,main,14,20251022-110249,global,local,300,H,H,A,A,H-A.png,A-H.png,hH,hH,mask-2.png,mask-1.png,h,1,0.656202400001348,none,-5,0,0.04728569999861065,0.04885389999981271,0.10011079999821959,0.10105209999892395,0.29933729999902425
RSVPLG03,cs,20251022-110128,1.0.1,20251020-085245,709,Practice,T1,1,Automatic,main,15,20251022-110253,local,local,750,S,H,A,A,A-S.png,A-H.png,sS,hH,mask-2.png,mask-4.png,s,1,2.094639199996891,none,-5,0,0.04855610000231536,0.04740250000031665,0.09966720000375062,0.09931720000167843,0.7502650000024005
RSVPLG03,cs,20251022-110128,1.0.1,20251020-085245,709,Practice,T1,1,Automatic,main,16,20251022-110300,global,global,750,H,H,A,A,H-A.png,H-A.png,hH,hH,mask-3.png,mask-3.png,h,1,0.619450300000608,none,-5,0,0.04855479999969248,0.046598000000813045,0.09964610000315588,0.0992679999981192,0.7502387999993516
RSVPLG03,cs,20251022-110525,1.0.1,20251020-085245,709,Introduction,Both,1,Automatic,main,1,20251022-110550,local,local,750,S,H,E,E,E-S.png,E-H.png,sS,hH,mask-2.png,mask-3.png,s,1,0.633871400001226,h,1,1.1614983999970718,0.09134050000284333,0.09575089999998454,0.19424419999995735,0.1998953000002075,0.744506499999261
RSVPLG03,cs,20251022-110525,1.0.1,20251020-085245,709,Introduction,Both,1,Automatic,main,2,20251022-110557,global,local,750,S,H,E,A,S-E.png,A-H.png,sS,hH,mask-4.png,mask-2.png,h,0,1.8376152999990154,h,1,0.14971030000015162,0.09860740000294754,0.09829919999901904,0.2004956000018865,0.20106189999933122,0.7493409000016982
RSVPLG03,cs,20251022-110525,1.0.1,20251020-085245,709,Introduction,Both,1,Automatic,main,3,20251022-110603,local,local,750,H,H,E,E,E-H.png,E-H.png,hH,hH,mask-1.png,mask-4.png,h,1,0.5130366999947,h,1,0.09262600000511156,0.09659790000296198,0.0975585999985924,0.19998330000089481,0.2000800000023446,0.748187199998938
RSVPLG03,cs,20251022-110525,1.0.1,20251020-085245,709,Introduction,Both,1,Automatic,main,4,20251022-110608,local,global,750,S,S,E,E,E-S.png,S-E.png,sS,sS,mask-4.png,mask-4.png,s,1,0.5413274000020465,s,1,0.15090349999809405,0.09607130000222242,0.09759750000375789,0.20025999999779742,0.1986375999986194,0.7499977999978
RSVPLG03,cs,20251022-110525,1.0.1,20251020-085245,709,Introduction,Both,1,Automatic,main,5,20251022-110613,global,global,750,S,S,A,E,S-A.png,S-E.png,sS,sS,mask-2.png,mask-3.png,s,1,1.0240168999953312,h,0,0.45864979999896605,0.09749949999968521,0.09710700000141514,0.19824959999823477,0.1991282000017236,0.7487554999970598
RSVPLG03,cs,20251022-110525,1.0.1,20251020-085245,709,Introduction,Both,1,Automatic,main,6,20251022-110619,global,local,750,H,S,A,E,H-A.png,E-S.png,hH,sS,mask-4.png,mask-1.png,h,1,0.4743391999945743,s,1,0.15490399999544024,0.09646120000252267,0.09745449999900302,0.20034840000153054,0.20115710000391118,0.7486590999978944
RSVPLG03,cs,20251022-110525,1.0.1,20251020-085245,709,Introduction,Both,1,Automatic,main,7,20251022-110623,local,global,750,H,H,E,E,E-H.png,H-E.png,hH,hH,mask-1.png,mask-2.png,s,0,1.203641100000823,h,1,0.13718510000035167,0.09822949999943376,0.09769930000038585,0.19895879999967292,0.20127080000384012,0.7489726999992854
RSVPLG03,cs,20251022-110525,1.0.1,20251020-085245,709,Introduction,Both,1,Automatic,main,8,20251022-110629,global,global,750,S,H,A,E,S-A.png,H-E.png,sS,hH,mask-4.png,mask-2.png,s,1,0.7146331999974791,s,0,0.13925030000245897,0.09599319999688305,0.09846709999692393,0.19990510000206996,0.20139019999623997,0.7485028000010061
RSVPLG03,cs,20251022-110525,1.0.1,20251020-085245,709,Introduction,Both,1,Automatic,main,9,20251022-110634,local,local,750,S,S,E,A,E-S.png,A-S.png,sS,sS,mask-2.png,mask-4.png,s,1,0.4731545999966329,h,0,0.1510541000025114,0.09750500000518514,0.09752930000104243,0.20047240000712918,0.2002439999996568,0.7501866000020527
RSVPLG03,cs,20251022-110525,1.0.1,20251020-085245,709,Introduction,Both,1,Automatic,main,10,20251022-110639,global,local,750,S,S,A,A,S-A.png,A-S.png,sS,sS,mask-4.png,mask-2.png,s,1,0.6520681999973021,s,1,0.16946929999539861,0.09749780000129249,0.09855950000201119,0.2013645999977598,0.19962759999907576,0.7500455999979749
RSVPLG03,cs,20251022-110525,1.0.1,20251020-085245,709,Introduction,Both,1,Automatic,main,11,20251022-110644,local,local,750,S,S,E,A,E-S.png,A-S.png,sS,sS,mask-1.png,mask-2.png,s,1,0.5355080999943311,h,0,0.11334599999827333,0.0974015000028885,0.09869260000414215,0.19827839999925345,0.19974209999782033,0.7483079000012367
RSVPLG03,cs,20251022-110525,1.0.1,20251020-085245,709,Introduction,Both,1,Automatic,main,12,20251022-110649,global,local,750,H,H,E,A,H-E.png,A-H.png,hH,hH,mask-3.png,mask-3.png,h,1,0.7292536000022665,h,1,0.0846559999990859,0.09582389999559382,0.09737220000533853,0.19927640000241809,0.20022600000083912,0.7484152999968501
RSVPLG03,cs,20251022-110525,1.0.1,20251020-085245,709,Introduction,Both,1,Automatic,main,13,20251022-110654,local,global,750,S,H,E,A,E-S.png,H-A.png,sS,hH,mask-4.png,mask-2.png,s,1,0.3219126999974833,h,1,0.10198810000292724,0.0975583999970695,0.0975689999977476,0.2017305999979726,0.20068929999979446,0.7494994000007864
RSVPLG03,cs,20251022-110525,1.0.1,20251020-085245,709,Introduction,Both,1,Automatic,main,14,20251022-110659,local,global,750,S,S,A,A,A-S.png,S-A.png,sS,sS,mask-2.png,mask-1.png,s,1,0.5965039000002434,h,0,0.12403210000047693,0.09870930000033695,0.09703330000047572,0.201172699999006,0.20009120000031544,0.7512807000020985
RSVPLG03,cs,20251022-110525,1.0.1,20251020-085245,709,Introduction,Both,1,Automatic,main,15,20251022-110704,global,global,750,H,H,A,A,H-A.png,H-A.png,hH,hH,mask-2.png,mask-3.png,h,1,0.5009427000040887,h,1,0.08827699999528704,0.09644059999845922,0.09724270000151591,0.1985354999997071,0.19983910000155447,0.7485251999969478
RSVPLG03,cs,20251022-110525,1.0.1,20251020-085245,709,Introduction,Both,1,Automatic,main,16,20251022-110709,global,global,750,S,S,A,A,S-A.png,S-A.png,sS,sS,mask-3.png,mask-3.png,s,1,0.6102199000015389,s,1,0.13972739999735495,0.09684109999943757,0.0974765999999363,0.19965439999941736,0.20045630000095116,0.7504564999981085
RSVPLG03,cs,20251022-110736,1.0.1,20251020-085245,709,Practice,Both,1,Automatic,main,1,20251022-110805,local,global,300,S,S,E,E,E-S.png,S-E.png,sS,sS,mask-3.png,mask-1.png,s,1,0.47999849999905564,s,1,0.08961229999840725,0.046837000001687557,0.046731499998713844,0.09892759999638656,0.099822199998016,0.2993872000006377
RSVPLG03,cs,20251022-110736,1.0.1,20251020-085245,709,Practice,Both,1,Automatic,main,2,20251022-110809,local,global,750,H,S,E,A,E-H.png,S-A.png,hH,sS,mask-3.png,mask-4.png,s,0,0.46272049999970477,h,0,0.027235499997914303,0.046733299997868016,0.04678520000015851,0.09884089999832213,0.09885879999637837,0.7477757000015117
RSVPLG03,cs,20251022-110736,1.0.1,20251020-085245,709,Practice,Both,1,Automatic,main,3,20251022-110814,local,local,750,S,H,A,E,A-S.png,E-H.png,sS,hH,mask-1.png,mask-4.png,h,0,0.44245149999915157,h,1,0.06933399999979883,0.04755479999585077,0.04696240000339458,0.09857769999507582,0.09970370000519324,0.7481777999928454
RSVPLG03,cs,20251022-110736,1.0.1,20251020-085245,709,Practice,Both,1,Automatic,main,4,20251022-110818,local,global,750,H,S,A,A,A-H.png,S-A.png,hH,sS,mask-4.png,mask-1.png,h,1,0.44430869999632705,s,1,0.09136810000200057,0.04718400000274414,0.04777530000137631,0.09928539999964414,0.10012039999855915,0.7479189000005135
RSVPLG03,cs,20251022-110736,1.0.1,20251020-085245,709,Practice,Both,1,Automatic,main,5,20251022-110823,global,local,300,H,S,A,E,H-A.png,E-S.png,hH,sS,mask-4.png,mask-1.png,h,1,0.4956720999980462,h,0,0.09139839999988908,0.04670079999777954,0.04767889999493491,0.09926719999930356,0.10058439999556867,0.2993203000005451
RSVPLG03,cs,20251022-110736,1.0.1,20251020-085245,709,Practice,Both,1,Automatic,main,6,20251022-110827,global,global,750,S,H,E,E,S-E.png,H-E.png,sS,hH,mask-4.png,mask-1.png,s,1,0.4901504999943427,h,1,0.17975860000296962,0.04752800000278512,0.04738240000006044,0.10070490000362042,0.09913410000444856,0.750220599999011
RSVPLG03,cs,20251022-110736,1.0.1,20251020-085245,709,Practice,Both,1,Automatic,main,7,20251022-110832,global,global,300,S,H,A,E,S-A.png,H-E.png,sS,hH,mask-3.png,mask-2.png,s,1,0.44932410000183154,h,1,0.08567210000182968,0.046537300004274584,0.04683239999576472,0.09891970000171568,0.09864209999796003,0.29983570000331383
RSVPLG03,cs,20251022-110736,1.0.1,20251020-085245,709,Practice,Both,1,Automatic,main,8,20251022-110836,local,local,300,S,S,E,E,E-S.png,E-S.png,sS,sS,mask-4.png,mask-2.png,s,1,0.4544564000025275,s,1,0.07696949999808567,0.0467179000042961,0.04720599999564001,0.10002580000582384,0.09995749999507098,0.299201500005438
RSVPLG03,cs,20251022-110736,1.0.1,20251020-085245,709,Practice,Both,1,Automatic,main,9,20251022-110841,local,global,300,S,H,A,E,A-S.png,H-E.png,sS,hH,mask-4.png,mask-1.png,s,1,0.36153490000288,h,1,0.07139920000190614,0.046114299999317154,0.04652859999623615,0.0992504000023473,0.09971489999588812,0.2993770000030054
RSVPLG03,cs,20251022-110736,1.0.1,20251020-085245,709,Practice,Both,1,Automatic,main,10,20251022-110845,local,local,300,S,S,A,A,A-S.png,A-S.png,sS,sS,mask-4.png,mask-4.png,s,1,0.44639720000122907,h,0,0.12431349999678787,0.04851349999808008,0.04752399999415502,0.10060250000242377,0.10052129999530734,0.2998910000023898
RSVPLG03,cs,20251022-110736,1.0.1,20251020-085245,709,Practice,Both,1,Automatic,main,11,20251022-110849,global,local,750,S,S,E,A,S-E.png,A-S.png,sS,sS,mask-1.png,mask-1.png,h,0,0.5706274000040139,h,0,0.09135390000301413,0.04652110000461107,0.04756909999559866,0.09854140000243206,0.1005864999970072,0.7467145000046003
RSVPLG03,cs,20251022-110736,1.0.1,20251020-085245,709,Practice,Both,1,Automatic,main,12,20251022-110854,global,global,300,S,H,E,E,S-E.png,H-E.png,sS,hH,mask-3.png,mask-3.png,s,1,0.4547467999946093,h,1,0.03869410000334028,0.04769349999696715,0.04795939999894472,0.10076489999482874,0.10000939999736147,0.2990427999975509
RSVPLG03,cs,20251022-110736,1.0.1,20251020-085245,709,Practice,Both,1,Automatic,main,13,20251022-110858,global,global,750,H,H,E,E,H-E.png,H-E.png,hH,hH,mask-4.png,mask-1.png,h,1,0.4880690999998478,h,1,0.07410600000002887,0.04771970000001602,0.048685500005376525,0.09894149999308866,0.09893270000611665,0.7471420999936527
RSVPLG03,cs,20251022-110736,1.0.1,20251020-085245,709,Practice,Both,1,Automatic,main,14,20251022-110903,local,local,750,H,S,A,A,A-H.png,A-S.png,hH,sS,mask-3.png,mask-1.png,h,1,0.39841270000033546,h,0,0.06831550000060815,0.04713110000011511,0.04836860000068555,0.10198089999903459,0.10010139999940293,0.7490476999955717
RSVPLG03,cs,20251022-110736,1.0.1,20251020-085245,709,Practice,Both,1,Automatic,main,15,20251022-110907,global,local,300,H,S,A,A,H-A.png,A-S.png,hH,sS,mask-2.png,mask-4.png,h,1,0.5867912000030628,s,1,0.10279300000547664,0.04781359999469714,0.04867849999573082,0.10004539999499684,0.09988609999709297,0.29858170000079554
RSVPLG03,cs,20251022-110736,1.0.1,20251020-085245,709,Practice,Both,1,Automatic,main,16,20251022-110912,global,local,750,H,H,A,A,H-A.png,A-H.png,hH,hH,mask-2.png,mask-3.png,h,1,0.5078528999947594,h,1,0.07276239999919198,0.04851329999655718,0.048547800004598685,0.09991140000056475,0.09997039999871049,0.7483617999969283
RSVPLG03,cs,20251022-111215,1.0.1,20251020-085245,709,Experiment,Both,1,Automatic,warmup,1,20251022-111245,local,global,300,H,H,E,E,E-H.png,H-E.png,hH,hH,mask-2.png,mask-1.png,s,0,0.7694017000030726,h,1,0.26526279999961844,0.040101400001731236,0.04762259999552043,0.09092660000169417,0.09955049999553012,0.2912914000044111
RSVPLG03,cs,20251022-111215,1.0.1,20251020-085245,709,Experiment,Both,1,Automatic,warmup,2,20251022-111250,global,global,300,S,H,E,A,S-E.png,H-A.png,sS,hH,mask-2.png,mask-4.png,s,1,0.4404608999975608,h,1,0.29697529999975814,0.04869889999827137,0.04862620000494644,0.09994040000310633,0.09917420000419952,0.29960079999727895
RSVPLG03,cs,20251022-111215,1.0.1,20251020-085245,709,Experiment,Both,1,Automatic,warmup,3,20251022-111254,global,local,750,S,S,E,A,S-E.png,A-S.png,sS,sS,mask-3.png,mask-2.png,s,1,0.6960233999998309,h,0,0.13965099999768427,0.04769099999975879,0.04769759999908274,0.10013299999991432,0.09960259999934351,0.7484395999999833
RSVPLG03,cs,20251022-111215,1.0.1,20251020-085245,709,Experiment,Both,1,Automatic,warmup,4,20251022-111259,local,global,750,S,S,E,E,E-S.png,S-E.png,sS,sS,mask-1.png,mask-2.png,h,0,1.1983477999965544,s,1,0.06667790000210516,0.047398800001246855,0.047541599997202866,0.09940780000033556,0.10058930000377586,0.7491460000019288
RSVPLG03,cs,20251022-111215,1.0.1,20251020-085245,709,Experiment,Both,1,Automatic,warmup,5,20251022-111305,global,global,750,H,S,E,A,H-E.png,S-A.png,hH,sS,mask-1.png,mask-4.png,s,0,1.4085253999946872,s,1,0.08338950000324985,0.04770270000153687,0.04663829999481095,0.09993099999701371,0.09971819999918807,0.750502900002175
RSVPLG03,cs,20251022-111215,1.0.1,20251020-085245,709,Experiment,Both,1,Automatic,main,6,20251022-111310,global,local,750,H,S,E,E,H-E.png,E-S.png,hH,sS,mask-2.png,mask-3.png,h,1,0.5213671000019531,s,1,0.13342310000007274,0.046554599997762125,0.04657940000470262,0.09969049999926938,0.1006723000027705,0.7487838999950327
RSVPLG03,cs,20251022-111215,1.0.1,20251020-085245,709,Experiment,Both,1,Automatic,main,7,20251022-111315,local,global,750,H,S,A,A,A-H.png,S-A.png,hH,sS,mask-4.png,mask-4.png,h,1,0.9107290000029025,h,0,0.5967133000012836,0.04756240000278922,0.047555999997712206,0.1015631000045687,0.0995381999964593,0.7501908000049298
RSVPLG03,cs,20251022-111215,1.0.1,20251020-085245,709,Experiment,Both,1,Automatic,main,8,20251022-111321,global,global,750,S,S,E,E,S-E.png,S-E.png,sS,sS,mask-4.png,mask-1.png,s,1,0.9126021000047331,s,1,0.14031360000080895,0.046564099997340236,0.04731789999641478,0.09863639999821316,0.10096689999772934,0.7483103999984451
RSVPLG03,cs,20251022-111215,1.0.1,20251020-085245,709,Experiment,Both,1,Automatic,main,9,20251022-111326,global,local,300,S,H,E,E,S-E.png,E-H.png,sS,hH,mask-3.png,mask-3.png,s,1,0.5462142999967909,s,0,0.06478900000365684,0.04609129999880679,0.048714999997173436,0.09834069999487838,0.10093019999476383,0.29788399999961257
RSVPLG03,cs,20251022-111215,1.0.1,20251020-085245,709,Experiment,Both,1,Automatic,main,10,20251022-111330,local,local,300,S,S,A,A,A-S.png,A-S.png,sS,sS,mask-4.png,mask-2.png,s,1,1.3959946000031778,h,0,0.06091690000175731,0.04758669999864651,0.047740399997564964,0.09963189999689348,0.09996959999989485,0.29950280000048224
RSVPLG03,cs,20251022-111215,1.0.1,20251020-085245,709,Experiment,Both,1,Automatic,main,11,20251022-111336,local,global,750,H,H,A,E,A-H.png,H-E.png,hH,hH,mask-3.png,mask-2.png,h,1,0.6392788000011933,s,0,0.028186099996673875,0.04865050000080373,0.047673200002464,0.09999500000412809,0.1009150000027148,0.7492278999998234
RSVPLG03,cs,20251022-111215,1.0.1,20251020-085245,709,Experiment,Both,1,Automatic,main,12,20251022-111340,global,global,300,H,H,A,E,H-A.png,H-E.png,hH,hH,mask-2.png,mask-4.png,h,1,0.5994298000005074,h,1,0.705991399998311,0.04775820000213571,0.04671500000404194,0.10097200000018347,0.09994540000479901,0.30067979999876115
RSVPLG03,cs,20251022-111215,1.0.1,20251020-085245,709,Experiment,Both,1,Automatic,main,13,20251022-111346,local,global,750,S,H,E,A,E-S.png,H-A.png,sS,hH,mask-1.png,mask-3.png,s,1,0.5127314000055776,h,1,0.08971909999672789,0.04672969999955967,0.048376100006862544,0.09788359999947716,0.10032750000391388,0.7471109999969485
RSVPLG03,cs,20251022-111215,1.0.1,20251020-085245,709,Experiment,Both,1,Automatic,main,14,20251022-111350,global,local,750,S,H,E,E,S-E.png,E-H.png,sS,hH,mask-2.png,mask-3.png,s,1,0.4128580000033253,h,1,0.0754289999968023,0.046525199999450706,0.047520399995846674,0.09952029999840306,0.1005345999947167,0.7489974999989499
RSVPLG03,cs,20251022-111215,1.0.1,20251020-085245,709,Experiment,Both,1,Automatic,main,15,20251022-111355,global,global,750,S,S,A,A,S-A.png,S-A.png,sS,sS,mask-3.png,mask-4.png,s,1,0.9273895000005723,s,1,0.09225169999990612,0.04651449999801116,0.04814330000226619,0.09958100000221748,0.09996120000141673,0.7476124999957392
RSVPLG03,cs,20251022-111215,1.0.1,20251020-085245,709,Experiment,Both,1,Automatic,main,16,20251022-111400,local,global,750,S,S,A,E,A-S.png,S-E.png,sS,sS,mask-1.png,mask-2.png,s,1,0.5414844999977504,s,1,0.06579400000191526,0.04752619999635499,0.047517699997115415,0.10017969999898924,0.10053180000249995,0.7492313999973703
RSVPLG03,cs,20251022-111215,1.0.1,20251020-085245,709,Experiment,Both,1,Automatic,main,17,20251022-111405,local,local,750,H,H,E,A,E-H.png,A-H.png,hH,hH,mask-2.png,mask-1.png,s,0,0.49379290000069886,h,1,0.03280629999790108,0.04771140000229934,0.04771289999916917,0.09899749999749474,0.09987859999819193,0.7484645000004093
RSVPLG03,cs,20251022-111215,1.0.1,20251020-085245,709,Experiment,Both,1,Automatic,main,18,20251022-111409,global,global,750,S,H,A,A,S-A.png,H-A.png,sS,hH,mask-3.png,mask-3.png,s,1,0.8296084000030532,h,1,0.12432070000068052,0.0477175999985775,0.04676340000150958,0.09943550000025425,0.10095110000111163,0.7489742999969167
RSVPLG03,cs,20251022-111215,1.0.1,20251020-085245,709,Experiment,Both,1,Automatic,main,19,20251022-111415,local,local,750,S,H,E,A,E-S.png,A-H.png,sS,hH,mask-3.png,mask-3.png,s,1,0.45273029999952996,h,1,0.04171719999430934,0.04760089999763295,0.04758179999771528,0.10161469999729889,0.09989389999827836,0.7504027999966638
RSVPLG03,cs,20251022-111215,1.0.1,20251020-085245,709,Experiment,Both,1,Automatic,main,20,20251022-111419,local,global,750,H,S,A,A,A-H.png,S-A.png,hH,sS,mask-4.png,mask-1.png,h,1,0.3852192999984254,s,1,0.14971299999888288,0.04739459999836981,0.046716299999388866,0.10043340000265744,0.10001159999956144,0.7506395000018529
RSVPLG03,cs,20251022-111215,1.0.1,20251020-085245,709,Experiment,Both,1,Automatic,main,21,20251022-111424,global,global,300,S,H,E,E,S-E.png,H-E.png,sS,hH,mask-2.png,mask-1.png,s,1,0.6034538999956567,h,1,0.06965869999839924,0.0478616000036709,0.047538800004986115,0.10130340000614524,0.09956500000407686,0.30013830000098096
RSVPLG03,cs,20251022-111215,1.0.1,20251020-085245,709,Experiment,Both,1,Automatic,main,22,20251022-111428,global,local,300,S,S,E,A,S-E.png,A-S.png,sS,sS,mask-4.png,mask-4.png,s,1,0.5958590000009281,h,0,0.07124240000121063,0.04733760000090115,0.047703500000352506,0.10127030000148807,0.09991579999768874,0.2994981000010739
RSVPLG03,cs,20251022-111215,1.0.1,20251020-085245,709,Experiment,Both,1,Automatic,main,23,20251022-111433,local,global,750,H,H,A,A,A-H.png,H-A.png,hH,hH,mask-3.png,mask-2.png,h,1,0.5939212000012049,h,1,0.08108699999866076,0.04769460000534309,0.04777499999909196,0.09991090000403346,0.09998949999862816,0.7483967000007397
RSVPLG03,cs,20251022-111215,1.0.1,20251020-085245,709,Experiment,Both,1,Automatic,main,24,20251022-111438,local,local,750,S,H,A,A,A-S.png,A-H.png,sS,hH,mask-4.png,mask-3.png,s,1,0.38424659999873256,h,1,0.026559100006124936,0.04668229999515461,0.04716420000477228,0.09956779999629362,0.10043360000418033,0.748125699996308
RSVPLG03,cs,20251022-111215,1.0.1,20251020-085245,709,Experiment,Both,1,Automatic,main,25,20251022-111442,global,local,300,S,S,A,E,S-A.png,E-S.png,sS,sS,mask-3.png,mask-1.png,s,1,0.5298062000001664,h,0,0.6420876000047429,0.04751379999652272,0.04772679999587126,0.09879250000085449,0.09996229999524076,0.29857600000104867
RSVPLG03,cs,20251022-111215,1.0.1,20251020-085245,709,Experiment,Both,1,Automatic,main,26,20251022-111458,global,global,750,S,H,A,E,S-A.png,H-E.png,sS,hH,mask-4.png,mask-1.png,s,1,0.5003321999975014,h,1,0.020649500002036802,0.04598969999642577,0.04772660000162432,0.09939909999957308,0.09971570000197971,0.7476471999980276
RSVPLG03,cs,20251022-111215,1.0.1,20251020-085245,709,Experiment,Both,1,Automatic,main,27,20251022-111503,local,local,300,H,H,E,A,E-H.png,A-H.png,hH,hH,mask-4.png,mask-2.png,h,1,0.5077688000019407,h,1,0.07501139999658335,0.047706299999845214,0.04864129999623401,0.0999729999966803,0.1003528999935952,0.29890290000184905
RSVPLG03,cs,20251022-111215,1.0.1,20251020-085245,709,Experiment,Both,1,Automatic,main,28,20251022-111507,local,global,300,S,H,A,E,A-S.png,H-E.png,sS,hH,mask-1.png,mask-2.png,s,1,0.41829239999788115,h,1,0.0036220999973011203,0.04752269999880809,0.0475019000004977,0.10054420000233222,0.0997882000010577,0.2999181999985012
RSVPLG03,cs,20251022-111215,1.0.1,20251020-085245,709,Experiment,Both,1,Automatic,main,29,20251022-111512,local,local,300,H,H,A,E,A-H.png,E-H.png,hH,hH,mask-1.png,mask-2.png,h,1,0.43654659999447176,h,1,0.07548240000323858,0.048497499999939464,0.04630909999832511,0.10134530000505038,0.09868450000067241,0.3011580000020331
RSVPLG03,cs,20251022-111215,1.0.1,20251020-085245,709,Experiment,Both,1,Automatic,main,30,20251022-111516,local,global,300,S,H,A,E,A-S.png,H-E.png,sS,hH,mask-4.png,mask-3.png,s,1,0.4377653999981703,h,1,0.006309799995506182,0.04877480000141077,0.047667099999671336,0.09993129999929806,0.09991160000208765,0.30058209999697283
RSVPLG03,cs,20251022-111215,1.0.1,20251020-085245,709,Experiment,Both,1,Automatic,main,31,20251022-111520,global,local,750,H,H,A,A,H-A.png,A-H.png,hH,hH,mask-4.png,mask-1.png,h,1,0.45476110000163317,h,1,0.07575189999624854,0.04730620000191266,0.04586149999522604,0.10156589999678545,0.09908309999445919,0.7505478000020958
RSVPLG03,cs,20251022-111215,1.0.1,20251020-085245,709,Experiment,Both,1,Automatic,main,32,20251022-111525,global,global,300,S,H,A,E,S-A.png,H-E.png,sS,hH,mask-4.png,mask-1.png,s,1,0.5036110000000917,h,1,0.6478597000023001,0.04753820000041742,0.04850369999621762,0.09878380000009201,0.09978669999691192,0.299107400001958
RSVPLG03,cs,20251022-111215,1.0.1,20251020-085245,709,Experiment,Both,1,Automatic,main,33,20251022-111529,local,local,750,S,S,E,E,E-S.png,E-S.png,sS,sS,mask-1.png,mask-1.png,s,1,0.3707323999988148,s,1,0.05704179999884218,0.04869419999886304,0.04670600000099512,0.09990580000157934,0.09992800000327406,0.7499145999972825
RSVPLG03,cs,20251022-111215,1.0.1,20251020-085245,709,Experiment,Both,1,Automatic,main,34,20251022-111533,local,local,300,H,S,A,A,A-H.png,A-S.png,hH,sS,mask-3.png,mask-4.png,s,0,0.6470038000043132,h,0,0.0276229000010062,0.04676429999381071,0.04656450000038603,0.09982129999843892,0.09966580000036629,0.2996484999966924
RSVPLG03,cs,20251022-111215,1.0.1,20251020-085245,709,Experiment,Both,1,Automatic,main,35,20251022-111538,global,local,300,H,H,E,A,H-E.png,A-H.png,hH,hH,mask-1.png,mask-2.png,h,1,0.5002275000006193,s,0,0.037802400001965,0.04756929999712156,0.047577500001352746,0.10070409999752883,0.09960720000526635,0.30010509999556234
RSVPLG03,cs,20251022-111215,1.0.1,20251020-085245,709,Experiment,Both,1,Automatic,main,36,20251022-111542,global,global,300,H,S,A,E,H-A.png,S-E.png,hH,sS,mask-4.png,mask-3.png,h,1,0.5629652999996324,s,1,0.3446477000034065,0.047606699998141266,0.04752379999990808,0.09964239999681013,0.09955700000136858,0.3000121000004583
RSVPLG03,cs,20251022-111215,1.0.1,20251020-085245,709,Experiment,Both,1,Automatic,main,37,20251022-111547,local,global,750,S,S,A,A,A-S.png,S-A.png,sS,sS,mask-3.png,mask-4.png,s,1,0.44070810000266647,s,1,0.0687298999982886,0.0475252999967779,0.047536999998555984,0.10157110000000102,0.0995894999941811,0.7503649999998743
RSVPLG03,cs,20251022-111215,1.0.1,20251020-085245,709,Experiment,Both,1,Automatic,main,38,20251022-111551,global,local,300,H,H,E,A,H-E.png,A-H.png,hH,hH,mask-2.png,mask-3.png,h,1,0.8514424999957555,s,0,0.07426059999852441,0.04870210000080988,0.04571349999605445,0.10078269999939948,0.0989045999958762,0.3014024000003701
RSVPLG03,cs,20251022-111215,1.0.1,20251020-085245,709,Experiment,Both,1,Automatic,main,39,20251022-111556,local,global,300,S,S,A,A,A-S.png,S-A.png,sS,sS,mask-2.png,mask-1.png,h,0,0.581174099999771,s,1,0.10463729999901261,0.047766700001375284,0.04776399999536807,0.09984980000444921,0.0988154000006034,0.2993054000035045
RSVPLG03,cs,20251022-111215,1.0.1,20251020-085245,709,Experiment,Both,1,Automatic,main,40,20251022-111600,local,global,750,H,S,E,A,E-H.png,S-A.png,hH,sS,mask-2.png,mask-1.png,h,1,0.563920299995516,s,1,0.09027120000246214,0.04800070000055712,0.04736540000158129,0.10001950000150828,0.09977749999961816,0.7496446000004653
RSVPLG03,cs,20251022-111215,1.0.1,20251020-085245,709,Experiment,Both,1,Automatic,main,41,20251022-111605,global,local,750,H,S,A,E,H-A.png,E-S.png,hH,sS,mask-3.png,mask-2.png,s,0,1.5653958000038983,s,1,1.2188878000015393,0.04751020000549033,0.0476734000039869,0.09960870000213617,0.10039620000316063,0.7497428999995464
RSVPLG03,cs,20251022-111215,1.0.1,20251020-085245,709,Experiment,Both,1,Automatic,main,42,20251022-111612,global,global,300,S,H,A,A,S-A.png,H-A.png,sS,hH,mask-4.png,mask-3.png,s,1,0.6701036000013119,h,1,0.20823100000416161,0.0475700999959372,0.04758659999788506,0.10098389999620849,0.09901450000324985,0.3003478999962681
RSVPLG03,cs,20251022-111215,1.0.1,20251020-085245,709,Experiment,Both,1,Automatic,main,43,20251022-111617,local,global,750,S,S,E,E,E-S.png,S-E.png,sS,sS,mask-3.png,mask-3.png,s,1,0.5783024999982445,s,1,0.05761289999645669,0.04578659999970114,0.04741179999837186,0.0999794999952428,0.10024519999569748,0.7475173999991966
RSVPLG03,cs,20251022-111215,1.0.1,20251020-085245,709,Experiment,Both,1,Automatic,main,44,20251022-111621,global,global,750,S,H,A,E,S-A.png,H-E.png,sS,hH,mask-3.png,mask-1.png,s,1,0.5802139999941573,h,1,0.05734350000420818,0.04754060000414029,0.04859489999944344,0.10055540000030305,0.10061639999912586,0.7493514000016148
RSVPLG03,cs,20251022-111215,1.0.1,20251020-085245,709,Experiment,Both,1,Automatic,main,45,20251022-111626,global,local,300,H,S,E,A,H-E.png,A-S.png,hH,sS,mask-4.png,mask-4.png,h,1,0.8201190000036149,h,0,0.06886759999906644,0.04657260000385577,0.046798800001852214,0.10065729999769246,0.09997190000285627,0.3000608000002103
RSVPLG03,cs,20251022-111215,1.0.1,20251020-085245,709,Experiment,Both,1,Automatic,main,46,20251022-111631,global,local,750,H,H,E,A,H-E.png,A-H.png,hH,hH,mask-4.png,mask-2.png,h,1,0.5798378000035882,h,1,0.05097580000438029,0.04753250000067055,0.04753850000270177,0.09955630000331439,0.101551699997799,0.7479975000023842
RSVPLG03,cs,20251022-111215,1.0.1,20251020-085245,709,Experiment,Both,1,Automatic,main,47,20251022-111636,global,local,750,S,S,E,E,S-E.png,E-S.png,sS,sS,mask-1.png,mask-1.png,s,1,0.6565857000023243,h,0,0.8166312999965157,0.04862950000097044,0.047686400001111906,0.10030360000382643,0.09988880000310019,0.7492045999970287
RSVPLG03,cs,20251022-111215,1.0.1,20251020-085245,709,Experiment,Both,1,Automatic,main,48,20251022-111640,global,local,300,H,H,E,E,H-E.png,E-H.png,hH,hH,mask-2.png,mask-2.png,h,1,0.7080818999966141,s,0,0.2374735999983386,0.04856599999766331,0.04770299999654526,0.09999260000040522,0.09886900000128662,0.3007612000001245
RSVPLG03,cs,20251022-111215,1.0.1,20251020-085245,709,Experiment,Both,1,Automatic,main,49,20251022-111645,global,local,300,H,H,A,E,H-A.png,E-H.png,hH,hH,mask-4.png,mask-4.png,h,1,0.8164848000014899,h,1,0.15685859999939566,0.047306899999966845,0.048129700000572484,0.10032520000095246,0.10017109999898821,0.300171800001408
RSVPLG03,cs,20251022-111215,1.0.1,20251020-085245,709,Experiment,Both,1,Automatic,main,50,20251022-111650,local,local,300,H,H,E,A,E-H.png,A-H.png,hH,hH,mask-2.png,mask-3.png,h,1,1.820180700000492,h,1,0.0756829000019934,0.04769240000314312,0.045702700001129415,0.09991900000022724,0.09790980000252603,0.3015607999986969
RSVPLG03,cs,20251022-111215,1.0.1,20251020-085245,709,Experiment,Both,1,Automatic,main,51,20251022-111709,global,local,750,H,H,E,E,H-E.png,E-H.png,hH,hH,mask-3.png,mask-3.png,h,1,0.7389764999970794,s,0,0.05809640000370564,0.04763180000009015,0.047701399998913985,0.1008503999983077,0.09993179999582935,0.7500023000029614
RSVPLG03,cs,20251022-111215,1.0.1,20251020-085245,709,Experiment,Both,1,Automatic,main,52,20251022-111714,global,local,750,H,H,E,A,H-E.png,A-H.png,hH,hH,mask-1.png,mask-1.png,h,1,0.40699100000347244,h,1,0.05556359999900451,0.04762720000144327,0.04760240000177873,0.09999289999541361,0.09971860000223387,0.749727399997937
RSVPLG03,cs,20251022-111215,1.0.1,20251020-085245,709,Experiment,Both,1,Automatic,main,53,20251022-111719,global,global,300,H,S,E,E,H-E.png,S-E.png,hH,sS,mask-2.png,mask-2.png,h,1,0.7209195000032196,s,1,0.037742699998489115,0.047434899999643676,0.049070300003222656,0.09954089999519056,0.10009339999669464,0.29942409999785013
RSVPLG03,cs,20251022-111215,1.0.1,20251020-085245,709,Experiment,Both,1,Automatic,main,54,20251022-111723,local,local,750,S,S,E,E,E-S.png,E-S.png,sS,sS,mask-3.png,mask-4.png,s,1,0.42209319999528816,s,1,0.07649530000344384,0.04753590000473196,0.04561200000171084,0.0985454000037862,0.09864289999677567,0.7494090000036522
RSVPLG03,cs,20251022-111215,1.0.1,20251020-085245,709,Experiment,Both,1,Automatic,main,55,20251022-111728,global,global,750,H,H,E,E,H-E.png,H-E.png,hH,hH,mask-2.png,mask-1.png,h,1,0.5019968999986304,h,1,0.06692919999477454,0.04921699999977136,0.048126800000318326,0.10009620000346331,0.1002507999946829,0.7500376000025426
RSVPLG03,cs,20251022-111215,1.0.1,20251020-085245,709,Experiment,Both,1,Automatic,main,56,20251022-111732,local,global,750,H,S,A,A,A-H.png,S-A.png,hH,sS,mask-4.png,mask-3.png,h,1,0.6447809999954188,s,1,0.011569799993594643,0.04761570000118809,0.047570200003974605,0.09961789999942994,0.10059800000453833,0.747784799998044
RSVPLG03,cs,20251022-111215,1.0.1,20251020-085245,709,Experiment,Both,1,Automatic,main,57,20251022-111737,local,global,750,H,H,A,E,A-H.png,H-E.png,hH,hH,mask-4.png,mask-1.png,h,1,0.48547659999894677,h,1,0.055555200000526384,0.04742199999600416,0.047441900002013426,0.09935639999457635,0.09954140000627376,0.7488678999943659
RSVPLG03,cs,20251022-111215,1.0.1,20251020-085245,709,Experiment,Both,1,Automatic,main,58,20251022-111742,local,local,750,H,S,E,A,E-H.png,A-S.png,hH,sS,mask-4.png,mask-2.png,h,1,0.818482499998936,h,0,0.05092869999498362,0.048199400000157766,0.047067399995285086,0.10071179999795277,0.1002987999963807,0.7501799000019673
RSVPLG03,cs,20251022-111215,1.0.1,20251020-085245,709,Experiment,Both,1,Automatic,main,59,20251022-111747,local,global,300,H,H,E,A,E-H.png,H-A.png,hH,hH,mask-2.png,mask-3.png,h,1,0.918450600001961,h,1,0.03977540000050794,0.04858619999868097,0.04758359999686945,0.10077699999965262,0.0997845999954734,0.29956610000226647
RSVPLG03,cs,20251022-111215,1.0.1,20251020-085245,709,Experiment,Both,1,Automatic,main,60,20251022-111751,local,local,300,H,S,A,E,A-H.png,E-S.png,hH,sS,mask-2.png,mask-3.png,h,1,0.49988040000607725,s,1,2.3059034000034444,0.049012800001946744,0.045734200000879355,0.10020410000288393,0.10004080000362592,0.3014041999995243
RSVPLG03,cs,20251022-111215,1.0.1,20251020-085245,709,Experiment,Both,1,Automatic,main,61,20251022-111758,global,local,300,S,H,A,A,S-A.png,A-H.png,sS,hH,mask-3.png,mask-4.png,s,1,0.6127831999983755,h,1,0.7566347999963909,0.04672730000311276,0.04584410000097705,0.09996310000133235,0.09998150000319583,0.2996707999991486
RSVPLG03,cs,20251022-111215,1.0.1,20251020-085245,709,Experiment,Both,1,Automatic,main,62,20251022-111802,local,global,300,H,S,A,E,A-H.png,S-E.png,hH,sS,mask-3.png,mask-2.png,h,1,0.8365816000004997,h,0,0.0854745999968145,0.04703460000018822,0.04771239999536192,0.09872500000346918,0.09963479999714764,0.2995491000037873
RSVPLG03,cs,20251022-111215,1.0.1,20251020-085245,709,Experiment,Both,1,Automatic,main,63,20251022-111807,local,global,750,H,H,A,A,A-H.png,H-A.png,hH,hH,mask-1.png,mask-4.png,h,1,0.3838762000013958,h,1,0.05861409999488387,0.04770759999519214,0.04656930000055581,0.0999214999974356,0.099513900000602,0.7494885999985854
RSVPLG03,cs,20251022-111215,1.0.1,20251020-085245,709,Experiment,Both,1,Automatic,main,64,20251022-111811,global,local,750,S,H,A,E,S-A.png,E-H.png,sS,hH,mask-4.png,mask-2.png,s,1,0.3282388000006904,h,1,0.4567053999999189,0.04753509999864036,0.04757439999957569,0.1016038000016124,0.09864240000024438,0.7498727999991388
RSVPLG03,cs,20251022-111215,1.0.1,20251020-085245,709,Experiment,Both,1,Automatic,main,65,20251022-111816,local,global,300,S,H,E,A,E-S.png,H-A.png,sS,hH,mask-3.png,mask-3.png,s,1,0.5021667000037269,h,1,0.11387129999639001,0.0481662000020151,0.04580790000181878,0.10171129999798723,0.09796030000143219,0.3016263999961666
RSVPLG03,cs,20251022-111215,1.0.1,20251020-085245,709,Experiment,Both,1,Automatic,main,66,20251022-111820,local,global,300,S,S,A,E,A-S.png,S-E.png,sS,sS,mask-3.png,mask-1.png,s,1,0.48496399999567075,h,0,0.02135259999340633,0.046544500000891276,0.04760759999771835,0.09863590000168188,0.09963270000298508,0.2984318000017083
RSVPLG03,cs,20251022-111215,1.0.1,20251020-085245,709,Experiment,Both,1,Automatic,main,67,20251022-111824,local,local,300,H,S,E,A,E-H.png,A-S.png,hH,sS,mask-3.png,mask-2.png,h,1,0.4243159000034211,s,1,0.10963120000087656,0.046534900000551715,0.04735660000005737,0.09956660000170814,0.10039469999901485,0.2989612000019406
RSVPLG03,cs,20251022-111215,1.0.1,20251020-085245,709,Experiment,Both,1,Automatic,main,68,20251022-111828,global,global,300,S,S,E,A,S-E.png,S-A.png,sS,sS,mask-1.png,mask-3.png,s,1,0.8691869000031147,h,0,0.0395423000009032,0.047355200003948994,0.04760309999983292,0.1003675000029034,0.10144719999516383,0.2986545000021579
RSVPLG03,cs,20251022-111215,1.0.1,20251020-085245,709,Experiment,Both,1,Automatic,main,69,20251022-111833,local,local,750,H,S,A,A,A-H.png,A-S.png,hH,sS,mask-3.png,mask-4.png,h,1,0.48657059999823105,h,0,0.3171418999991147,0.04752770000050077,0.04746129999693949,0.10058310000022175,0.09919349999836413,0.7503787000023294
RSVPLG03,cs,20251022-111215,1.0.1,20251020-085245,709,Experiment,Both,1,Automatic,main,70,20251022-111838,local,local,300,S,H,A,E,A-S.png,E-H.png,sS,hH,mask-4.png,mask-3.png,s,1,0.586225300001388,h,1,0.10279160000209231,0.047524499997962266,0.04752780000126222,0.10154099999635946,0.09947660000034375,0.30000209999707295
RSVPLG03,cs,20251022-111215,1.0.1,20251020-085245,709,Experiment,Both,1,Automatic,main,71,20251022-111842,global,global,300,H,H,A,E,H-A.png,H-E.png,hH,hH,mask-4.png,mask-1.png,h,1,0.5863324000019929,s,0,0.19905699999799253,0.0474845999997342,0.0483511999991606,0.09957389999908628,0.09870369999407558,0.29986970000027213
RSVPLG03,cs,20251022-111215,1.0.1,20251020-085245,709,Experiment,Both,1,Automatic,main,72,20251022-111847,global,global,750,H,H,E,E,H-E.png,H-E.png,hH,hH,mask-3.png,mask-2.png,h,1,0.5861166999966372,h,1,0.07683089999773074,0.04656760000216309,0.047592300004907884,0.10064270000293618,0.0996067000014591,0.7486799999969662
RSVPLG03,cs,20251022-111215,1.0.1,20251020-085245,709,Experiment,Both,1,Automatic,main,73,20251022-111852,local,global,300,S,H,A,E,A-S.png,H-E.png,sS,hH,mask-4.png,mask-4.png,s,1,0.5191137000001618,h,1,0.2621478000000934,0.04768769999645883,0.04688419999729376,0.09874919999856502,0.10000610000133747,0.29908009999780916
RSVPLG03,cs,20251022-111215,1.0.1,20251020-085245,709,Experiment,Both,1,Automatic,main,74,20251022-111856,global,global,300,H,H,E,E,H-E.png,H-E.png,hH,hH,mask-3.png,mask-4.png,h,1,1.016834200003359,s,0,0.12354380000033416,0.046004800002265256,0.04818179999710992,0.09908110000105808,0.10012949999509146,0.29824870000447845
RSVPLG03,cs,20251022-111215,1.0.1,20251020-085245,709,Experiment,Both,1,Automatic,main,75,20251022-111901,global,local,750,H,S,E,E,H-E.png,E-S.png,hH,sS,mask-3.png,mask-4.png,h,1,0.4133044999980484,s,1,0.08268810000299709,0.046522300006472506,0.045748899996397085,0.09974390000570565,0.0999764999942272,0.7494752000056906
RSVPLG03,cs,20251022-111215,1.0.1,20251020-085245,709,Experiment,Both,1,Automatic,main,76,20251022-111924,global,local,750,S,S,E,E,S-E.png,E-S.png,sS,sS,mask-4.png,mask-4.png,s,1,0.3680285999944317,s,1,0.08308720000059111,0.047570100003213156,0.04687279999780003,0.09969470000214642,0.09989109999878565,0.7482270000036806
RSVPLG03,cs,20251022-111215,1.0.1,20251020-085245,709,Experiment,Both,1,Automatic,main,77,20251022-111928,global,local,300,H,S,E,E,H-E.png,E-S.png,hH,sS,mask-3.png,mask-2.png,h,1,0.5612811999963014,s,1,0.02199090000067372,0.04570369999419199,0.04771880000043893,0.09812659999442985,0.09992509999574395,0.2977692999993451
RSVPLG03,cs,20251022-111215,1.0.1,20251020-085245,709,Experiment,Both,1,Automatic,main,78,20251022-111933,local,global,300,S,H,E,A,E-S.png,H-A.png,sS,hH,mask-3.png,mask-1.png,s,1,0.41178860000218265,h,1,0.0330381000021589,0.047583299994585104,0.04757840000092983,0.09960470000078203,0.09938569999940228,0.2998673999973107
RSVPLG03,cs,20251022-111215,1.0.1,20251020-085245,709,Experiment,Both,1,Automatic,main,79,20251022-111937,global,local,750,S,S,E,A,S-E.png,A-S.png,sS,sS,mask-4.png,mask-2.png,s,1,0.6064421999981278,h,0,0.6593883000023197,0.0475873999967007,0.0466288000025088,0.09995299999718554,0.09883210000407416,0.7507296999974642
RSVPLG03,cs,20251022-111215,1.0.1,20251020-085245,709,Experiment,Both,1,Automatic,main,80,20251022-111942,local,local,300,H,S,A,E,A-H.png,E-S.png,hH,sS,mask-1.png,mask-1.png,s,0,0.520014200003061,h,0,0.02995299999747658,0.04751430000032997,0.04866760000004433,0.10155269999813754,0.10069310000108089,0.2991370999952778
RSVPLG03,cs,20251022-111215,1.0.1,20251020-085245,709,Experiment,Both,1,Automatic,main,81,20251022-111946,global,global,750,H,S,E,E,H-E.png,S-E.png,hH,sS,mask-4.png,mask-3.png,h,1,0.4977814000012586,s,1,0.11835119999886956,0.046426200002315454,0.04751699999906123,0.0994840000057593,0.10084869999991497,0.7483431000000564
RSVPLG03,cs,20251022-111215,1.0.1,20251020-085245,709,Experiment,Both,1,Automatic,main,82,20251022-111951,global,global,750,S,H,E,A,S-E.png,H-A.png,sS,hH,mask-3.png,mask-1.png,s,1,0.9398087000008672,h,1,0.07016979999752948,0.04656760000216309,0.04659009999886621,0.10067939999862574,0.09965409999858821,0.7491512000051443
RSVPLG03,cs,20251022-111215,1.0.1,20251020-085245,709,Experiment,Both,1,Automatic,main,83,20251022-111956,local,local,750,S,H,A,A,A-S.png,A-H.png,sS,hH,mask-1.png,mask-3.png,s,1,0.3214852999954019,h,1,0.048663900000974536,0.04769889999442967,0.048821000003954396,0.09993099999701371,0.10103440000239061,0.7487360999948578
RSVPLG03,cs,20251022-111215,1.0.1,20251020-085245,709,Experiment,Both,1,Automatic,main,84,20251022-112001,local,global,750,S,S,A,E,A-S.png,S-E.png,sS,sS,mask-2.png,mask-2.png,s,1,0.5022876000002725,s,1,0.06997150000097463,0.0485363000043435,0.046796000002359506,0.10057880000385921,0.09990380000090227,0.7497948000018368
RSVPLG03,cs,20251022-111215,1.0.1,20251020-085245,709,Experiment,Both,1,Automatic,main,85,20251022-112006,global,local,300,S,S,A,A,S-A.png,A-S.png,sS,sS,mask-4.png,mask-2.png,s,1,0.5534641000049305,h,0,0.6822718000039458,0.04754349999711849,0.04855700000189245,0.0997027999983402,0.0996207999996841,0.2989919999963604
RSVPLG03,cs,20251022-111215,1.0.1,20251020-085245,709,Experiment,Both,1,Automatic,main,86,20251022-112010,global,global,300,S,S,A,A,S-A.png,S-A.png,sS,sS,mask-3.png,mask-2.png,s,1,0.6011593000002904,h,0,0.7454479999942123,0.04655240000283811,0.046559200003684964,0.09867330000270158,0.09967100000358187,0.2992943999997806
RSVPLG03,cs,20251022-111215,1.0.1,20251020-085245,709,Experiment,Both,1,Automatic,main,87,20251022-112014,global,local,300,S,H,A,A,S-A.png,A-H.png,sS,hH,mask-2.png,mask-1.png,h,0,0.6085163999960059,s,0,0.018378199994913302,0.048562500000116415,0.04754849999881117,0.0996140999995987,0.099599399996805,0.29990689999976894
RSVPLG03,cs,20251022-111215,1.0.1,20251020-085245,709,Experiment,Both,1,Automatic,main,88,20251022-112018,local,global,300,S,H,E,E,E-S.png,H-E.png,sS,hH,mask-3.png,mask-2.png,s,1,0.4270124000031501,h,1,0.8447081999984221,0.04758140000194544,0.04668110000056913,0.09972170000401093,0.10051889999886043,0.2997220000033849
RSVPLG03,cs,20251022-111215,1.0.1,20251020-085245,709,Experiment,Both,1,Automatic,main,89,20251022-112023,global,local,750,S,S,A,E,S-A.png,E-S.png,sS,sS,mask-1.png,mask-1.png,s,1,0.43983689999731723,s,1,0.10026880000077654,0.04753340000024764,0.047551499999826774,0.09874120000313269,0.09982350000063889,0.7486214000018663
RSVPLG03,cs,20251022-111215,1.0.1,20251020-085245,709,Experiment,Both,1,Automatic,main,90,20251022-112028,global,global,300,H,S,A,E,H-A.png,S-E.png,hH,sS,mask-4.png,mask-2.png,h,1,0.49806399999943096,s,1,0.19824099999823375,0.047558599995682016,0.04809840000234544,0.09959489999891957,0.10022069999831729,0.29988679999951273
RSVPLG03,cs,20251022-111215,1.0.1,20251020-085245,709,Experiment,Both,1,Automatic,main,91,20251022-112032,global,global,300,S,S,E,A,S-E.png,S-A.png,sS,sS,mask-1.png,mask-1.png,s,1,0.45561560000351164,s,1,0.2798648000025423,0.04551699999865377,0.049562000000150874,0.09951890000229469,0.10058869999920717,0.29745790000015404
RSVPLG03,cs,20251022-111215,1.0.1,20251020-085245,709,Experiment,Both,1,Automatic,main,92,20251022-112037,local,local,300,S,H,E,A,E-S.png,A-H.png,sS,hH,mask-2.png,mask-3.png,s,1,0.46775239999988116,h,1,0.1003223000006983,0.04605069999524858,0.04681479999999283,0.10022200000094017,0.09965589999774238,0.29973859999881824
RSVPLG03,cs,20251022-111215,1.0.1,20251020-085245,709,Experiment,Both,1,Automatic,main,93,20251022-112041,global,global,300,H,H,E,E,H-E.png,H-E.png,hH,hH,mask-2.png,mask-4.png,h,1,0.6205950000003213,s,0,0.21033560000068974,0.04907330000423826,0.04603330000099959,0.10029030000441708,0.09925669999938691,0.30119879999983823
RSVPLG03,cs,20251022-111215,1.0.1,20251020-085245,709,Experiment,Both,1,Automatic,main,94,20251022-112046,global,global,750,S,H,A,E,S-A.png,H-E.png,sS,hH,mask-2.png,mask-2.png,s,1,0.3582053999998607,h,1,0.19543069999781437,0.04752890000236221,0.04570830000011483,0.0996757000029902,0.09893340000417084,0.7500774000000092
RSVPLG03,cs,20251022-111215,1.0.1,20251020-085245,709,Experiment,Both,1,Automatic,main,95,20251022-112051,local,global,750,S,H,E,E,E-S.png,H-E.png,sS,hH,mask-2.png,mask-2.png,s,1,0.32393040000170004,h,1,0.198099799999909,0.04770930000086082,0.047461800000746734,0.09975180000037653,0.09849180000310298,0.7499792000016896
RSVPLG03,cs,20251022-111215,1.0.1,20251020-085245,709,Experiment,Both,1,Automatic,main,96,20251022-112055,local,local,750,S,H,E,E,E-S.png,E-H.png,sS,hH,mask-4.png,mask-4.png,s,1,0.32465290000254754,s,0,0.13646249999874271,0.047749999997904524,0.046715900003619026,0.10009540000464767,0.09996420000243234,0.7503983999995398
RSVPLG03,cs,20251022-111215,1.0.1,20251020-085245,709,Experiment,Both,1,Automatic,main,97,20251022-112100,global,global,750,S,H,E,E,S-E.png,H-E.png,sS,hH,mask-3.png,mask-2.png,s,1,0.8924312999952235,h,1,0.1525649999966845,0.047548700000334065,0.0465567000064766,0.09964900000341004,0.09966949999943608,0.7502456000001985
RSVPLG03,cs,20251022-111215,1.0.1,20251020-085245,709,Experiment,Both,1,Automatic,main,98,20251022-112105,global,local,750,S,H,E,A,S-E.png,A-H.png,sS,hH,mask-1.png,mask-3.png,s,1,0.6129988000029698,s,0,0.24276029999600723,0.047548400005325675,0.04750639999838313,0.10059069999988424,0.09915019999607466,0.7498439000046346
RSVPLG03,cs,20251022-111215,1.0.1,20251020-085245,709,Experiment,Both,1,Automatic,main,99,20251022-112110,local,local,750,S,H,E,A,E-S.png,A-H.png,sS,hH,mask-1.png,mask-4.png,s,1,0.4016717000049539,h,1,0.1554695000013453,0.04930890000105137,0.047147100005531684,0.1008609000055003,0.09916140000132145,0.7501224000006914
RSVPLG03,cs,20251022-111215,1.0.1,20251020-085245,709,Experiment,Both,1,Automatic,main,100,20251022-112115,local,global,300,S,H,E,A,E-S.png,H-A.png,sS,hH,mask-1.png,mask-4.png,s,1,0.8204884000006132,s,0,0.17888809999567457,0.04655930000444641,0.0487896999984514,0.09898629999952391,0.10100020000390941,0.29851570000028005
RSVPLG03,cs,20251022-111215,1.0.1,20251020-085245,709,Experiment,Both,1,Automatic,main,101,20251022-112131,global,global,300,S,H,E,E,S-E.png,H-E.png,sS,hH,mask-3.png,mask-3.png,s,1,0.4083503000001656,h,1,0.20059190000029048,0.04771279999840772,0.04671020000387216,0.0999387999981991,0.09999280000192812,0.30072999999538297
RSVPLG03,cs,20251022-111215,1.0.1,20251020-085245,709,Experiment,Both,1,Automatic,main,102,20251022-112135,local,global,300,H,H,A,E,A-H.png,H-E.png,hH,hH,mask-1.png,mask-1.png,h,1,0.4424788000033004,h,1,0.10786509999888949,0.04746719999820925,0.04825029999483377,0.10026849999849219,0.10100529999908758,0.2994384999983595
RSVPLG03,cs,20251022-111215,1.0.1,20251020-085245,709,Experiment,Both,1,Automatic,main,103,20251022-112139,local,local,300,H,S,A,E,A-H.png,E-S.png,hH,sS,mask-4.png,mask-2.png,h,1,0.5602438000059919,s,1,0.15455940000538249,0.046520399999280926,0.04758690000016941,0.09932220000337111,0.10102630000619683,0.2990542999978061
RSVPLG03,cs,20251022-111215,1.0.1,20251020-085245,709,Experiment,Both,1,Automatic,main,104,20251022-112144,local,global,750,H,H,A,A,A-H.png,H-A.png,hH,hH,mask-4.png,mask-2.png,h,1,0.3598526999994647,h,1,0.10745309999765595,0.04870859999937238,0.0475019000004977,0.10073299999930896,0.09968130000197561,0.7492450999998255
RSVPLG03,cs,20251022-111215,1.0.1,20251020-085245,709,Experiment,Both,1,Automatic,main,105,20251022-112149,global,local,300,S,H,A,A,S-A.png,A-H.png,sS,hH,mask-1.png,mask-1.png,s,1,1.2177124000008916,h,1,0.19657799999549752,0.045898700001998805,0.0457553000014741,0.09880060000432422,0.09838519999902928,0.30030590000387747
RSVPLG03,cs,20251022-111215,1.0.1,20251020-085245,709,Experiment,Both,1,Automatic,main,106,20251022-112154,global,local,300,S,H,A,E,S-A.png,E-H.png,sS,hH,mask-2.png,mask-4.png,s,1,0.5823785000029602,h,1,0.2999039000060293,0.047553800002788194,0.04686080000101356,0.1003393999999389,0.10096229999908246,0.299699100003636
RSVPLG03,cs,20251022-111215,1.0.1,20251020-085245,709,Experiment,Both,1,Automatic,main,107,20251022-112158,local,global,300,H,S,E,E,E-H.png,S-E.png,hH,sS,mask-1.png,mask-3.png,h,1,0.831923600002483,s,1,1.1975931999986642,0.047868399997241795,0.04779059999418678,0.10015439999551745,0.10044979999656789,0.29991940000036266
RSVPLG03,cs,20251022-111215,1.0.1,20251020-085245,709,Experiment,Both,1,Automatic,main,108,20251022-112204,local,global,300,S,H,E,A,E-S.png,H-A.png,sS,hH,mask-2.png,mask-4.png,s,1,0.4862633000011556,h,1,0.22967050000443123,0.048807499995746184,0.04777710000053048,0.10110399999393849,0.09885180000128457,0.3006057999955374
RSVPLG03,cs,20251022-111215,1.0.1,20251020-085245,709,Experiment,Both,1,Automatic,main,109,20251022-112208,local,global,300,H,S,A,E,A-H.png,S-E.png,hH,sS,mask-1.png,mask-2.png,h,1,0.4628928000020096,s,1,0.1826195999965421,0.04671809999854304,0.04739500000141561,0.09928539999964414,0.09928609999769833,0.2994313000017428
RSVPLG03,cs,20251022-111215,1.0.1,20251020-085245,709,Experiment,Both,1,Automatic,main,110,20251022-112213,global,global,750,H,S,E,A,H-E.png,S-A.png,hH,sS,mask-1.png,mask-2.png,h,1,0.5140377000061562,s,1,0.16454410000005737,0.047144800002570264,0.04750610000337474,0.10023760000331094,0.09949280000000726,0.7486936999994214
RSVPLG03,cs,20251022-111215,1.0.1,20251020-085245,709,Experiment,Both,1,Automatic,main,111,20251022-112218,local,local,750,H,H,A,A,A-H.png,A-H.png,hH,hH,mask-1.png,mask-4.png,h,1,1.354119299998274,h,1,0.12469530000089435,0.04755009999644244,0.047543400003632996,0.09960249999858206,0.10154260000126669,0.7477652999950806
RSVPLG03,cs,20251022-111215,1.0.1,20251020-085245,709,Experiment,Both,1,Automatic,main,112,20251022-112223,local,local,750,H,S,E,A,E-H.png,A-S.png,hH,sS,mask-3.png,mask-2.png,h,1,0.43257859999721404,s,1,0.19136560000333702,0.04660190000140574,0.04759130000456935,0.09811059999628924,0.10065010000107577,0.7483587999959127
RSVPLG03,cs,20251022-111215,1.0.1,20251020-085245,709,Experiment,Both,1,Automatic,main,113,20251022-112228,local,local,750,H,S,A,E,A-H.png,E-S.png,hH,sS,mask-3.png,mask-2.png,h,1,0.37559759999567177,s,1,0.19911000000138301,0.046653999997943174,0.04760649999661837,0.09976610000012442,0.09968829999706941,0.7495116999998572
RSVPLG03,cs,20251022-111215,1.0.1,20251020-085245,709,Experiment,Both,1,Automatic,main,114,20251022-112233,local,local,750,S,H,A,E,A-S.png,E-H.png,sS,hH,mask-2.png,mask-3.png,s,1,0.30863610000233166,h,1,0.15596000000368804,0.04851990000315709,0.04757570000219857,0.10052290000021458,0.10153669999999693,0.7485185999976238
RSVPLG03,cs,20251022-111215,1.0.1,20251020-085245,709,Experiment,Both,1,Automatic,main,115,20251022-112237,local,local,300,H,H,E,A,E-H.png,A-H.png,hH,hH,mask-1.png,mask-1.png,h,1,0.44571499999437947,s,0,0.5395649999991292,0.04752460000599967,0.04751090000354452,0.10054170000512386,0.10053029999835417,0.29982900000322843
RSVPLG03,cs,20251022-111215,1.0.1,20251020-085245,709,Experiment,Both,1,Automatic,main,116,20251022-112242,local,local,300,H,S,E,A,E-H.png,A-S.png,hH,sS,mask-2.png,mask-3.png,h,1,0.6385258999944199,h,0,0.13849249999475433,0.04750380000041332,0.047413300002517644,0.09936059999745339,0.09844239999802085,0.29952849999972386
RSVPLG03,cs,20251022-111215,1.0.1,20251020-085245,709,Experiment,Both,1,Automatic,main,117,20251022-112247,global,global,750,S,S,A,A,S-A.png,S-A.png,sS,sS,mask-2.png,mask-1.png,s,1,0.6058638000031351,s,1,0.19794679999904474,0.04655130000173813,0.04678869999770541,0.09891390000120737,0.09984750000148779,0.748362400001497
RSVPLG03,cs,20251022-111215,1.0.1,20251020-085245,709,Experiment,Both,1,Automatic,main,118,20251022-112252,global,local,750,H,H,A,E,H-A.png,E-H.png,hH,hH,mask-2.png,mask-3.png,h,1,0.3440495999966515,s,0,0.35930000000371365,0.04725899999903049,0.04752099999313941,0.09831190000113565,0.09955379999883007,0.7483226000040304
RSVPLG03,cs,20251022-111215,1.0.1,20251020-085245,709,Experiment,Both,1,Automatic,main,119,20251022-112257,local,local,300,H,H,A,E,A-H.png,E-H.png,hH,hH,mask-1.png,mask-2.png,h,1,0.9662573000023258,s,0,0.19023089999973308,0.045540599996456876,0.04715240000223275,0.09855160000006435,0.09936940000625327,0.29850279999664053
RSVPLG03,cs,20251022-111215,1.0.1,20251020-085245,709,Experiment,Both,1,Automatic,main,120,20251022-112301,global,local,300,H,S,E,E,H-E.png,E-S.png,hH,sS,mask-3.png,mask-4.png,s,0,0.5173646999974153,h,0,0.22032020000187913,0.04728179999801796,0.047330800000054296,0.10040469999512425,0.10113709999859566,0.298431499999424
RSVPLG03,cs,20251022-111215,1.0.1,20251020-085245,709,Experiment,Both,1,Automatic,main,121,20251022-112306,local,local,750,H,S,E,A,E-H.png,A-S.png,hH,sS,mask-3.png,mask-4.png,h,1,0.7248904000007315,s,1,0.2883175000024494,0.04756860000634333,0.047374599998875055,0.10059220000403002,0.10020119999535382,0.7499712000062573
RSVPLG03,cs,20251022-111215,1.0.1,20251020-085245,709,Experiment,Both,1,Automatic,main,122,20251022-112311,global,global,750,H,H,E,E,H-E.png,H-E.png,hH,hH,mask-4.png,mask-3.png,h,1,0.6295852999974159,h,1,0.16569800000434043,0.047721099996124394,0.04769990000204416,0.09981069999776082,0.09989100000530016,0.7500254999977187
RSVPLG03,cs,20251022-111215,1.0.1,20251020-085245,709,Experiment,Both,1,Automatic,main,123,20251022-112316,local,local,300,H,H,A,E,A-H.png,E-H.png,hH,hH,mask-1.png,mask-3.png,h,1,0.9201382000028389,s,0,0.18211889999656705,0.04655230000207666,0.04757940000126837,0.09873369999695569,0.10072609999770066,0.29888999999820953
RSVPLG03,cs,20251022-111215,1.0.1,20251020-085245,709,Experiment,Both,1,Automatic,main,124,20251022-112321,global,global,750,H,S,A,A,H-A.png,S-A.png,hH,sS,mask-2.png,mask-1.png,h,1,0.44700409999495605,s,1,0.1989566999982344,0.0465288999985205,0.047525099995255005,0.09955579999950714,0.09955020000052173,0.7493755000032252
RSVPLG03,cs,20251022-111215,1.0.1,20251020-085245,709,Experiment,Both,1,Automatic,main,125,20251022-112326,global,global,300,S,S,E,A,S-E.png,S-A.png,sS,sS,mask-1.png,mask-4.png,s,1,0.6146813000013935,h,0,0.21101350000390084,0.04645139999774983,0.04747779999888735,0.09942739999678452,0.10076330000447342,0.29856749999453314
RSVPLG03,cs,20251022-112429,1.0.1,20251020-085245,709,Experiment,Both,1,Automatic,warmup,1,20251022-112449,global,global,300,S,H,A,E,S-A.png,H-E.png,sS,hH,mask-1.png,mask-4.png,s,1,0.36509279999881983,h,1,1.0602900000012596,0.04013259999919683,0.048736899996583816,0.09381399999983842,0.10097429999586893,0.2939501000000746
RSVPLG03,cs,20251022-112429,1.0.1,20251020-085245,709,Experiment,Both,1,Automatic,warmup,2,20251022-112455,global,local,750,S,S,E,A,S-E.png,A-S.png,sS,sS,mask-4.png,mask-3.png,s,1,0.6251840999975684,h,0,0.294295300001977,0.04866770000080578,0.047075099995709024,0.1008016999985557,0.10023469999578083,0.7511852000025101
RSVPLG03,cs,20251022-112429,1.0.1,20251020-085245,709,Experiment,Both,1,Automatic,warmup,3,20251022-112500,local,local,750,S,S,E,A,E-S.png,A-S.png,sS,sS,mask-3.png,mask-2.png,s,1,0.4017958999975235,s,1,0.3040781000017887,0.047693900000012945,0.04770160000043688,0.10092390000500018,0.09990259999904083,0.750363400002243
RSVPLG03,cs,20251022-112429,1.0.1,20251020-085245,709,Experiment,Both,1,Automatic,warmup,4,20251022-112505,local,local,300,H,S,E,A,E-H.png,A-S.png,hH,sS,mask-4.png,mask-4.png,h,1,0.4284040999991703,s,1,0.5226084999958402,0.04772689999663271,0.04647340000519762,0.09978929999488173,0.0995108999995864,0.2998507999946014
RSVPLG03,cs,20251022-112429,1.0.1,20251020-085245,709,Experiment,Both,1,Automatic,warmup,5,20251022-112509,local,global,300,S,H,A,A,A-S.png,H-A.png,sS,hH,mask-4.png,mask-2.png,s,1,0.5881928000017069,h,1,0.2514727000016137,0.047701199997391086,0.04763459999958286,0.09870110000338173,0.09984490000351798,0.30014379999920493
RSVPLG03,cs,20251022-112429,1.0.1,20251020-085245,709,Experiment,Both,1,Automatic,main,6,20251022-112514,global,global,300,H,H,A,E,H-A.png,H-E.png,hH,hH,mask-3.png,mask-3.png,h,1,0.46252979999553645,h,1,0.346526499997708,0.04768399999738904,0.046583700001065154,0.10194980000233045,0.10067740000522463,0.301264199995785
RSVPLG03,cs,20251022-112429,1.0.1,20251020-085245,709,Experiment,Both,1,Automatic,main,7,20251022-112519,local,local,750,S,S,A,E,A-S.png,E-S.png,sS,sS,mask-2.png,mask-3.png,h,0,0.7377057999983663,s,1,0.16548519999923883,0.047594499999831896,0.047735100000863895,0.09968839999783086,0.10160799999721348,0.7501248999978998
RSVPLG03,cs,20251022-112429,1.0.1,20251020-085245,709,Experiment,Both,1,Automatic,main,8,20251022-112524,global,local,300,S,H,A,A,S-A.png,A-H.png,sS,hH,mask-4.png,mask-1.png,s,1,0.45860130000073696,h,1,0.5034329000045545,0.04588520000106655,0.046764899998379406,0.09961910000129137,0.10001740000006976,0.3000402000034228
RSVPLG03,cs,20251022-112429,1.0.1,20251020-085245,709,Experiment,Both,1,Automatic,main,9,20251022-112528,local,global,750,S,S,E,E,E-S.png,S-E.png,sS,sS,mask-1.png,mask-2.png,s,1,0.7455325000046287,s,1,0.26786770000035176,0.04771990000153892,0.047725399999762885,0.10097479999967618,0.10016090000135591,0.7514265999998315
RSVPLG03,cs,20251022-112429,1.0.1,20251020-085245,709,Experiment,Both,1,Automatic,main,10,20251022-112534,local,local,750,H,S,A,A,A-H.png,A-S.png,hH,sS,mask-1.png,mask-3.png,s,0,0.9720323000001372,h,0,0.24389470000460278,0.04558470000483794,0.04571820000273874,0.09966280000662664,0.09997709999879589,0.7504141000026721
RSVPLG03,cs,20251022-112429,1.0.1,20251020-085245,709,Experiment,Both,1,Automatic,main,11,20251022-112539,local,global,300,H,S,A,E,A-H.png,S-E.png,hH,sS,mask-4.png,mask-4.png,h,1,0.6550304000047618,s,1,0.19966610000119545,0.04872400000022026,0.04754280000634026,0.09974990000046091,0.09958510000433307,0.3009371999942232
RSVPLG03,cs,20251022-112429,1.0.1,20251020-085245,709,Experiment,Both,1,Automatic,main,12,20251022-112544,local,local,300,S,S,A,A,A-S.png,A-S.png,sS,sS,mask-3.png,mask-1.png,s,1,0.6487650999988546,h,0,0.284553199999209,0.04755070000101114,0.04570160000002943,0.09956940000120085,0.09931130000040866,0.3001975000006496
RSVPLG03,cs,20251022-112429,1.0.1,20251020-085245,709,Experiment,Both,1,Automatic,main,13,20251022-112548,local,local,750,S,H,A,E,A-S.png,E-H.png,sS,hH,mask-2.png,mask-2.png,h,0,0.29873309999675257,s,0,0.2581657999980962,0.04606249999778811,0.04652690000511939,0.09946759999729693,0.09990910000487929,0.7501205999942613
RSVPLG03,cs,20251022-112429,1.0.1,20251020-085245,709,Experiment,Both,1,Automatic,main,14,20251022-112553,global,local,300,S,H,E,A,S-E.png,A-H.png,sS,hH,mask-2.png,mask-1.png,s,1,0.5577207999958773,h,1,0.2828478000010364,0.04770239999925252,0.045700599999690894,0.09992500000225846,0.10012669999559876,0.3016862000004039
RSVPLG03,cs,20251022-112429,1.0.1,20251020-085245,709,Experiment,Both,1,Automatic,main,15,20251022-112558,local,global,300,S,S,E,A,E-S.png,S-A.png,sS,sS,mask-4.png,mask-3.png,s,1,0.7423954000041704,s,1,0.21881609999400098,0.04763420000381302,0.04766170000220882,0.09941420000541257,0.09969940000155475,0.29929450000054203
RSVPLG03,cs,20251022-112429,1.0.1,20251020-085245,709,Experiment,Both,1,Automatic,main,16,20251022-112602,local,global,300,H,H,A,A,A-H.png,H-A.png,hH,hH,mask-4.png,mask-2.png,h,1,0.4932979000004707,s,0,0.6473351999957231,0.045862099999794737,0.04777740000281483,0.09917790000326931,0.09984810000605648,0.29984349999722326
RSVPLG03,cs,20251022-112429,1.0.1,20251020-085245,709,Experiment,Both,1,Automatic,main,17,20251022-112607,global,local,750,H,H,A,A,H-A.png,A-H.png,hH,hH,mask-2.png,mask-3.png,h,1,0.41940969999996014,s,0,0.24761820000276202,0.046493900001223665,0.04661669999768492,0.09963170000264654,0.09861580000142567,0.750632700001006
RSVPLG03,cs,20251022-112429,1.0.1,20251020-085245,709,Experiment,Both,1,Automatic,main,18,20251022-112612,global,local,750,S,S,A,E,S-A.png,E-S.png,sS,sS,mask-3.png,mask-4.png,s,1,0.4291019999946002,h,0,0.2442942999987281,0.047500100001343526,0.047509900003205985,0.09950080000271555,0.10151190000033239,0.7500901000021258
RSVPLG03,cs,20251022-112429,1.0.1,20251020-085245,709,Experiment,Both,1,Automatic,main,19,20251022-112617,global,local,750,H,S,A,A,H-A.png,A-S.png,hH,sS,mask-1.png,mask-2.png,h,1,0.35888810000324156,s,1,0.2372313000014401,0.04748759999347385,0.047761900001205504,0.09951259999797912,0.0999738000027719,0.7516374999977415
RSVPLG03,cs,20251022-112429,1.0.1,20251020-085245,709,Experiment,Both,1,Automatic,main,20,20251022-112622,local,global,300,H,H,A,E,A-H.png,H-E.png,hH,hH,mask-3.png,mask-1.png,h,1,0.9110146000020904,h,1,0.5229111000007833,0.0464713000037591,0.045746299998427276,0.09868940000160364,0.10001289999490837,0.3002762000032817
RSVPLG03,cs,20251022-112429,1.0.1,20251020-085245,709,Experiment,Both,1,Automatic,main,21,20251022-112627,local,global,750,H,S,A,E,A-H.png,S-E.png,hH,sS,mask-4.png,mask-2.png,h,1,1.4964323999956832,h,0,0.5482884000011836,0.04755429999931948,0.048717600002419204,0.10162870000203839,0.10088140000152634,0.750995000002149
RSVPLG03,cs,20251022-112429,1.0.1,20251020-085245,709,Experiment,Both,1,Automatic,main,22,20251022-112633,local,local,750,S,S,E,A,E-S.png,A-S.png,sS,sS,mask-4.png,mask-4.png,s,1,0.49301220000052126,s,1,0.2686022999987472,0.04772689999663271,0.047705900004075374,0.09895329999562819,0.09892250000120839,0.7507332999957725
RSVPLG03,cs,20251022-112429,1.0.1,20251020-085245,709,Experiment,Both,1,Automatic,main,23,20251022-112638,local,global,750,H,S,A,E,A-H.png,S-E.png,hH,sS,mask-2.png,mask-1.png,h,1,0.5240449999982957,s,1,0.24649240000144346,0.04739020000124583,0.04776339999807533,0.09960010000213515,0.09999919999972917,0.7497744000065723
RSVPLG03,cs,20251022-112429,1.0.1,20251020-085245,709,Experiment,Both,1,Automatic,main,24,20251022-112643,global,global,300,H,S,E,A,H-E.png,S-A.png,hH,sS,mask-4.png,mask-4.png,h,1,1.0343546000003698,h,0,0.2360848000025726,0.04870680000021821,0.04845309999655001,0.10064599999896018,0.0997921000016504,0.30041329999949085
RSVPLG03,cs,20251022-112429,1.0.1,20251020-085245,709,Experiment,Both,1,Automatic,main,25,20251022-112648,local,local,300,H,H,A,A,A-H.png,A-H.png,hH,hH,mask-1.png,mask-1.png,h,1,0.659251500001119,h,1,0.22898540000460343,0.047527000002446584,0.04774059999908786,0.09959779999917373,0.09997219999786466,0.29939130000275327
RSVPLG03,cs,20251022-112429,1.0.1,20251020-085245,709,Experiment,Both,1,Automatic,main,26,20251022-112703,local,local,300,S,H,E,E,E-S.png,E-H.png,sS,hH,mask-1.png,mask-4.png,s,1,0.7086473999952432,s,0,0.23487030000251252,0.04797159999725409,0.047926400002324954,0.10131279999768594,0.1002033000040683,0.30082179999590153
RSVPLG03,cs,20251022-112429,1.0.1,20251020-085245,709,Experiment,Both,1,Automatic,main,27,20251022-112708,local,local,300,H,S,A,A,A-H.png,A-S.png,hH,sS,mask-2.png,mask-2.png,h,1,0.6055094999974244,s,1,0.37133409999660216,0.04682360000151675,0.04751479999686126,0.09868320000532549,0.10062889999971958,0.2989436000061687
RSVPLG03,cs,20251022-112429,1.0.1,20251020-085245,709,Experiment,Both,1,Automatic,main,28,20251022-112713,global,global,300,H,H,E,E,H-E.png,H-E.png,hH,hH,mask-4.png,mask-1.png,h,1,0.6187833000003593,s,0,0.19913570000062464,0.047616100004233886,0.04763990000355989,0.09860330000083195,0.09974420000071405,0.3000339999998687
RSVPLG03,cs,20251022-112429,1.0.1,20251020-085245,709,Experiment,Both,1,Automatic,main,29,20251022-112717,global,local,750,S,S,E,A,S-E.png,A-S.png,sS,sS,mask-1.png,mask-2.png,s,1,0.6184379999976954,s,1,0.25245040000299923,0.046082499997282866,0.04735200000141049,0.10011459999805083,0.10035409999545664,0.7497476999997161
RSVPLG03,cs,20251022-112429,1.0.1,20251020-085245,709,Experiment,Both,1,Automatic,main,30,20251022-112722,global,global,300,S,S,E,A,S-E.png,S-A.png,sS,sS,mask-2.png,mask-3.png,s,1,0.6394774000000325,h,0,0.4853341000052751,0.047606400003132876,0.04657579999911832,0.10016760000144131,0.09968690000096103,0.3005873000001884
RSVPLG03,cs,20251022-112429,1.0.1,20251020-085245,709,Experiment,Both,1,Automatic,main,31,20251022-112727,local,local,300,S,S,A,E,A-S.png,E-S.png,sS,sS,mask-2.png,mask-3.png,s,1,0.510678699996788,h,0,0.2308266999971238,0.04711219999444438,0.048378699997556396,0.1001475999946706,0.09964549999858718,0.2997395999991568
RSVPLG03,cs,20251022-112429,1.0.1,20251020-085245,709,Experiment,Both,1,Automatic,main,32,20251022-112732,global,global,300,S,S,A,E,S-A.png,S-E.png,sS,sS,mask-1.png,mask-3.png,s,1,0.5310826999993878,h,0,0.6599821999989217,0.047513399993476924,0.04742139999871142,0.09874499999568798,0.10023619999992661,0.29973379999864846
RSVPLG03,cs,20251022-112429,1.0.1,20251020-085245,709,Experiment,Both,1,Automatic,main,33,20251022-112737,global,global,750,H,S,E,A,H-E.png,S-A.png,hH,sS,mask-1.png,mask-1.png,h,1,0.5408555000030901,s,1,0.24914089999947464,0.04757899999822257,0.04663830000208691,0.10091429999738466,0.0997267999991891,0.7509207999974024
RSVPLG03,cs,20251022-112429,1.0.1,20251020-085245,709,Experiment,Both,1,Automatic,main,34,20251022-112742,local,global,300,S,H,A,A,A-S.png,H-A.png,sS,hH,mask-4.png,mask-3.png,s,1,0.47250260000146227,s,0,0.2007755000013276,0.04659710000123596,0.048514199996134266,0.09861410000303295,0.1006206999954884,0.298928900003375
RSVPLG03,cs,20251022-112429,1.0.1,20251020-085245,709,Experiment,Both,1,Automatic,main,35,20251022-112746,global,global,750,S,S,E,E,S-E.png,S-E.png,sS,sS,mask-1.png,mask-1.png,s,1,0.5624858000010136,s,1,0.21943479999754345,0.047333999995316844,0.047512500001175795,0.10033409999596188,0.09934770000108983,0.7506018999993103
RSVPLG03,cs,20251022-112429,1.0.1,20251020-085245,709,Experiment,Both,1,Automatic,main,36,20251022-112751,global,global,300,H,H,E,E,H-E.png,H-E.png,hH,hH,mask-2.png,mask-1.png,h,1,0.540016500002821,s,0,0.18521740000142017,0.047764000002644025,0.047732799997902475,0.10002979999990202,0.09988870000233874,0.2987192000000505
RSVPLG03,cs,20251022-112429,1.0.1,20251020-085245,709,Experiment,Both,1,Automatic,main,37,20251022-112756,global,local,300,H,S,E,E,H-E.png,E-S.png,hH,sS,mask-2.png,mask-1.png,h,1,0.8925753000003169,h,0,0.47215229999710573,0.04758090000541415,0.04752990000270074,0.10059270000056131,0.09953460000542691,0.3009407999998075
RSVPLG03,cs,20251022-112429,1.0.1,20251020-085245,709,Experiment,Both,1,Automatic,main,38,20251022-112801,global,local,300,H,S,E,E,H-E.png,E-S.png,hH,sS,mask-1.png,mask-3.png,h,1,0.8670148999954108,h,0,0.2841697999974713,0.0476146000000881,0.047319199999037664,0.10181670000019949,0.09859580000193091,0.30195459999958985
RSVPLG03,cs,20251022-112429,1.0.1,20251020-085245,709,Experiment,Both,1,Automatic,main,39,20251022-112806,local,local,300,S,S,A,E,A-S.png,E-S.png,sS,sS,mask-2.png,mask-3.png,h,0,0.6994141999966814,s,1,0.20195509999757633,0.0483273999998346,0.04762099999788916,0.10066959999676328,0.10047559999657096,0.3001715999998851
RSVPLG03,cs,20251022-112429,1.0.1,20251020-085245,709,Experiment,Both,1,Automatic,main,40,20251022-112810,local,local,300,H,H,A,E,A-H.png,E-H.png,hH,hH,mask-2.png,mask-4.png,h,1,1.525072700002056,s,0,0.2756230000013602,0.04860410000401316,0.046370299998670816,0.10063310000259662,0.10037860000011278,0.3010565000004135
RSVPLG03,cs,20251022-112429,1.0.1,20251020-085245,709,Experiment,Both,1,Automatic,main,41,20251022-112816,local,local,750,S,H,A,E,A-S.png,E-H.png,sS,hH,mask-1.png,mask-2.png,s,1,0.4154162999984692,h,1,0.23596209999959683,0.045601300000271294,0.04577080000308342,0.09861369999998715,0.09995480000361567,0.7504988000000594
RSVPLG03,cs,20251022-112429,1.0.1,20251020-085245,709,Experiment,Both,1,Automatic,main,42,20251022-112821,local,local,750,H,H,E,A,E-H.png,A-H.png,hH,hH,mask-1.png,mask-3.png,s,0,0.4198703999936697,h,1,0.33425010000064503,0.04773879999993369,0.04759570000169333,0.09980789999826811,0.10062699999980396,0.7500806999960332
RSVPLG03,cs,20251022-112429,1.0.1,20251020-085245,709,Experiment,Both,1,Automatic,main,43,20251022-112826,global,global,750,S,S,A,E,S-A.png,S-E.png,sS,sS,mask-3.png,mask-4.png,s,1,0.6809407999971882,s,1,0.7156972000011592,0.047948499995982274,0.04686059999949066,0.09960149999824353,0.09986930000013672,0.7499900999973761
RSVPLG03,cs,20251022-112429,1.0.1,20251020-085245,709,Experiment,Both,1,Automatic,main,44,20251022-112831,local,local,300,H,S,E,E,E-H.png,E-S.png,hH,sS,mask-1.png,mask-1.png,s,0,2.53955500000302,h,0,0.19742059999407502,0.04654899999877671,0.047618200005672406,0.09944980000000214,0.09983680000004824,0.2998317999954452
RSVPLG03,cs,20251022-112429,1.0.1,20251020-085245,709,Experiment,Both,1,Automatic,main,45,20251022-112838,global,local,750,S,H,E,E,S-E.png,E-H.png,sS,hH,mask-3.png,mask-4.png,s,1,0.6174971000000369,s,0,0.2174407999991672,0.04869199999666307,0.04667709999921499,0.10109440000087488,0.09917049999785377,0.7509873000017251
RSVPLG03,cs,20251022-112429,1.0.1,20251020-085245,709,Experiment,Both,1,Automatic,main,46,20251022-112843,global,local,750,H,H,A,E,H-A.png,E-H.png,hH,hH,mask-1.png,mask-2.png,h,1,0.5950368999983766,h,1,0.23813589999917895,0.04851469999994151,0.04639369999495102,0.10050970000156667,0.09936619999643881,0.7510527000049478
RSVPLG03,cs,20251022-112429,1.0.1,20251020-085245,709,Experiment,Both,1,Automatic,main,47,20251022-112848,local,global,300,S,S,E,A,E-S.png,S-A.png,sS,sS,mask-4.png,mask-4.png,s,1,0.81189109999832,s,1,0.2113201999964076,0.04751319999922998,0.04665190000378061,0.100561999999627,0.09938710000278661,0.30187909999949625
RSVPLG03,cs,20251022-112429,1.0.1,20251020-085245,709,Experiment,Both,1,Automatic,main,48,20251022-112853,local,global,300,H,H,E,E,E-H.png,H-E.png,hH,hH,mask-3.png,mask-2.png,h,1,0.8614247999939835,s,0,0.22080039999855217,0.047642800003814045,0.04752250000456115,0.09945870000228751,0.10052600000199163,0.29977340000186814
RSVPLG03,cs,20251022-112429,1.0.1,20251020-085245,709,Experiment,Both,1,Automatic,main,49,20251022-112857,global,local,300,H,H,E,E,H-E.png,E-H.png,hH,hH,mask-1.png,mask-2.png,h,1,0.633948100003181,h,1,0.4253540999998222,0.047524699999485165,0.04747990000032587,0.09957009999925504,0.10068989999854239,0.2990468999996665
RSVPLG03,cs,20251022-112429,1.0.1,20251020-085245,709,Experiment,Both,1,Automatic,main,50,20251022-112902,local,local,750,H,S,A,E,A-H.png,E-S.png,hH,sS,mask-4.png,mask-2.png,h,1,0.5320668000058504,s,1,0.23416049999650568,0.04851139999664156,0.04751800000667572,0.10052300000097603,0.10152660000312608,0.7505706999945687
RSVPLG03,cs,20251022-112429,1.0.1,20251020-085245,709,Experiment,Both,1,Automatic,main,51,20251022-112921,global,local,300,H,H,E,E,H-E.png,E-H.png,hH,hH,mask-3.png,mask-2.png,h,1,0.7580560000060359,s,0,0.22001859999727458,0.04710509999858914,0.04729810000571888,0.10011949999898206,0.10040440000011586,0.2999826999948709
RSVPLG03,cs,20251022-112429,1.0.1,20251020-085245,709,Experiment,Both,1,Automatic,main,52,20251022-112926,local,global,750,H,S,E,A,E-H.png,S-A.png,hH,sS,mask-2.png,mask-1.png,h,1,0.413874300000316,h,0,0.23385649999545421,0.04872160000377335,0.047628500004066154,0.10045370000443654,0.09935190000396688,0.7520690000019385
RSVPLG03,cs,20251022-112429,1.0.1,20251020-085245,709,Experiment,Both,1,Automatic,main,53,20251022-112931,global,global,300,H,S,A,A,H-A.png,S-A.png,hH,sS,mask-4.png,mask-1.png,h,1,0.5883069000046817,s,1,0.19969419999688398,0.047674499997810926,0.04663090000394732,0.10005429999728221,0.0997341000038432,0.2998661999954493
RSVPLG03,cs,20251022-112429,1.0.1,20251020-085245,709,Experiment,Both,1,Automatic,main,54,20251022-112935,global,local,300,S,H,E,E,S-E.png,E-H.png,sS,hH,mask-1.png,mask-1.png,s,1,0.576309099997161,s,0,1.1574513000014122,0.04746559999330202,0.047587400003976654,0.10027209999680053,0.0996073000060278,0.30059309999342076
RSVPLG03,cs,20251022-112429,1.0.1,20251020-085245,709,Experiment,Both,1,Automatic,main,55,20251022-112941,local,local,300,H,S,E,A,E-H.png,A-S.png,hH,sS,mask-4.png,mask-4.png,h,1,1.1663320999941789,s,1,0.3222913999998127,0.048353800004406366,0.04640750000544358,0.10023799999908078,0.0993021000031149,0.30126559999916935
RSVPLG03,cs,20251022-112429,1.0.1,20251020-085245,709,Experiment,Both,1,Automatic,main,56,20251022-112946,global,local,750,H,S,A,E,H-A.png,E-S.png,hH,sS,mask-2.png,mask-2.png,h,1,0.395968199998606,s,1,0.2366619999957038,0.04655569999886211,0.04759339999873191,0.09965009999723407,0.09973940000054426,0.7500677999996697
RSVPLG03,cs,20251022-112429,1.0.1,20251020-085245,709,Experiment,Both,1,Automatic,main,57,20251022-112951,global,local,750,H,S,E,A,H-E.png,A-S.png,hH,sS,mask-4.png,mask-4.png,s,0,0.9443461000046227,s,1,2.9350702000010642,0.0470735999988392,0.04636420000315411,0.10011639999720501,0.1013301000057254,0.7497642999951495
RSVPLG03,cs,20251022-112429,1.0.1,20251020-085245,709,Experiment,Both,1,Automatic,main,58,20251022-112959,global,global,300,S,H,E,A,S-E.png,H-A.png,sS,hH,mask-4.png,mask-3.png,h,0,0.5269574999983888,s,0,0.15296229999512434,0.04628180000145221,0.04806599999574246,0.0992264000014984,0.0999383999951533,0.2998273000048357
RSVPLG03,cs,20251022-112429,1.0.1,20251020-085245,709,Experiment,Both,1,Automatic,main,59,20251022-113003,global,global,750,H,S,E,E,H-E.png,S-E.png,hH,sS,mask-3.png,mask-4.png,s,0,0.353413199998613,h,0,0.26739200000156416,0.047529899995424785,0.04650699999911012,0.10160719999839785,0.09952630000043428,0.7523139999975683
RSVPLG03,cs,20251022-112429,1.0.1,20251020-085245,709,Experiment,Both,1,Automatic,main,60,20251022-113008,local,global,750,H,S,A,A,A-H.png,S-A.png,hH,sS,mask-4.png,mask-4.png,s,0,1.1150952000025427,h,0,0.15763820000574924,0.04803410000022268,0.04665769999701297,0.10039750000578351,0.10043939999741269,0.750744000004488
RSVPLG03,cs,20251022-112429,1.0.1,20251020-085245,709,Experiment,Both,1,Automatic,main,61,20251022-113013,local,global,300,H,S,A,A,A-H.png,S-A.png,hH,sS,mask-3.png,mask-4.png,h,1,1.8568671999964863,h,0,0.3773868999996921,0.04847580000205198,0.0475423999960185,0.1005208999995375,0.09958740000001853,0.30065230000036536
RSVPLG03,cs,20251022-112429,1.0.1,20251020-085245,709,Experiment,Both,1,Automatic,main,62,20251022-113019,global,global,750,H,H,E,A,H-E.png,H-A.png,hH,hH,mask-2.png,mask-4.png,h,1,0.4145208999980241,h,1,0.17924700000003213,0.046341799999936484,0.047498200001427904,0.09926480000285665,0.09984249999979511,0.749629999998433
RSVPLG03,cs,20251022-112429,1.0.1,20251020-085245,709,Experiment,Both,1,Automatic,main,63,20251022-113024,local,global,750,H,H,E,E,E-H.png,H-E.png,hH,hH,mask-1.png,mask-4.png,h,1,0.4141851000022143,h,1,0.1761772999961977,0.04653900000266731,0.047766000003321096,0.10064380000403617,0.09992849999980535,0.7507513000018662
RSVPLG03,cs,20251022-112429,1.0.1,20251020-085245,709,Experiment,Both,1,Automatic,main,64,20251022-113029,global,global,750,H,H,A,A,H-A.png,H-A.png,hH,hH,mask-2.png,mask-4.png,h,1,0.4636093000008259,h,1,0.2027938000028371,0.04778760000044713,0.04696289999992587,0.09900720000587171,0.10010599999804981,0.7499798000062583
RSVPLG03,cs,20251022-112429,1.0.1,20251020-085245,709,Experiment,Both,1,Automatic,main,65,20251022-113034,local,global,300,H,S,A,E,A-H.png,S-E.png,hH,sS,mask-1.png,mask-1.png,h,1,0.6564113999993424,h,0,0.2479559999992489,0.047737200002302416,0.04672069999651285,0.09924870000395458,0.09912099999928614,0.2998444000040763
RSVPLG03,cs,20251022-112429,1.0.1,20251020-085245,709,Experiment,Both,1,Automatic,main,66,20251022-113039,local,local,750,H,S,A,A,A-H.png,A-S.png,hH,sS,mask-4.png,mask-3.png,h,1,0.6029042000009213,s,1,0.3795934000008856,0.04753579999669455,0.04753119999804767,0.09854279999854043,0.100552299998526,0.7500059000012698
RSVPLG03,cs,20251022-112429,1.0.1,20251020-085245,709,Experiment,Both,1,Automatic,main,67,20251022-113044,local,local,750,H,S,E,E,E-H.png,E-S.png,hH,sS,mask-4.png,mask-1.png,s,0,0.48945200000162004,h,0,0.21198260000528535,0.04752100000041537,0.04755529999965802,0.09953910000331234,0.0996242000037455,0.750158000002557
RSVPLG03,cs,20251022-112429,1.0.1,20251020-085245,709,Experiment,Both,1,Automatic,main,68,20251022-113049,local,global,300,S,S,E,E,E-S.png,S-E.png,sS,sS,mask-4.png,mask-1.png,s,1,0.5957194000002346,h,0,0.17395559999567922,0.04616619999433169,0.047134899999946356,0.09942799999407725,0.09936480000033043,0.2994970999934594
RSVPLG03,cs,20251022-112429,1.0.1,20251020-085245,709,Experiment,Both,1,Automatic,main,69,20251022-113053,global,local,300,H,H,A,E,H-A.png,E-H.png,hH,hH,mask-3.png,mask-3.png,h,1,0.9081577999968431,h,1,0.1409944000042742,0.04666299999371404,0.04713129999436205,0.09903189999749884,0.09932959999423474,0.30061879999993835
RSVPLG03,cs,20251022-112429,1.0.1,20251020-085245,709,Experiment,Both,1,Automatic,main,70,20251022-113058,local,global,750,S,H,A,E,A-S.png,H-E.png,sS,hH,mask-1.png,mask-2.png,h,0,0.3253234000003431,s,0,0.22462020000239136,0.04783109999698354,0.048700300001655705,0.09903389999817591,0.10160069999983534,0.7490311000001384
RSVPLG03,cs,20251022-112429,1.0.1,20251020-085245,709,Experiment,Both,1,Automatic,main,71,20251022-113103,local,local,300,S,S,E,A,E-S.png,A-S.png,sS,sS,mask-4.png,mask-1.png,s,1,0.5174007999958121,h,0,0.1459439999962342,0.04760530000203289,0.04769549999764422,0.09831250000570435,0.10034769999765558,0.2989363000015146
RSVPLG03,cs,20251022-112429,1.0.1,20251020-085245,709,Experiment,Both,1,Automatic,main,72,20251022-113107,global,global,750,S,S,E,E,S-E.png,S-E.png,sS,sS,mask-1.png,mask-1.png,h,0,3.4652654999954393,s,1,0.5844464999972843,0.04752799999550916,0.046479399999952875,0.10080110000126297,0.09922470000310568,0.7512839999981225
RSVPLG03,cs,20251022-112429,1.0.1,20251020-085245,709,Experiment,Both,1,Automatic,main,73,20251022-113115,global,local,300,H,S,A,A,H-A.png,A-S.png,hH,sS,mask-2.png,mask-3.png,h,1,0.6594237999961479,h,0,0.6589619000005769,0.04757249999966007,0.04654020000452874,0.09959059999528108,0.0995824999990873,0.30004389999521663
RSVPLG03,cs,20251022-112429,1.0.1,20251020-085245,709,Experiment,Both,1,Automatic,main,74,20251022-113120,global,global,300,H,S,A,A,H-A.png,S-A.png,hH,sS,mask-1.png,mask-1.png,h,1,0.4630159000007552,h,0,0.4470041999957175,0.046921900000597816,0.04852530000061961,0.09939390000363346,0.10055860000284156,0.2997306000033859
RSVPLG03,cs,20251022-112429,1.0.1,20251020-085245,709,Experiment,Both,1,Automatic,main,75,20251022-113125,local,local,300,H,S,A,A,A-H.png,A-S.png,hH,sS,mask-1.png,mask-1.png,h,1,0.742242599997553,s,1,0.18544370000017807,0.047573299998475704,0.04848910000146134,0.09888280000450322,0.1010214999987511,0.2992400000002817
RSVPLG03,cs,20251022-112429,1.0.1,20251020-085245,709,Experiment,Both,1,Automatic,main,76,20251022-113141,global,local,750,S,H,A,E,S-A.png,E-H.png,sS,hH,mask-3.png,mask-4.png,s,1,0.31881740000244463,h,1,0.1877712999994401,0.04804609999700915,0.048720099999627564,0.0988569999972242,0.10041500000079395,0.7495474999959697
RSVPLG03,cs,20251022-112429,1.0.1,20251020-085245,709,Experiment,Both,1,Automatic,main,77,20251022-113145,local,global,750,S,H,A,E,A-S.png,H-E.png,sS,hH,mask-3.png,mask-2.png,s,1,0.3259967999983928,h,1,0.19247850000101607,0.048056899999210145,0.04783039999892935,0.10111679999681655,0.10078639999846928,0.7506656999976258
RSVPLG03,cs,20251022-112429,1.0.1,20251020-085245,709,Experiment,Both,1,Automatic,main,78,20251022-113150,local,local,300,S,S,A,E,A-S.png,E-S.png,sS,sS,mask-2.png,mask-3.png,h,0,0.4300005999975838,s,1,0.21456799999577925,0.04652570000325795,0.047388800005137455,0.09853229999862378,0.10044670000206679,0.2986063999996986
RSVPLG03,cs,20251022-112429,1.0.1,20251020-085245,709,Experiment,Both,1,Automatic,main,79,20251022-113154,local,local,750,S,S,E,A,E-S.png,A-S.png,sS,sS,mask-3.png,mask-3.png,s,1,0.48335019999649376,h,0,0.21132339999894612,0.049646799998299684,0.04854009999689879,0.10176659999706317,0.10157139999500941,0.7509395000015502
RSVPLG03,cs,20251022-112429,1.0.1,20251020-085245,709,Experiment,Both,1,Automatic,main,80,20251022-113159,local,global,300,H,H,A,A,A-H.png,H-A.png,hH,hH,mask-2.png,mask-1.png,h,1,0.446031799998309,s,0,0.3565625000046566,0.04755309999745805,0.047386300000653137,0.09976929999538697,0.10122899999987567,0.3002705999970203
RSVPLG03,cs,20251022-112429,1.0.1,20251020-085245,709,Experiment,Both,1,Automatic,main,81,20251022-113204,local,global,750,H,H,E,E,E-H.png,H-E.png,hH,hH,mask-4.png,mask-2.png,h,1,0.3498970000000554,h,1,0.15965239999786718,0.04772889999730978,0.04665309999836609,0.10028549999697134,0.09860929999558721,0.7502935000011348
RSVPLG03,cs,20251022-112429,1.0.1,20251020-085245,709,Experiment,Both,1,Automatic,main,82,20251022-113209,global,global,300,H,S,E,A,H-E.png,S-A.png,hH,sS,mask-4.png,mask-3.png,h,1,0.6236550999965402,s,1,0.2312171000012313,0.04673239999829093,0.04662400000233902,0.10008699999889359,0.10086210000008577,0.29971719999593915
RSVPLG03,cs,20251022-112429,1.0.1,20251020-085245,709,Experiment,Both,1,Automatic,main,83,20251022-113213,local,global,300,S,H,A,E,A-S.png,H-E.png,sS,hH,mask-2.png,mask-1.png,s,1,0.9202997000029427,h,1,0.19787450000148965,0.04855880000104662,0.04756970000016736,0.10038290000375127,0.09961430000112159,0.3000287000031676
RSVPLG03,cs,20251022-112429,1.0.1,20251020-085245,709,Experiment,Both,1,Automatic,main,84,20251022-113218,global,local,750,S,H,E,E,S-E.png,E-H.png,sS,hH,mask-2.png,mask-2.png,s,1,0.3287241000070935,h,1,0.1830947999987984,0.047232099997927435,0.04660860000149114,0.10022199999366421,0.09868859999551205,0.7511330999986967
RSVPLG03,cs,20251022-112429,1.0.1,20251020-085245,709,Experiment,Both,1,Automatic,main,85,20251022-113223,local,global,300,S,S,A,E,A-S.png,S-E.png,sS,sS,mask-3.png,mask-4.png,s,1,0.7183586000028299,s,1,0.4272253000017372,0.04725380000309087,0.04750570000032894,0.1004633999982616,0.09931439999490976,0.2998098000025493
RSVPLG03,cs,20251022-112429,1.0.1,20251020-085245,709,Experiment,Both,1,Automatic,main,86,20251022-113228,global,global,750,H,H,E,A,H-E.png,H-A.png,hH,hH,mask-1.png,mask-1.png,h,1,0.7149478999999701,s,0,0.20126639999944018,0.04753399999754038,0.04756979999365285,0.10055569999531144,0.09966269999858923,0.7512411999996402
RSVPLG03,cs,20251022-112429,1.0.1,20251020-085245,709,Experiment,Both,1,Automatic,main,87,20251022-113233,local,global,750,S,S,A,E,A-S.png,S-E.png,sS,sS,mask-4.png,mask-2.png,s,1,0.38584580000315327,s,1,0.12160929999663495,0.047210199998517055,0.048521000004257075,0.10024900000280468,0.09955500000069151,0.7494156999964616
RSVPLG03,cs,20251022-112429,1.0.1,20251020-085245,709,Experiment,Both,1,Automatic,main,88,20251022-113237,global,global,300,H,S,E,E,H-E.png,S-E.png,hH,sS,mask-3.png,mask-3.png,h,1,0.5960156999935862,s,1,0.15042510000057518,0.0475226000053226,0.047558799997204915,0.09953820000373526,0.10157329999492504,0.2998266000067815
RSVPLG03,cs,20251022-112429,1.0.1,20251020-085245,709,Experiment,Both,1,Automatic,main,89,20251022-113242,global,local,750,S,H,E,A,S-E.png,A-H.png,sS,hH,mask-1.png,mask-4.png,s,1,0.6322904999979073,s,0,0.17305489999853307,0.04777190000459086,0.0477247000017087,0.09990900000411784,0.09997940000175731,0.7495626000018092
RSVPLG03,cs,20251022-112429,1.0.1,20251020-085245,709,Experiment,Both,1,Automatic,main,90,20251022-113247,global,global,750,S,S,A,E,S-A.png,S-E.png,sS,sS,mask-2.png,mask-4.png,s,1,0.3893580999938422,s,1,0.21915509999962524,0.047521600004984066,0.04851819999748841,0.09856830000353511,0.1005421000008937,0.7495742000028258
RSVPLG03,cs,20251022-112429,1.0.1,20251020-085245,709,Experiment,Both,1,Automatic,main,91,20251022-113252,local,local,750,S,S,E,A,E-S.png,A-S.png,sS,sS,mask-1.png,mask-4.png,s,1,0.537695299994084,h,0,0.1816737999979523,0.046448100001725834,0.04753760000312468,0.09945319999678759,0.09958650000044145,0.7500331999981427
RSVPLG03,cs,20251022-112429,1.0.1,20251020-085245,709,Experiment,Both,1,Automatic,main,92,20251022-113257,global,global,300,S,H,E,A,S-E.png,H-A.png,sS,hH,mask-3.png,mask-4.png,s,1,0.6561924999987241,s,0,0.23372609999933047,0.04676630000176374,0.046736299998883624,0.1008469000007608,0.0999597000045469,0.3009412999963388
RSVPLG03,cs,20251022-112429,1.0.1,20251020-085245,709,Experiment,Both,1,Automatic,main,93,20251022-113301,local,local,300,S,S,E,A,E-S.png,A-S.png,sS,sS,mask-4.png,mask-3.png,s,1,0.5264992000011262,h,0,0.18572950000088895,0.04689470000448637,0.04753119999804767,0.09926210000412539,0.09948409999924479,0.2996779000022798
RSVPLG03,cs,20251022-112429,1.0.1,20251020-085245,709,Experiment,Both,1,Automatic,main,94,20251022-113306,global,local,300,S,H,A,E,S-A.png,E-H.png,sS,hH,mask-4.png,mask-3.png,s,1,0.5629537999993772,h,1,0.18370330000470858,0.045833599993784446,0.04751689999829978,0.0997434999953839,0.10055370000191033,0.30008889999589883
RSVPLG03,cs,20251022-112429,1.0.1,20251020-085245,709,Experiment,Both,1,Automatic,main,95,20251022-113310,global,local,750,S,H,A,E,S-A.png,E-H.png,sS,hH,mask-4.png,mask-4.png,s,1,0.5081741000030888,s,0,0.22875889999704668,0.04691810000076657,0.04865029999928083,0.10065600000234554,0.10001159999956144,0.7512146000008215
RSVPLG03,cs,20251022-112429,1.0.1,20251020-085245,709,Experiment,Both,1,Automatic,main,96,20251022-113315,global,global,750,H,H,E,E,H-E.png,H-E.png,hH,hH,mask-3.png,mask-3.png,s,0,0.3683965000018361,h,1,0.19600029999855906,0.048315400003048126,0.048743899998953566,0.1011789999975008,0.10010820000024978,0.7504759000003105
RSVPLG03,cs,20251022-112429,1.0.1,20251020-085245,709,Experiment,Both,1,Automatic,main,97,20251022-113320,global,local,300,S,H,E,A,S-E.png,A-H.png,sS,hH,mask-4.png,mask-4.png,s,1,0.6107936000043992,s,0,0.2845124000014039,0.04753480000363197,0.04755329999898095,0.09990349999861792,0.10011269999813521,0.30061879999993835
RSVPLG03,cs,20251022-112429,1.0.1,20251020-085245,709,Experiment,Both,1,Automatic,main,98,20251022-113325,global,global,750,S,S,E,E,S-E.png,S-E.png,sS,sS,mask-3.png,mask-3.png,s,1,0.4706527999951504,s,1,0.31112620000203606,0.04754550000507152,0.04653870000038296,0.09961200000543613,0.09989479999785544,0.7516058000037447
RSVPLG03,cs,20251022-112429,1.0.1,20251020-085245,709,Experiment,Both,1,Automatic,main,99,20251022-113330,global,global,300,H,S,A,A,H-A.png,S-A.png,hH,sS,mask-3.png,mask-1.png,h,1,0.7796063999994658,h,0,0.2134232999960659,0.04751789999863831,0.047534099998301826,0.10038009999698261,0.1001685000010184,0.30001500000071246
RSVPLG03,cs,20251022-112429,1.0.1,20251020-085245,709,Experiment,Both,1,Automatic,main,100,20251022-113335,global,global,750,H,S,A,A,H-A.png,S-A.png,hH,sS,mask-1.png,mask-3.png,h,1,0.4984020999982022,s,1,0.2366522000011173,0.04739229999540839,0.04669109999667853,0.09910809999564663,0.09872660000110045,0.7509917999996105
RSVPLG03,cs,20251022-112429,1.0.1,20251020-085245,709,Experiment,Both,1,Automatic,main,101,20251022-113353,global,local,750,S,S,A,E,S-A.png,E-S.png,sS,sS,mask-4.png,mask-2.png,s,1,0.3676705000034417,s,1,0.26194789999863133,0.0467270999943139,0.046735200005059596,0.10003219999634894,0.09896930000104476,0.7506460999939009
RSVPLG03,cs,20251022-112429,1.0.1,20251020-085245,709,Experiment,Both,1,Automatic,main,102,20251022-113358,local,global,750,S,S,A,E,A-S.png,S-E.png,sS,sS,mask-1.png,mask-4.png,s,1,0.3167505000019446,h,0,0.22993270000006305,0.04683160000422504,0.04735359999904176,0.10000859999854583,0.10031739999976708,0.750042100000428
RSVPLG03,cs,20251022-112429,1.0.1,20251020-085245,709,Experiment,Both,1,Automatic,main,103,20251022-113402,local,local,300,H,H,A,E,A-H.png,E-H.png,hH,hH,mask-2.png,mask-4.png,h,1,0.9262565999961225,s,0,0.16352809999807505,0.04683199999999488,0.04860259999986738,0.10097980000136886,0.10063169999921229,0.29949330000090413
RSVPLG03,cs,20251022-112429,1.0.1,20251020-085245,709,Experiment,Both,1,Automatic,main,104,20251022-113407,local,global,750,S,S,E,E,E-S.png,S-E.png,sS,sS,mask-2.png,mask-2.png,s,1,0.5326369999966118,s,1,0.20369619999837596,0.046559599999454804,0.04756669999915175,0.10064869999769144,0.09959080000407994,0.7499830999950063
RSVPLG03,cs,20251022-112429,1.0.1,20251020-085245,709,Experiment,Both,1,Automatic,main,105,20251022-113412,local,global,750,H,H,A,A,A-H.png,H-A.png,hH,hH,mask-4.png,mask-1.png,h,1,0.3624876999965636,h,1,0.19315640000422718,0.048047899996163324,0.04677339999761898,0.10030459999688901,0.10007419999601552,0.7510642999986885
RSVPLG03,cs,20251022-112429,1.0.1,20251020-085245,709,Experiment,Both,1,Automatic,main,106,20251022-113417,local,global,750,S,S,E,E,E-S.png,S-E.png,sS,sS,mask-4.png,mask-1.png,s,1,0.4703176999973948,s,1,0.20376750000286847,0.0477106999969692,0.047701299998152535,0.10090109999873675,0.10059019999607699,0.7511054999995395
RSVPLG03,cs,20251022-112429,1.0.1,20251020-085245,709,Experiment,Both,1,Automatic,main,107,20251022-113422,local,global,750,S,S,A,E,A-S.png,S-E.png,sS,sS,mask-4.png,mask-3.png,s,1,0.4014716000019689,s,1,0.2209112000055029,0.04671819999930449,0.04674379999778466,0.0989190000036615,0.10095129999535857,0.7494139000045834
