exp,exp_initials,runtime,ver,modtime,sub,blocktype,targets,cuetype,mode,trialtype,trial,trialtime,t1_level,t2_level,t2_lag,t1,t2,distractor1,distractor2,stimfile1,stimfile2,t1_corr,t2_corr,maskfile1,maskfile2,t1_resp,t1_acc,t1_rt,t2_resp,t2_acc,t2_rt,t1_dur,t2_dur,t1mask_soa,t2mask_soa,t1t2_soa
RSVPLG03,cs,20260218-135150,1.0.2,20251105-084826,767,Introduction,T1,1,Automatic,main,1,20260218-135214,global,local,750,H,S,E,A,H-E.png,A-S.png,hH,sS,mask-4.png,mask-1.png,h,1,2.2561092004179955,none,-5,0,0.09013829939067364,0.09754929970949888,0.1921926001086831,0.2008381001651287,0.7406880995258689
RSVPLG03,cs,20260218-135150,1.0.2,20251105-084826,767,Introduction,T1,1,Automatic,main,2,20260218-135221,global,global,750,H,S,E,A,H-E.png,S-A.png,hH,sS,mask-2.png,mask-2.png,h,1,2.1282639000564814,none,-5,0,0.09754269942641258,0.09741680044680834,0.19839149992913008,0.19968469999730587,0.7473287992179394
RSVPLG03,cs,20260218-135150,1.0.2,20251105-084826,767,Introduction,T1,1,Automatic,main,3,20260218-135227,global,local,750,H,H,E,E,H-E.png,E-H.png,hH,hH,mask-4.png,mask-4.png,h,1,0.7893391000106931,none,-5,0,0.0948318000882864,0.09582949988543987,0.19688310008496046,0.1985953003168106,0.7477166000753641
RSVPLG03,cs,20260218-135150,1.0.2,20251105-084826,767,Introduction,T1,1,Automatic,main,4,20260218-135232,global,local,750,S,S,E,E,S-E.png,E-S.png,sS,sS,mask-3.png,mask-3.png,s,1,0.5308614000678062,none,-5,0,0.09666369948536158,0.09644069988280535,0.19966949988156557,0.1994857992976904,0.7487452998757362
RSVPLG03,cs,20260218-135150,1.0.2,20251105-084826,767,Introduction,T1,1,Automatic,main,5,20260218-135237,global,global,750,H,S,A,E,H-A.png,S-E.png,hH,sS,mask-1.png,mask-4.png,none,-6,0,none,-5,0,0.09586900006979704,0.09753900021314621,0.1983703998848796,0.20044369995594025,0.7466804999858141
RSVPLG03,cs,20260218-135251,1.0.2,20251105-084826,767,Practice,T1,1,Automatic,main,1,20260218-135313,global,local,750,H,S,A,E,H-A.png,E-S.png,hH,sS,mask-3.png,mask-3.png,s,0,0.9595512999221683,none,-5,0,0.03983430005609989,0.047690700739622116,0.09299130085855722,0.09993450064212084,0.7413534000515938
RSVPLG03,cs,20260218-135251,1.0.2,20251105-084826,767,Practice,T1,1,Automatic,main,2,20260218-135318,local,global,300,H,S,E,A,E-H.png,S-A.png,hH,sS,mask-2.png,mask-2.png,h,1,0.5656193997710943,none,-5,0,0.047151099890470505,0.04711440019309521,0.09826079942286015,0.0987963005900383,0.30000089947134256
RSVPLG03,cs,20260218-135251,1.0.2,20251105-084826,767,Practice,T1,1,Automatic,main,3,20260218-135322,local,local,750,S,H,E,E,E-S.png,E-H.png,sS,hH,mask-4.png,mask-2.png,s,1,0.4596228003501892,none,-5,0,0.04776780027896166,0.04755350016057491,0.10009239986538887,0.10018710047006607,0.7495774999260902
RSVPLG03,cs,20260218-135251,1.0.2,20251105-084826,767,Practice,T1,1,Automatic,main,4,20260218-135327,local,global,750,H,H,A,A,A-H.png,H-A.png,hH,hH,mask-1.png,mask-4.png,h,1,0.5137889003381133,none,-5,0,0.045540899969637394,0.04781800042837858,0.09774859994649887,0.10189899988472462,0.7478719996288419
RSVPLG03,cs,20260218-135251,1.0.2,20251105-084826,767,Practice,T1,1,Automatic,main,5,20260218-135331,global,local,300,H,S,E,E,H-E.png,E-S.png,hH,sS,mask-3.png,mask-3.png,h,1,0.5147644998505712,none,-5,0,0.04733190033584833,0.04828209988772869,0.10094340052455664,0.10022400040179491,0.30004770029336214
RSVPLG03,cs,20260218-135251,1.0.2,20251105-084826,767,Practice,T1,1,Automatic,main,6,20260218-135335,global,global,300,H,H,E,A,H-E.png,H-A.png,hH,hH,mask-3.png,mask-4.png,h,1,0.3926063999533653,none,-5,0,0.04635640047490597,0.046892499551177025,0.0993364006280899,0.10000330023467541,0.29876190051436424
RSVPLG03,cs,20260218-135251,1.0.2,20251105-084826,767,Practice,T1,1,Automatic,main,7,20260218-135339,global,global,750,S,S,A,A,S-A.png,S-A.png,sS,sS,mask-3.png,mask-1.png,s,1,0.4470525998622179,none,-5,0,0.04773649945855141,0.04814250022172928,0.09982499945908785,0.098501100204885,0.7497493997216225
RSVPLG03,cs,20260218-135251,1.0.2,20251105-084826,767,Practice,T1,1,Automatic,main,8,20260218-135344,global,global,300,S,H,E,A,S-E.png,H-A.png,sS,hH,mask-3.png,mask-1.png,s,1,0.3863803008571267,none,-5,0,0.04771700035780668,0.04753720015287399,0.10081870015710592,0.09965190012007952,0.30023130029439926
RSVPLG03,cs,20260218-135251,1.0.2,20251105-084826,767,Practice,T1,1,Automatic,main,9,20260218-135348,global,global,750,H,S,A,E,H-A.png,S-E.png,hH,sS,mask-4.png,mask-1.png,s,0,0.3588762003928423,none,-5,0,0.0477263992652297,0.04760590009391308,0.10189389996230602,0.10073509998619556,0.7496443996205926
RSVPLG03,cs,20260218-135251,1.0.2,20251105-084826,767,Practice,T1,1,Automatic,main,10,20260218-135352,global,local,750,H,H,E,A,H-E.png,A-H.png,hH,hH,mask-2.png,mask-1.png,h,1,0.365620999597013,none,-5,0,0.04837140068411827,0.04882759973406792,0.10028509981930256,0.1008504992350936,0.7499175006523728
RSVPLG03,cs,20260218-135251,1.0.2,20251105-084826,767,Practice,T1,1,Automatic,main,11,20260218-135356,local,global,750,S,H,E,E,E-S.png,H-E.png,sS,hH,mask-4.png,mask-4.png,s,1,0.3233361002057791,none,-5,0,0.047763099893927574,0.04743389971554279,0.09985500015318394,0.09928059950470924,0.7500520003959537
RSVPLG03,cs,20260218-135251,1.0.2,20251105-084826,767,Practice,T1,1,Automatic,main,12,20260218-135401,local,local,300,S,H,A,E,A-S.png,E-H.png,sS,hH,mask-2.png,mask-1.png,s,1,0.41323589999228716,none,-5,0,0.04579150024801493,0.045977700501680374,0.09893339965492487,0.09864929970353842,0.3001255998387933
RSVPLG03,cs,20260218-135251,1.0.2,20251105-084826,767,Practice,T1,1,Automatic,main,13,20260218-135405,local,local,750,H,H,E,A,E-H.png,A-H.png,hH,hH,mask-3.png,mask-2.png,s,0,0.3771701995283365,none,-5,0,0.047738900408148766,0.046622199937701225,0.09923170041292906,0.10086099989712238,0.7501517003402114
RSVPLG03,cs,20260218-135251,1.0.2,20251105-084826,767,Practice,T1,1,Automatic,main,14,20260218-135409,local,local,300,H,S,E,E,E-H.png,E-S.png,hH,sS,mask-4.png,mask-4.png,h,1,0.2959192004054785,none,-5,0,0.04749069921672344,0.047758299857378006,0.09867419954389334,0.09937559999525547,0.2986049000173807
RSVPLG03,cs,20260218-135251,1.0.2,20251105-084826,767,Practice,T1,1,Automatic,main,15,20260218-135413,local,global,300,S,H,A,A,A-S.png,H-A.png,sS,hH,mask-3.png,mask-1.png,h,0,0.6168498005717993,none,-5,0,0.04756009951233864,0.04672999959439039,0.09986460022628307,0.09905009996145964,0.30000200029462576
RSVPLG03,cs,20260218-135251,1.0.2,20251105-084826,767,Practice,T1,1,Automatic,main,16,20260218-135417,global,local,300,S,S,A,A,S-A.png,A-S.png,sS,sS,mask-1.png,mask-3.png,s,1,0.23253649938851595,none,-5,0,0.048164199106395245,0.047699399292469025,0.10145889967679977,0.09989249985665083,0.3011151999235153
RSVPLG03,cs,20260218-135437,1.0.2,20251105-084826,767,Practice,T1,1,Automatic,main,1,20260218-135455,local,global,750,H,H,E,E,E-H.png,H-E.png,hH,hH,mask-4.png,mask-3.png,s,0,0.42635759990662336,none,-5,0,0.04712290037423372,0.045942400582134724,0.10021200031042099,0.1001542005687952,0.7493738001212478
RSVPLG03,cs,20260218-135437,1.0.2,20251105-084826,767,Practice,T1,1,Automatic,main,2,20260218-135500,local,global,750,S,S,A,A,A-S.png,S-A.png,sS,sS,mask-4.png,mask-3.png,s,1,0.30886910017579794,none,-5,0,0.04926479980349541,0.04647719953209162,0.09992850013077259,0.1005922993645072,0.7494045002385974
RSVPLG03,cs,20260218-135437,1.0.2,20251105-084826,767,Practice,T1,1,Automatic,main,3,20260218-135504,global,local,300,S,H,A,E,S-A.png,E-H.png,sS,hH,mask-4.png,mask-3.png,s,1,0.38593059964478016,none,-5,0,0.047495100647211075,0.046963099390268326,0.0992927998304367,0.10007719974964857,0.2992304004728794
RSVPLG03,cs,20260218-135437,1.0.2,20251105-084826,767,Practice,T1,1,Automatic,main,4,20260218-135508,local,global,300,H,S,E,E,E-H.png,S-E.png,hH,sS,mask-1.png,mask-4.png,h,1,0.3976906994357705,none,-5,0,0.04959310032427311,0.046568299643695354,0.10161000024527311,0.09860629960894585,0.301345800049603
RSVPLG03,cs,20260218-135437,1.0.2,20251105-084826,767,Practice,T1,1,Automatic,main,5,20260218-135512,global,local,300,H,H,A,A,H-A.png,A-H.png,hH,hH,mask-3.png,mask-4.png,h,1,0.31762930005788803,none,-5,0,0.04737129993736744,0.048796599730849266,0.10097509995102882,0.10086859948933125,0.29904890060424805
RSVPLG03,cs,20260218-135437,1.0.2,20251105-084826,767,Practice,T1,1,Automatic,main,6,20260218-135516,local,local,750,H,S,E,E,E-H.png,E-S.png,hH,sS,mask-3.png,mask-1.png,h,1,0.4955517007037997,none,-5,0,0.04639510065317154,0.047522599808871746,0.09993510041385889,0.10047840047627687,0.7488719001412392
RSVPLG03,cs,20260218-135437,1.0.2,20251105-084826,767,Practice,T1,1,Automatic,main,7,20260218-135520,global,global,300,S,S,A,E,S-A.png,S-E.png,sS,sS,mask-4.png,mask-1.png,s,1,0.23613880015909672,none,-5,0,0.04682640079408884,0.0496395006775856,0.09939760062843561,0.10071160085499287,0.2982157999649644
RSVPLG03,cs,20260218-135437,1.0.2,20251105-084826,767,Practice,T1,1,Automatic,main,8,20260218-135524,local,local,750,H,S,E,E,E-H.png,E-S.png,hH,sS,mask-4.png,mask-2.png,s,0,0.24814279936254025,none,-5,0,0.04779489990323782,0.0476502999663353,0.1003360003232956,0.1007380997762084,0.7488799002021551
RSVPLG03,cs,20260218-135437,1.0.2,20251105-084826,767,Practice,T1,1,Automatic,main,9,20260218-135528,local,local,300,H,H,A,E,A-H.png,E-H.png,hH,hH,mask-2.png,mask-4.png,h,1,0.275161599740386,none,-5,0,0.046971799805760384,0.0474201999604702,0.10002669971436262,0.09914170019328594,0.2995755998417735
RSVPLG03,cs,20260218-135437,1.0.2,20251105-084826,767,Practice,T1,1,Automatic,main,10,20260218-135532,local,local,300,H,H,A,E,A-H.png,E-H.png,hH,hH,mask-1.png,mask-4.png,h,1,0.24946239963173866,none,-5,0,0.047515799291431904,0.04852479975670576,0.09954459965229034,0.1001222999766469,0.2988935997709632
RSVPLG03,cs,20260218-135437,1.0.2,20251105-084826,767,Practice,T1,1,Automatic,main,11,20260218-135536,local,global,300,H,S,E,E,E-H.png,S-E.png,hH,sS,mask-2.png,mask-1.png,s,0,0.5431399997323751,none,-5,0,0.047881100326776505,0.04732909984886646,0.09980480000376701,0.0992280999198556,0.30042200069874525
RSVPLG03,cs,20260218-135437,1.0.2,20251105-084826,767,Practice,T1,1,Automatic,main,12,20260218-135540,global,global,750,S,S,E,E,S-E.png,S-E.png,sS,sS,mask-3.png,mask-3.png,s,1,0.27091419976204634,none,-5,0,0.04753430001437664,0.04635019972920418,0.0987721998244524,0.09927160013467073,0.7496250001713634
RSVPLG03,cs,20260218-135437,1.0.2,20251105-084826,767,Practice,T1,1,Automatic,main,13,20260218-135544,global,global,300,S,S,E,E,S-E.png,S-E.png,sS,sS,mask-4.png,mask-3.png,s,1,0.23166400007903576,none,-5,0,0.046635800041258335,0.04758999962359667,0.09979819972068071,0.10103619936853647,0.2992347003892064
RSVPLG03,cs,20260218-135437,1.0.2,20251105-084826,767,Practice,T1,1,Automatic,main,14,20260218-135548,global,local,750,H,S,A,A,H-A.png,A-S.png,hH,sS,mask-3.png,mask-1.png,h,1,0.28316859994083643,none,-5,0,0.04708729963749647,0.045686000026762486,0.09933590050786734,0.0978912003338337,0.7502795998007059
RSVPLG03,cs,20260218-135437,1.0.2,20251105-084826,767,Practice,T1,1,Automatic,main,15,20260218-135552,global,local,750,S,H,E,E,S-E.png,E-H.png,sS,hH,mask-3.png,mask-1.png,s,1,0.235712599940598,none,-5,0,0.04869920015335083,0.04668870009481907,0.10085240006446838,0.09823289979249239,0.750938500277698
RSVPLG03,cs,20260218-135437,1.0.2,20251105-084826,767,Practice,T1,1,Automatic,main,16,20260218-135556,global,global,750,S,H,A,A,S-A.png,H-A.png,sS,hH,mask-4.png,mask-1.png,s,1,0.24570269975811243,none,-5,0,0.047741400077939034,0.04983150027692318,0.09993800055235624,0.10205360036343336,0.7482922002673149
RSVPLG03,cs,20260218-135630,1.0.2,20251105-084826,767,Practice,Both,1,Automatic,main,1,20260218-135654,local,global,300,H,H,E,E,E-H.png,H-E.png,hH,hH,mask-3.png,mask-3.png,h,1,1.0211600000038743,h,1,1.4635848999023438,0.042708100751042366,0.04609320033341646,0.09366430062800646,0.09935310017317533,0.29477600008249283
RSVPLG03,cs,20260218-135630,1.0.2,20251105-084826,767,Practice,Both,1,Automatic,main,2,20260218-135700,local,local,750,H,S,E,A,E-H.png,A-S.png,hH,sS,mask-2.png,mask-3.png,h,1,0.9510621000081301,s,1,0.5657818000763655,0.04777809977531433,0.04586359951645136,0.09997859969735146,0.10017749946564436,0.7488807002082467
RSVPLG03,cs,20260218-135630,1.0.2,20251105-084826,767,Practice,Both,1,Automatic,main,3,20260218-135706,global,local,750,H,H,A,A,H-A.png,A-H.png,hH,hH,mask-2.png,mask-3.png,h,1,0.5075859008356929,h,1,0.47046570014208555,0.045687999576330185,0.04855100065469742,0.09888279996812344,0.10027280077338219,0.7471276996657252
RSVPLG03,cs,20260218-135630,1.0.2,20251105-084826,767,Practice,Both,1,Automatic,main,4,20260218-135711,local,global,750,H,S,A,E,A-H.png,S-E.png,hH,sS,mask-2.png,mask-2.png,h,1,0.5939728999510407,s,1,0.9358612997457385,0.047767799347639084,0.04614350013434887,0.10074929986149073,0.09829450026154518,0.7498980993404984
RSVPLG03,cs,20260218-135630,1.0.2,20251105-084826,767,Practice,Both,1,Automatic,main,5,20260218-135717,local,local,300,H,S,A,A,A-H.png,A-S.png,hH,sS,mask-2.png,mask-1.png,h,1,0.8796375002712011,s,1,0.3448363998904824,0.04833790007978678,0.04779739957302809,0.10082499962300062,0.10013679973781109,0.29948229994624853
RSVPLG03,cs,20260218-135630,1.0.2,20251105-084826,767,Practice,Both,1,Automatic,main,6,20260218-135721,local,local,300,H,S,A,E,A-H.png,E-S.png,hH,sS,mask-3.png,mask-4.png,h,1,0.9819744993001223,h,0,1.3017532005906105,0.04674750007688999,0.04809349961578846,0.09946640022099018,0.09943650010973215,0.29900920018553734
RSVPLG03,cs,20260218-135630,1.0.2,20251105-084826,767,Practice,Both,1,Automatic,main,7,20260218-135727,global,local,300,H,H,E,A,H-E.png,A-H.png,hH,hH,mask-3.png,mask-4.png,h,1,0.643868800252676,s,0,0.2949189003556967,0.04773580003529787,0.048729400150477886,0.09891610033810139,0.09992349985986948,0.298535100184381
RSVPLG03,cs,20260218-135630,1.0.2,20251105-084826,767,Practice,Both,1,Automatic,main,8,20260218-135732,global,global,750,H,H,A,A,H-A.png,H-A.png,hH,hH,mask-2.png,mask-1.png,h,1,0.5112924994900823,h,1,0.2854638993740082,0.04777520056813955,0.048440500162541866,0.10114990081638098,0.10140739940106869,0.7475195005536079
RSVPLG03,cs,20260218-135630,1.0.2,20251105-084826,767,Practice,Both,1,Automatic,main,9,20260218-135737,global,local,300,S,H,E,A,S-E.png,A-H.png,sS,hH,mask-1.png,mask-4.png,s,1,0.8665755996480584,h,1,0.2402929002419114,0.04819890018552542,0.04861829988658428,0.10122800059616566,0.10183130018413067,0.29970679990947247
RSVPLG03,cs,20260218-135630,1.0.2,20251105-084826,767,Practice,Both,1,Automatic,main,10,20260218-135742,local,global,300,S,H,E,E,E-S.png,H-E.png,sS,hH,mask-2.png,mask-4.png,s,1,0.622996499761939,h,1,0.2848105002194643,0.04768430069088936,0.04792260006070137,0.09989360067993402,0.1001367000862956,0.29951039981096983
RSVPLG03,cs,20260218-135630,1.0.2,20251105-084826,767,Practice,Both,1,Automatic,main,11,20260218-135746,global,global,300,H,S,E,A,H-E.png,S-A.png,hH,sS,mask-2.png,mask-2.png,h,1,0.6108144000172615,s,1,0.21491730026900768,0.047674099914729595,0.045883200131356716,0.09980790037661791,0.09847160056233406,0.3001597002148628
RSVPLG03,cs,20260218-135630,1.0.2,20251105-084826,767,Practice,Both,1,Automatic,main,12,20260218-135751,local,local,750,S,H,A,A,A-S.png,A-H.png,sS,hH,mask-1.png,mask-2.png,s,1,0.5152333993464708,h,1,0.0860490994527936,0.04681610036641359,0.04643900040537119,0.10095700062811375,0.10039099957793951,0.7480883002281189
RSVPLG03,cs,20260218-135630,1.0.2,20251105-084826,767,Practice,Both,1,Automatic,main,13,20260218-135755,global,global,300,H,H,A,A,H-A.png,H-A.png,hH,hH,mask-1.png,mask-1.png,h,1,0.5800614999607205,s,0,0.040470900014042854,0.04718239977955818,0.047620199620723724,0.10009150020778179,0.09894969966262579,0.2997503001242876
RSVPLG03,cs,20260218-135630,1.0.2,20251105-084826,767,Practice,Both,1,Automatic,main,14,20260218-135800,local,global,750,H,H,E,E,E-H.png,H-E.png,hH,hH,mask-4.png,mask-1.png,h,1,0.5905970996245742,h,1,0.29811250045895576,0.046070899814367294,0.04875329975038767,0.09923180006444454,0.10118569992482662,0.7463458999991417
RSVPLG03,cs,20260218-135630,1.0.2,20251105-084826,767,Practice,Both,1,Automatic,main,15,20260218-135805,global,local,750,S,H,E,A,S-E.png,A-H.png,sS,hH,mask-2.png,mask-4.png,s,1,0.511273299343884,h,1,0.03885929938405752,0.04675769992172718,0.04725029971450567,0.09909760020673275,0.09986170008778572,0.7475132998079062
RSVPLG03,cs,20260218-135630,1.0.2,20251105-084826,767,Practice,Both,1,Automatic,main,16,20260218-135809,global,global,750,S,S,A,E,S-A.png,S-E.png,sS,sS,mask-2.png,mask-2.png,s,1,0.4605716001242399,s,1,0.174532700330019,0.04683860018849373,0.04762079939246178,0.09989190008491278,0.09891299996525049,0.7479461003094912
RSVPLG03,cs,20260218-135930,1.0.2,20251105-084826,767,Experiment,Both,1,Automatic,warmup,1,20260218-135956,local,local,300,S,H,E,E,E-S.png,E-H.png,sS,hH,mask-3.png,mask-2.png,s,1,0.933555600233376,h,1,0.430579099804163,0.0410346994176507,0.047319100238382816,0.09352550003677607,0.10046240035444498,0.2945219995453954
RSVPLG03,cs,20260218-135930,1.0.2,20251105-084826,767,Experiment,Both,1,Automatic,warmup,2,20260218-140002,global,local,300,S,H,A,A,S-A.png,A-H.png,sS,hH,mask-1.png,mask-2.png,s,1,0.8057645000517368,h,1,0.26395969931036234,0.04767730087041855,0.04768510069698095,0.09898010082542896,0.0989254005253315,0.30060259997844696
RSVPLG03,cs,20260218-135930,1.0.2,20251105-084826,767,Experiment,Both,1,Automatic,warmup,3,20260218-140006,local,local,750,H,H,E,A,E-H.png,A-H.png,hH,hH,mask-2.png,mask-1.png,s,0,0.9355429001152515,h,1,1.0319915004074574,0.047100599855184555,0.04683289956301451,0.09926190041005611,0.09994830004870892,0.751366600394249
RSVPLG03,cs,20260218-135930,1.0.2,20251105-084826,767,Experiment,Both,1,Automatic,warmup,4,20260218-140011,global,local,750,S,S,A,E,S-A.png,E-S.png,sS,sS,mask-2.png,mask-4.png,s,1,0.4975017998367548,s,1,0.07575490046292543,0.047173299826681614,0.047255199402570724,0.10026490036398172,0.098785899579525,0.7516408003866673
RSVPLG03,cs,20260218-135930,1.0.2,20251105-084826,767,Experiment,Both,1,Automatic,main,5,20260218-140016,local,global,750,H,S,E,E,E-H.png,S-E.png,hH,sS,mask-3.png,mask-2.png,s,0,3.266791000030935,s,1,0.08368169981986284,0.04791720025241375,0.04671720042824745,0.1010594004765153,0.09844920039176941,0.7535228002816439
RSVPLG03,cs,20260218-135930,1.0.2,20251105-084826,767,Experiment,Both,1,Automatic,main,6,20260218-140023,global,global,300,H,S,E,A,H-E.png,S-A.png,hH,sS,mask-2.png,mask-3.png,h,1,0.5034170998260379,s,1,0.5991340996697545,0.04862959962338209,0.04691029991954565,0.10012419987469912,0.10018759965896606,0.30116460006684065
RSVPLG03,cs,20260218-135930,1.0.2,20251105-084826,767,Experiment,Both,1,Automatic,main,7,20260218-140028,local,global,750,H,S,A,A,A-H.png,S-A.png,hH,sS,mask-4.png,mask-2.png,h,1,0.5992315001785755,s,1,0.12331349961459637,0.04750340059399605,0.047264499589800835,0.09992370009422302,0.0987542001530528,0.7517624003812671
RSVPLG03,cs,20260218-135930,1.0.2,20251105-084826,767,Experiment,Both,1,Automatic,main,8,20260218-140032,global,global,750,S,S,E,A,S-E.png,S-A.png,sS,sS,mask-2.png,mask-2.png,s,1,0.74212840013206,s,1,0.22808939963579178,0.04670180007815361,0.04942779988050461,0.1008144998922944,0.10061439964920282,0.7501950999721885
RSVPLG03,cs,20260218-135930,1.0.2,20251105-084826,767,Experiment,Both,1,Automatic,main,9,20260218-140038,global,global,750,H,H,A,E,H-A.png,H-E.png,hH,hH,mask-3.png,mask-4.png,h,1,0.41611319966614246,h,1,0.10245919972658157,0.04678400047123432,0.0477298004552722,0.09999890066683292,0.09940140042454004,0.7517689000815153
RSVPLG03,cs,20260218-135930,1.0.2,20251105-084826,767,Experiment,Both,1,Automatic,main,10,20260218-140042,global,global,750,S,H,E,E,S-E.png,H-E.png,sS,hH,mask-2.png,mask-4.png,s,1,0.4022546000778675,h,1,0.09043139964342117,0.04690060019493103,0.04767540004104376,0.10021799989044666,0.09984820056706667,0.7525418996810913
RSVPLG03,cs,20260218-135930,1.0.2,20251105-084826,767,Experiment,Both,1,Automatic,main,11,20260218-140047,local,local,300,H,H,A,E,A-H.png,E-H.png,hH,hH,mask-3.png,mask-1.png,h,1,0.8336339006200433,h,1,0.16155899967998266,0.045711600221693516,0.047743200324475765,0.09929629974067211,0.09992730058729649,0.2992292996495962
RSVPLG03,cs,20260218-135930,1.0.2,20251105-084826,767,Experiment,Both,1,Automatic,main,12,20260218-140051,local,global,300,S,S,A,E,A-S.png,S-E.png,sS,sS,mask-2.png,mask-4.png,h,0,0.5975611004978418,s,1,0.004806399345397949,0.047682699747383595,0.04771719966083765,0.1007876992225647,0.10182289965450764,0.3004198996350169
RSVPLG03,cs,20260218-135930,1.0.2,20251105-084826,767,Experiment,Both,1,Automatic,main,13,20260218-140056,local,local,300,S,H,A,A,A-S.png,A-H.png,sS,hH,mask-1.png,mask-2.png,s,1,0.4641524003818631,h,1,0.07669890020042658,0.04713719990104437,0.048705399967730045,0.09849849995225668,0.10084709990769625,0.29931259993463755
RSVPLG03,cs,20260218-135930,1.0.2,20251105-084826,767,Experiment,Both,1,Automatic,main,14,20260218-140100,local,local,750,H,H,E,E,E-H.png,E-H.png,hH,hH,mask-3.png,mask-4.png,s,0,0.445181199349463,h,1,0.017499499954283237,0.04746340028941631,0.04801209922879934,0.10034320037811995,0.10057839937508106,0.7509862007573247
RSVPLG03,cs,20260218-135930,1.0.2,20251105-084826,767,Experiment,Both,1,Automatic,main,15,20260218-140105,global,global,750,H,H,E,A,H-E.png,H-A.png,hH,hH,mask-1.png,mask-2.png,h,1,0.3184366999194026,h,1,0.14794740080833435,0.048725299537181854,0.049009899608790874,0.10179249942302704,0.09929629974067211,0.7518678000196815
RSVPLG03,cs,20260218-135930,1.0.2,20251105-084826,767,Experiment,Both,1,Automatic,main,16,20260218-140109,global,local,300,H,H,E,E,H-E.png,E-H.png,hH,hH,mask-1.png,mask-4.png,h,1,0.7295551002025604,s,0,0.04327720031142235,0.04765539988875389,0.04954260028898716,0.09967479947954416,0.10130780003964901,0.29989679995924234
RSVPLG03,cs,20260218-135930,1.0.2,20251105-084826,767,Experiment,Both,1,Automatic,main,17,20260218-140114,global,local,300,H,S,A,E,H-A.png,E-S.png,hH,sS,mask-3.png,mask-4.png,h,1,1.3989299004897475,h,0,0.31447470001876354,0.048569800332188606,0.04775100015103817,0.10000470001250505,0.10010099969804287,0.30166540015488863
RSVPLG03,cs,20260218-135930,1.0.2,20251105-084826,767,Experiment,Both,1,Automatic,main,18,20260218-140119,local,local,300,S,H,A,A,A-S.png,A-H.png,sS,hH,mask-2.png,mask-1.png,h,0,0.9275230001658201,s,0,1.097784399986267,0.047598100267350674,0.04771159961819649,0.09986730013042688,0.10121370013803244,0.2991685001179576
RSVPLG03,cs,20260218-135930,1.0.2,20251105-084826,767,Experiment,Both,1,Automatic,main,19,20260218-140125,local,global,300,H,S,A,E,A-H.png,S-E.png,hH,sS,mask-1.png,mask-1.png,h,1,0.5405035000294447,h,0,0.6609293995425105,0.048434000462293625,0.04869209975004196,0.09945280011743307,0.10063739959150553,0.30015530064702034
RSVPLG03,cs,20260218-135930,1.0.2,20251105-084826,767,Experiment,Both,1,Automatic,main,20,20260218-140130,global,local,300,S,S,A,A,S-A.png,A-S.png,sS,sS,mask-3.png,mask-3.png,s,1,0.49780729971826077,h,0,0.4770085997879505,0.04711499996483326,0.04750549979507923,0.10074880067259073,0.0995182003825903,0.3019011002033949
RSVPLG03,cs,20260218-135930,1.0.2,20251105-084826,767,Experiment,Both,1,Automatic,main,21,20260218-140134,global,local,300,S,H,A,A,S-A.png,A-H.png,sS,hH,mask-2.png,mask-1.png,s,1,0.6206443998962641,h,1,0.2851096000522375,0.048090800642967224,0.04857319965958595,0.10028250049799681,0.10156349930912256,0.30090410076081753
RSVPLG03,cs,20260218-135930,1.0.2,20251105-084826,767,Experiment,Both,1,Automatic,main,22,20260218-140139,local,global,300,S,H,A,A,A-S.png,H-A.png,sS,hH,mask-1.png,mask-2.png,s,1,0.4457996003329754,h,1,0.17676709964871407,0.04686230048537254,0.04627640079706907,0.10001800023019314,0.09928419999778271,0.3000969998538494
RSVPLG03,cs,20260218-135930,1.0.2,20251105-084826,767,Experiment,Both,1,Automatic,main,23,20260218-140143,local,local,300,H,H,A,E,A-H.png,E-H.png,hH,hH,mask-4.png,mask-1.png,h,1,0.538633999414742,h,1,0.13301309943199158,0.048709199763834476,0.04766950011253357,0.1007607001811266,0.09989940002560616,0.3003660999238491
RSVPLG03,cs,20260218-135930,1.0.2,20251105-084826,767,Experiment,Both,1,Automatic,main,24,20260218-140147,global,local,750,H,H,A,A,H-A.png,A-H.png,hH,hH,mask-2.png,mask-2.png,h,1,0.42786260042339563,h,1,0.12217030022293329,0.04795200005173683,0.04736419953405857,0.09906719997525215,0.10024349950253963,0.7516892002895474
RSVPLG03,cs,20260218-135930,1.0.2,20251105-084826,767,Experiment,Both,1,Automatic,main,25,20260218-140152,global,local,750,S,H,E,A,S-E.png,A-H.png,sS,hH,mask-3.png,mask-2.png,s,1,0.352590199559927,h,1,0.12970340065658092,0.04676519986242056,0.04750579968094826,0.09984199982136488,0.10047779977321625,0.7522085998207331
RSVPLG03,cs,20260218-135930,1.0.2,20251105-084826,767,Experiment,Both,1,Automatic,main,26,20260218-140159,global,global,750,S,H,E,A,S-E.png,H-A.png,sS,hH,mask-1.png,mask-3.png,s,1,0.33953570015728474,h,1,0.024147900752723217,0.046947999857366085,0.04680390004068613,0.09982889983803034,0.10111370030790567,0.7509795995429158
RSVPLG03,cs,20260218-135930,1.0.2,20251105-084826,767,Experiment,Both,1,Automatic,main,27,20260218-140204,global,local,750,H,S,E,A,H-E.png,A-S.png,hH,sS,mask-4.png,mask-3.png,h,1,0.3642307994887233,s,1,0.05411169957369566,0.04671869985759258,0.048586499877274036,0.1016818005591631,0.10162669979035854,0.7505163000896573
RSVPLG03,cs,20260218-135930,1.0.2,20251105-084826,767,Experiment,Both,1,Automatic,main,28,20260218-140208,global,local,300,H,S,A,A,H-A.png,A-S.png,hH,sS,mask-1.png,mask-3.png,h,1,0.3635010998696089,s,1,0.8282000999897718,0.04764480050653219,0.04764440003782511,0.09905930049717426,0.10110140033066273,0.29976959992200136
RSVPLG03,cs,20260218-135930,1.0.2,20251105-084826,767,Experiment,Both,1,Automatic,main,29,20260218-140213,global,global,750,H,S,E,A,H-E.png,S-A.png,hH,sS,mask-2.png,mask-3.png,h,1,0.3561530001461506,s,1,0.09179040044546127,0.04758600052446127,0.04687589965760708,0.09976320061832666,0.09975609928369522,0.7521293004974723
RSVPLG03,cs,20260218-135930,1.0.2,20251105-084826,767,Experiment,Both,1,Automatic,main,30,20260218-140218,global,global,300,S,S,E,E,S-E.png,S-E.png,sS,sS,mask-1.png,mask-3.png,s,1,0.9429652001708746,h,0,0.043938000686466694,0.04792239982634783,0.047511499375104904,0.10111099947243929,0.09849169943481684,0.30255480017513037
RSVPLG03,cs,20260218-135930,1.0.2,20251105-084826,767,Experiment,Both,1,Automatic,main,31,20260218-140222,global,global,300,H,S,A,A,H-A.png,S-A.png,hH,sS,mask-2.png,mask-3.png,h,1,0.2731731999665499,s,1,0.02802940085530281,0.04838259983807802,0.047795399092137814,0.10007929988205433,0.10167039930820465,0.30057960003614426
RSVPLG03,cs,20260218-135930,1.0.2,20251105-084826,767,Experiment,Both,1,Automatic,main,32,20260218-140226,local,global,750,H,H,A,E,A-H.png,H-E.png,hH,hH,mask-2.png,mask-4.png,h,1,0.3627581996843219,h,1,0.07194000016897917,0.04794570058584213,0.048554399982094765,0.09913660027086735,0.09972929954528809,0.7506474005058408
RSVPLG03,cs,20260218-135930,1.0.2,20251105-084826,767,Experiment,Both,1,Automatic,main,33,20260218-140231,local,global,750,S,H,A,A,A-S.png,H-A.png,sS,hH,mask-3.png,mask-4.png,s,1,0.2999101998284459,h,1,0.41281899996101856,0.04859269969165325,0.04752909950911999,0.10068249981850386,0.10053339973092079,0.7512328000739217
RSVPLG03,cs,20260218-135930,1.0.2,20251105-084826,767,Experiment,Both,1,Automatic,main,34,20260218-140235,local,global,300,S,H,E,E,E-S.png,H-E.png,sS,hH,mask-1.png,mask-3.png,s,1,0.3513570996001363,h,1,0.03244150057435036,0.04861450009047985,0.048546900041401386,0.10152780078351498,0.10091170016676188,0.3008722001686692
RSVPLG03,cs,20260218-135930,1.0.2,20251105-084826,767,Experiment,Both,1,Automatic,main,35,20260218-140239,global,global,300,H,S,E,A,H-E.png,S-A.png,hH,sS,mask-3.png,mask-3.png,h,1,0.2173254992812872,s,1,0.5676581002771854,0.048561799339950085,0.04766140040010214,0.09987499937415123,0.1003898000344634,0.30050179921090603
RSVPLG03,cs,20260218-135930,1.0.2,20251105-084826,767,Experiment,Both,1,Automatic,main,36,20260218-140244,global,local,750,H,H,E,A,H-E.png,A-H.png,hH,hH,mask-3.png,mask-2.png,h,1,0.3213093001395464,h,1,0.09137819986790419,0.04798099957406521,0.047988600097596645,0.09985180012881756,0.10029600001871586,0.751405700109899
RSVPLG03,cs,20260218-135930,1.0.2,20251105-084826,767,Experiment,Both,1,Automatic,main,37,20260218-140248,local,global,300,H,H,A,A,A-H.png,H-A.png,hH,hH,mask-4.png,mask-4.png,h,1,0.4680722998455167,h,1,0.07107099983841181,0.04771899990737438,0.04771819990128279,0.09885269962251186,0.10170979984104633,0.2996880002319813
RSVPLG03,cs,20260218-135930,1.0.2,20251105-084826,767,Experiment,Both,1,Automatic,main,38,20260218-140253,local,local,300,H,H,E,A,E-H.png,A-H.png,hH,hH,mask-1.png,mask-1.png,h,1,0.48099169973284006,h,1,0.07809619978070259,0.04781179968267679,0.047504100017249584,0.09933559969067574,0.09797459933906794,0.30208689998835325
RSVPLG03,cs,20260218-135930,1.0.2,20251105-084826,767,Experiment,Both,1,Automatic,main,39,20260218-140257,global,local,750,S,S,A,A,S-A.png,A-S.png,sS,sS,mask-3.png,mask-1.png,s,1,0.41637209989130497,s,1,0.06432599946856499,0.047017100267112255,0.0483760004863143,0.09976170025765896,0.1001273998990655,0.7516521997749805
RSVPLG03,cs,20260218-135930,1.0.2,20251105-084826,767,Experiment,Both,1,Automatic,main,40,20260218-140301,global,global,750,H,S,E,E,H-E.png,S-E.png,hH,sS,mask-2.png,mask-3.png,h,1,0.37424360029399395,s,1,0.02865760028362274,0.04607259947806597,0.04748309962451458,0.09875529911369085,0.0996414003893733,0.7510423995554447
RSVPLG03,cs,20260218-135930,1.0.2,20251105-084826,767,Experiment,Both,1,Automatic,main,41,20260218-140306,global,local,300,S,S,A,A,S-A.png,A-S.png,sS,sS,mask-3.png,mask-2.png,s,1,0.460682800039649,s,1,0.5480155004188418,0.04858020041137934,0.04751319997012615,0.10158600006252527,0.09854300040751696,0.30188299994915724
RSVPLG03,cs,20260218-135930,1.0.2,20251105-084826,767,Experiment,Both,1,Automatic,main,42,20260218-140311,local,global,750,H,H,A,A,A-H.png,H-A.png,hH,hH,mask-1.png,mask-2.png,h,1,0.2979653002694249,h,1,0.0595209002494812,0.04752709995955229,0.04649440012872219,0.0997673999518156,0.09920509997755289,0.7519879005849361
RSVPLG03,cs,20260218-135930,1.0.2,20251105-084826,767,Experiment,Both,1,Automatic,main,43,20260218-140315,global,local,300,H,H,E,A,H-E.png,A-H.png,hH,hH,mask-3.png,mask-2.png,h,1,0.5282506998628378,h,1,0.05333410017192364,0.046656399965286255,0.04664669930934906,0.09804630000144243,0.09922769945114851,0.29972900077700615
RSVPLG03,cs,20260218-135930,1.0.2,20251105-084826,767,Experiment,Both,1,Automatic,main,44,20260218-140319,local,local,750,H,S,A,A,A-H.png,A-S.png,hH,sS,mask-2.png,mask-2.png,h,1,0.32278120052069426,s,1,0.41943310014903545,0.04648869950324297,0.04682379961013794,0.09961709938943386,0.09940680023282766,0.7517999997362494
RSVPLG03,cs,20260218-135930,1.0.2,20251105-084826,767,Experiment,Both,1,Automatic,main,45,20260218-140324,local,local,300,H,S,A,A,A-H.png,A-S.png,hH,sS,mask-4.png,mask-3.png,h,1,0.7344384007155895,h,0,0.05053379945456982,0.04882939998060465,0.048886300064623356,0.10124449990689754,0.1011311998590827,0.300386399962008
RSVPLG03,cs,20260218-135930,1.0.2,20251105-084826,767,Experiment,Both,1,Automatic,main,46,20260218-140328,local,global,300,S,S,E,E,E-S.png,S-E.png,sS,sS,mask-4.png,mask-4.png,s,1,0.37062030006200075,h,0,0.31407069973647594,0.04885970056056976,0.04768679942935705,0.10086720064282417,0.1008585998788476,0.3005081005394459
RSVPLG03,cs,20260218-135930,1.0.2,20251105-084826,767,Experiment,Both,1,Automatic,main,47,20260218-140333,global,global,300,H,S,A,A,H-A.png,S-A.png,hH,sS,mask-1.png,mask-4.png,h,1,0.3180380007252097,s,1,0.05960919987410307,0.04875960014760494,0.046416400000452995,0.10196810029447079,0.09963299985975027,0.30260599963366985
RSVPLG03,cs,20260218-135930,1.0.2,20251105-084826,767,Experiment,Both,1,Automatic,main,48,20260218-140337,global,global,300,S,S,E,A,S-E.png,S-A.png,sS,sS,mask-3.png,mask-2.png,s,1,0.44506930001080036,h,0,0.3290651999413967,0.04769439995288849,0.04881549999117851,0.1001418000087142,0.10196089930832386,0.2996574006974697
RSVPLG03,cs,20260218-135930,1.0.2,20251105-084826,767,Experiment,Both,1,Automatic,main,49,20260218-140341,local,global,300,H,H,A,A,A-H.png,H-A.png,hH,hH,mask-2.png,mask-3.png,h,1,0.2702248999848962,s,0,0.014552200213074684,0.04629669990390539,0.04732090048491955,0.09819809999316931,0.09918870031833649,0.2997987000271678
RSVPLG03,cs,20260218-135930,1.0.2,20251105-084826,767,Experiment,Both,1,Automatic,main,50,20260218-140345,local,local,750,S,H,A,A,A-S.png,A-H.png,sS,hH,mask-2.png,mask-4.png,s,1,0.34466829989105463,h,1,0.009579299949109554,0.048797800205647945,0.04955659992992878,0.10175919998437166,0.10185509920120239,0.7508546002209187
RSVPLG03,cs,20260218-135930,1.0.2,20251105-084826,767,Experiment,Both,1,Automatic,main,51,20260218-140352,local,local,750,S,S,A,E,A-S.png,E-S.png,sS,sS,mask-1.png,mask-1.png,s,1,0.50482780020684,s,1,0.0577777000144124,0.047330399975180626,0.0465446999296546,0.0997662004083395,0.09889409970492125,0.7515055006369948
RSVPLG03,cs,20260218-135930,1.0.2,20251105-084826,767,Experiment,Both,1,Automatic,main,52,20260218-140356,global,local,300,S,S,A,E,S-A.png,E-S.png,sS,sS,mask-3.png,mask-1.png,s,1,0.4320991998538375,h,0,0.5440589003264904,0.04776119999587536,0.04741020034998655,0.09921710006892681,0.0989254005253315,0.3012560997158289
RSVPLG03,cs,20260218-135930,1.0.2,20251105-084826,767,Experiment,Both,1,Automatic,main,53,20260218-140401,local,local,750,S,H,E,E,E-S.png,E-H.png,sS,hH,mask-4.png,mask-1.png,s,1,0.36957050021737814,h,1,0.0008889995515346527,0.047723500058054924,0.04768079984933138,0.09998629987239838,0.10182890016585588,0.7498949002474546
RSVPLG03,cs,20260218-135930,1.0.2,20251105-084826,767,Experiment,Both,1,Automatic,main,54,20260218-140405,global,global,750,H,S,A,A,H-A.png,S-A.png,hH,sS,mask-2.png,mask-4.png,h,1,0.29115649964660406,s,1,0.37116659991443157,0.04751739930361509,0.0475426996126771,0.0989437997341156,0.10052589979022741,0.750012599863112
RSVPLG03,cs,20260218-135930,1.0.2,20251105-084826,767,Experiment,Both,1,Automatic,main,55,20260218-140409,local,local,300,H,S,E,A,E-H.png,A-S.png,hH,sS,mask-4.png,mask-4.png,h,1,0.18578650057315826,s,1,0.26600239984691143,0.048690699972212315,0.048602799884974957,0.10092459991574287,0.10137900058180094,0.3006154000759125
RSVPLG03,cs,20260218-135930,1.0.2,20251105-084826,767,Experiment,Both,1,Automatic,main,56,20260218-140413,global,global,300,H,S,E,A,H-E.png,S-A.png,hH,sS,mask-2.png,mask-3.png,h,1,0.2538654999807477,s,1,0.36610289942473173,0.0487921005114913,0.04755350016057491,0.10014570038765669,0.09945730026811361,0.3007199000567198
RSVPLG03,cs,20260218-135930,1.0.2,20251105-084826,767,Experiment,Both,1,Automatic,main,57,20260218-140417,local,global,750,H,S,A,E,A-H.png,S-E.png,hH,sS,mask-3.png,mask-2.png,h,1,1.167399199679494,s,1,1.2633870001882315,0.0467739999294281,0.04637870006263256,0.10126139968633652,0.09973649960011244,0.7523314002901316
RSVPLG03,cs,20260218-135930,1.0.2,20251105-084826,767,Experiment,Both,1,Automatic,main,58,20260218-140422,local,global,750,H,S,E,A,E-H.png,S-A.png,hH,sS,mask-3.png,mask-3.png,h,1,0.3706083996221423,s,1,0.4506769999861717,0.04633540008217096,0.04715800005942583,0.09973930008709431,0.09871259983628988,0.7513487003743649
RSVPLG03,cs,20260218-135930,1.0.2,20251105-084826,767,Experiment,Both,1,Automatic,main,59,20260218-140427,local,global,750,H,S,A,A,A-H.png,S-A.png,hH,sS,mask-2.png,mask-2.png,h,1,0.46467969939112663,s,1,0.5446278993040323,0.04720900021493435,0.0484692994505167,0.09985939972102642,0.10018949955701828,0.750934200361371
RSVPLG03,cs,20260218-135930,1.0.2,20251105-084826,767,Experiment,Both,1,Automatic,main,60,20260218-140431,global,local,300,S,S,A,E,S-A.png,E-S.png,sS,sS,mask-4.png,mask-3.png,s,1,0.8503443002700806,s,1,0.06407800037413836,0.048094999976456165,0.046762099489569664,0.10041860025376081,0.10025869961827993,0.30126800015568733
RSVPLG03,cs,20260218-135930,1.0.2,20251105-084826,767,Experiment,Both,1,Automatic,main,61,20260218-140436,global,local,750,H,S,A,E,H-A.png,E-S.png,hH,sS,mask-1.png,mask-4.png,h,1,0.3376296004280448,s,1,0.4015909004956484,0.049894699826836586,0.04750039987266064,0.1007497999817133,0.10064729955047369,0.7532877000048757
RSVPLG03,cs,20260218-135930,1.0.2,20251105-084826,767,Experiment,Both,1,Automatic,main,62,20260218-140440,global,global,750,H,H,E,E,H-E.png,H-E.png,hH,hH,mask-3.png,mask-3.png,h,1,0.4671561000868678,s,0,0.5639140997081995,0.04757170006632805,0.048763700760900974,0.101291099563241,0.10090610012412071,0.7517171995714307
RSVPLG03,cs,20260218-135930,1.0.2,20251105-084826,767,Experiment,Both,1,Automatic,main,63,20260218-140445,global,global,300,H,S,A,A,H-A.png,S-A.png,hH,sS,mask-3.png,mask-1.png,h,1,0.716665799729526,s,1,0.7807083996012807,0.0475149005651474,0.0475106006488204,0.09976210072636604,0.10051009990274906,0.3003225000575185
RSVPLG03,cs,20260218-135930,1.0.2,20251105-084826,767,Experiment,Both,1,Automatic,main,64,20260218-140449,local,global,300,S,S,A,E,A-S.png,S-E.png,sS,sS,mask-3.png,mask-1.png,s,1,1.5734182996675372,s,1,0.04494109936058521,0.047594199888408184,0.04767819959670305,0.1017722999677062,0.09977359976619482,0.3007634002715349
RSVPLG03,cs,20260218-135930,1.0.2,20251105-084826,767,Experiment,Both,1,Automatic,main,65,20260218-140454,global,global,750,H,H,E,E,H-E.png,H-E.png,hH,hH,mask-4.png,mask-4.png,h,1,0.4388589998707175,h,1,0.0544106001034379,0.04739159997552633,0.046677700243890285,0.100437399931252,0.09995659999549389,0.7507301000878215
RSVPLG03,cs,20260218-135930,1.0.2,20251105-084826,767,Experiment,Both,1,Automatic,main,66,20260218-140459,global,global,300,H,H,E,E,H-E.png,H-E.png,hH,hH,mask-4.png,mask-4.png,h,1,0.35416429955512285,h,1,0.08066380023956299,0.04752050060778856,0.04846030008047819,0.10054429993033409,0.10127590037882328,0.30029150005429983
RSVPLG03,cs,20260218-135930,1.0.2,20251105-084826,767,Experiment,Both,1,Automatic,main,67,20260218-140503,global,local,750,S,S,A,A,S-A.png,A-S.png,sS,sS,mask-2.png,mask-4.png,s,1,0.334595900028944,s,1,0.044195299968123436,0.04871620051562786,0.04712930042296648,0.10177330020815134,0.09845869988203049,0.7534421002492309
RSVPLG03,cs,20260218-135930,1.0.2,20251105-084826,767,Experiment,Both,1,Automatic,main,68,20260218-140507,local,local,300,S,S,E,A,E-S.png,A-S.png,sS,sS,mask-4.png,mask-4.png,s,1,1.0365765998139977,s,1,0.04475000035017729,0.04841200076043606,0.047532400116324425,0.10137620009481907,0.1007618997246027,0.30144300032407045
RSVPLG03,cs,20260218-135930,1.0.2,20251105-084826,767,Experiment,Both,1,Automatic,main,69,20260218-140512,global,local,750,S,H,E,A,S-E.png,A-H.png,sS,hH,mask-1.png,mask-4.png,s,1,0.4711927995085716,h,1,0.007777300663292408,0.046549100428819656,0.04754140041768551,0.0989512000232935,0.09963969979435205,0.7523199003189802
RSVPLG03,cs,20260218-135930,1.0.2,20251105-084826,767,Experiment,Both,1,Automatic,main,70,20260218-140517,local,local,300,S,S,E,A,E-S.png,A-S.png,sS,sS,mask-3.png,mask-3.png,s,1,2.0046770004555583,h,0,0.004281899891793728,0.04837660025805235,0.04752990044653416,0.09923189971596003,0.09888659976422787,0.30101529974490404
RSVPLG03,cs,20260218-135930,1.0.2,20251105-084826,767,Experiment,Both,1,Automatic,main,71,20260218-140523,local,local,750,S,S,E,A,E-S.png,A-S.png,sS,sS,mask-3.png,mask-2.png,s,1,1.5642622001469135,h,0,0.5447702994570136,0.04803520068526268,0.04665450006723404,0.10186750069260597,0.09972120076417923,0.7529205000028014
RSVPLG03,cs,20260218-135930,1.0.2,20251105-084826,767,Experiment,Both,1,Automatic,main,72,20260218-140529,local,global,300,H,S,E,A,E-H.png,S-A.png,hH,sS,mask-4.png,mask-3.png,s,0,1.1837099008262157,s,1,0.07137120049446821,0.046844299882650375,0.047619299963116646,0.10102989990264177,0.1005742996931076,0.30038589984178543
RSVPLG03,cs,20260218-135930,1.0.2,20251105-084826,767,Experiment,Both,1,Automatic,main,73,20260218-140534,local,local,750,S,S,A,E,A-S.png,E-S.png,sS,sS,mask-2.png,mask-2.png,s,1,0.7027159007266164,h,0,0.7987591000273824,0.048468200489878654,0.04569170065224171,0.10104800015687943,0.09924800042062998,0.7533545000478625
RSVPLG03,cs,20260218-135930,1.0.2,20251105-084826,767,Experiment,Both,1,Automatic,main,74,20260218-140538,global,global,300,H,H,E,E,H-E.png,H-E.png,hH,hH,mask-2.png,mask-1.png,h,1,0.35183790046721697,h,1,0.06899269949644804,0.04883689992129803,0.04752929974347353,0.101350799202919,0.09826009999960661,0.3027248000726104
RSVPLG03,cs,20260218-135930,1.0.2,20251105-084826,767,Experiment,Both,1,Automatic,main,75,20260218-140543,global,local,750,S,S,E,A,S-E.png,A-S.png,sS,sS,mask-3.png,mask-3.png,s,1,0.4709334000945091,h,0,0.10655959974974394,0.047571499831974506,0.047508399933576584,0.10159020032733679,0.10153000056743622,0.7516518998891115
RSVPLG03,cs,20260218-135930,1.0.2,20251105-084826,767,Experiment,Both,1,Automatic,main,76,20260218-140549,global,global,750,S,H,E,E,S-E.png,H-E.png,sS,hH,mask-2.png,mask-1.png,s,1,0.26467660069465637,h,1,0.36116600036621094,0.046761500649154186,0.048509400337934494,0.09909849986433983,0.10028380062431097,0.7511657001450658
RSVPLG03,cs,20260218-135930,1.0.2,20251105-084826,767,Experiment,Both,1,Automatic,main,77,20260218-140553,local,global,750,S,S,A,A,A-S.png,S-A.png,sS,sS,mask-2.png,mask-1.png,s,1,0.5273909997195005,s,1,0.0783441998064518,0.047718899324536324,0.04768679942935705,0.09938920009881258,0.10116879921406507,0.7503014001995325
RSVPLG03,cs,20260218-135930,1.0.2,20251105-084826,767,Experiment,Both,1,Automatic,main,78,20260218-140558,local,global,750,S,S,E,E,E-S.png,S-E.png,sS,sS,mask-3.png,mask-2.png,s,1,0.334294400177896,s,1,0.05726930033415556,0.048270899802446365,0.046701000072062016,0.09954840037971735,0.10089750029146671,0.7518771002069116
RSVPLG03,cs,20260218-135930,1.0.2,20251105-084826,767,Experiment,Both,1,Automatic,main,79,20260218-140602,global,local,300,S,H,A,A,S-A.png,A-H.png,sS,hH,mask-3.png,mask-3.png,s,1,0.5799193000420928,s,0,0.07409770041704178,0.047707400284707546,0.047657099552452564,0.09899570047855377,0.10062809940427542,0.2984196003526449
RSVPLG03,cs,20260218-135930,1.0.2,20251105-084826,767,Experiment,Both,1,Automatic,main,80,20260218-140606,global,local,750,H,S,A,A,H-A.png,A-S.png,hH,sS,mask-1.png,mask-1.png,h,1,0.2518649995326996,s,1,0.9584202002733946,0.0488093001767993,0.048321899957954884,0.10207900032401085,0.10161569993942976,0.7518317000940442
RSVPLG03,cs,20260218-135930,1.0.2,20251105-084826,767,Experiment,Both,1,Automatic,main,81,20260218-140612,local,local,750,H,S,A,A,A-H.png,A-S.png,hH,sS,mask-4.png,mask-4.png,h,1,0.7046758001670241,s,1,0.8172829998657107,0.047047000378370285,0.04882059991359711,0.1003668000921607,0.10047339927405119,0.7512979004532099
RSVPLG03,cs,20260218-135930,1.0.2,20251105-084826,767,Experiment,Both,1,Automatic,main,82,20260218-140616,local,local,750,S,S,E,E,E-S.png,E-S.png,sS,sS,mask-3.png,mask-3.png,s,1,0.2843354996293783,s,1,0.05178239941596985,0.04663550015538931,0.04857749957591295,0.09964760020375252,0.10039419960230589,0.750454000197351
RSVPLG03,cs,20260218-135930,1.0.2,20251105-084826,767,Experiment,Both,1,Automatic,main,83,20260218-140621,global,global,750,H,S,E,A,H-E.png,S-A.png,hH,sS,mask-2.png,mask-3.png,h,1,0.29709209967404604,s,1,0.42549469973891973,0.047558399848639965,0.04645050037652254,0.09958230052143335,0.10049580037593842,0.7519455999135971
RSVPLG03,cs,20260218-135930,1.0.2,20251105-084826,767,Experiment,Both,1,Automatic,main,84,20260218-140625,global,local,750,H,H,E,A,H-E.png,A-H.png,hH,hH,mask-4.png,mask-3.png,h,1,0.311000999994576,h,1,0.08117509912699461,0.04757979977875948,0.04837880004197359,0.10063400026410818,0.10029410012066364,0.7510318998247385
RSVPLG03,cs,20260218-135930,1.0.2,20251105-084826,767,Experiment,Both,1,Automatic,main,85,20260218-140630,global,local,750,S,H,A,A,S-A.png,A-H.png,sS,hH,mask-1.png,mask-3.png,s,1,0.29005559999495745,h,1,0.03070820029824972,0.04752850066870451,0.04848289955407381,0.1014509005472064,0.09984289947897196,0.7520879004150629
RSVPLG03,cs,20260218-135930,1.0.2,20251105-084826,767,Experiment,Both,1,Automatic,main,86,20260218-140634,local,local,300,H,S,A,E,A-H.png,E-S.png,hH,sS,mask-4.png,mask-4.png,h,1,0.6380711002275348,s,1,0.7182910004630685,0.04868859983980656,0.04768359940499067,0.10008159931749105,0.1005477998405695,0.3002800000831485
RSVPLG03,cs,20260218-135930,1.0.2,20251105-084826,767,Experiment,Both,1,Automatic,main,87,20260218-140639,local,global,750,S,S,E,E,E-S.png,S-E.png,sS,sS,mask-3.png,mask-3.png,s,1,0.42324059922248125,s,1,0.061052700504660606,0.04866660013794899,0.04745890013873577,0.09975720010697842,0.09948000032454729,0.7516733994707465
RSVPLG03,cs,20260218-135930,1.0.2,20251105-084826,767,Experiment,Both,1,Automatic,main,88,20260218-140643,local,global,300,H,H,A,E,A-H.png,H-E.png,hH,hH,mask-1.png,mask-2.png,h,1,0.5864887004718184,h,1,0.07969020027667284,0.046844800002872944,0.04758649971336126,0.0999101996421814,0.0996067002415657,0.3006269996985793
RSVPLG03,cs,20260218-135930,1.0.2,20251105-084826,767,Experiment,Both,1,Automatic,main,89,20260218-140647,global,global,300,H,S,A,A,H-A.png,S-A.png,hH,sS,mask-1.png,mask-4.png,h,1,0.39869350008666515,h,0,0.07666049990803003,0.047332700341939926,0.04681309964507818,0.10040879994630814,0.09957920014858246,0.3004764001816511
RSVPLG03,cs,20260218-135930,1.0.2,20251105-084826,767,Experiment,Both,1,Automatic,main,90,20260218-140651,local,global,300,H,S,E,E,E-H.png,S-E.png,hH,sS,mask-3.png,mask-3.png,h,1,0.5091134998947382,s,1,0.020648700185120106,0.047445899806916714,0.04752260074019432,0.10035899933427572,0.09955030027776957,0.30051029939204454
RSVPLG03,cs,20260218-135930,1.0.2,20251105-084826,767,Experiment,Both,1,Automatic,main,91,20260218-140656,local,global,750,H,H,E,A,E-H.png,H-A.png,hH,hH,mask-2.png,mask-1.png,h,1,0.5209116004407406,h,1,0.05874320026487112,0.047719099558889866,0.04676220007240772,0.10073549952358007,0.10097160004079342,0.7524520996958017
RSVPLG03,cs,20260218-135930,1.0.2,20251105-084826,767,Experiment,Both,1,Automatic,main,92,20260218-140700,local,global,300,S,S,E,A,E-S.png,S-A.png,sS,sS,mask-3.png,mask-1.png,s,1,0.44351760018616915,s,1,0.14942239969968796,0.047784400172531605,0.04758839961141348,0.10116650070995092,0.10102150030434132,0.3004975002259016
RSVPLG03,cs,20260218-135930,1.0.2,20251105-084826,767,Experiment,Both,1,Automatic,main,93,20260218-140705,local,local,300,H,S,A,A,A-H.png,A-S.png,hH,sS,mask-4.png,mask-1.png,h,1,0.4930392000824213,s,1,0.05325319990515709,0.04872019961476326,0.04860839992761612,0.1009073993191123,0.10181669984012842,0.3000331996008754
RSVPLG03,cs,20260218-135930,1.0.2,20251105-084826,767,Experiment,Both,1,Automatic,main,94,20260218-140709,global,local,300,S,S,A,E,S-A.png,E-S.png,sS,sS,mask-2.png,mask-2.png,s,1,0.4916707994416356,s,1,0.060871600173413754,0.047615899704396725,0.04671729914844036,0.10090009961277246,0.09940079972147942,0.30212750006467104
RSVPLG03,cs,20260218-135930,1.0.2,20251105-084826,767,Experiment,Both,1,Automatic,main,95,20260218-140713,local,local,750,H,S,E,A,E-H.png,A-S.png,hH,sS,mask-2.png,mask-4.png,s,0,0.4834452997893095,s,1,0.06943320017307997,0.04864099994301796,0.0477333003655076,0.10017380025237799,0.1002529002726078,0.7521641999483109
RSVPLG03,cs,20260218-135930,1.0.2,20251105-084826,767,Experiment,Both,1,Automatic,main,96,20260218-140718,global,local,300,S,H,A,E,S-A.png,E-H.png,sS,hH,mask-3.png,mask-1.png,s,1,1.0072596007958055,h,1,1.0876375008374453,0.04658980015665293,0.046753499656915665,0.1006666999310255,0.09913429990410805,0.30035340040922165
RSVPLG03,cs,20260218-135930,1.0.2,20251105-084826,767,Experiment,Both,1,Automatic,main,97,20260218-140722,global,global,300,H,S,A,A,H-A.png,S-A.png,hH,sS,mask-4.png,mask-4.png,h,1,0.49049440026283264,s,1,0.016332799568772316,0.04693480022251606,0.047608000226318836,0.10044900048524141,0.10058240033686161,0.3019078001379967
RSVPLG03,cs,20260218-135930,1.0.2,20251105-084826,767,Experiment,Both,1,Automatic,main,98,20260218-140727,local,local,750,H,H,E,E,E-H.png,E-H.png,hH,hH,mask-3.png,mask-1.png,h,1,0.6566252997145057,s,0,0.7202522996813059,0.046510400250554085,0.047510200180113316,0.09882079996168613,0.09851809963583946,0.7515861000865698
RSVPLG03,cs,20260218-135930,1.0.2,20251105-084826,767,Experiment,Both,1,Automatic,main,99,20260218-140731,local,local,300,H,S,E,A,E-H.png,A-S.png,hH,sS,mask-1.png,mask-4.png,s,0,0.5850565005093813,h,0,1.050237400457263,0.04742470011115074,0.04592080041766167,0.09939489979296923,0.09883540030568838,0.3010173998773098
RSVPLG03,cs,20260218-135930,1.0.2,20251105-084826,767,Experiment,Both,1,Automatic,main,100,20260218-140737,local,local,750,S,S,A,E,A-S.png,E-S.png,sS,sS,mask-2.png,mask-1.png,s,1,0.5003038002178073,s,1,0.0726723000407219,0.04858619999140501,0.049131800420582294,0.10058460012078285,0.10020999982953072,0.7507621003314853
RSVPLG03,cs,20260218-140814,1.0.2,20251105-084826,767,Experiment,Both,1,Automatic,warmup,1,20260218-140840,global,global,750,S,H,E,A,S-E.png,H-A.png,sS,hH,mask-4.png,mask-2.png,s,1,1.9090269999578595,h,1,2.005072199739516,0.04865480028092861,0.047066500410437584,0.10067229997366667,0.10026320070028305,0.7500149998813868
RSVPLG03,cs,20260218-140814,1.0.2,20251105-084826,767,Experiment,Both,1,Automatic,warmup,2,20260218-140846,global,local,750,S,S,E,E,S-E.png,E-S.png,sS,sS,mask-1.png,mask-1.png,s,1,0.4063951000571251,h,0,0.4865039996802807,0.04840739909559488,0.04854660015553236,0.10139009915292263,0.10041000042110682,0.7504327995702624
RSVPLG03,cs,20260218-140814,1.0.2,20251105-084826,767,Experiment,Both,1,Automatic,warmup,3,20260218-140850,local,global,300,S,S,A,E,A-S.png,S-E.png,sS,sS,mask-2.png,mask-4.png,s,1,0.39211680088192225,s,1,0.05952200014144182,0.047488899901509285,0.048498399555683136,0.09931820072233677,0.0996640995144844,0.29878140054643154
RSVPLG03,cs,20260218-140814,1.0.2,20251105-084826,767,Experiment,Both,1,Automatic,warmup,4,20260218-140854,local,global,750,S,H,A,A,A-S.png,H-A.png,sS,hH,mask-1.png,mask-4.png,s,1,0.3224117998033762,h,1,0.4183156993240118,0.04849350079894066,0.04766810033470392,0.10130470059812069,0.10008880030363798,0.7497506001964211
RSVPLG03,cs,20260218-140814,1.0.2,20251105-084826,767,Experiment,Both,1,Automatic,main,5,20260218-140859,global,global,300,S,S,E,A,S-E.png,S-A.png,sS,sS,mask-2.png,mask-3.png,s,1,0.4985672002658248,s,1,0.05347670055925846,0.04667130019515753,0.047406899742782116,0.10001420043408871,0.10056779999285936,0.29924280010163784
RSVPLG03,cs,20260218-140814,1.0.2,20251105-084826,767,Experiment,Both,1,Automatic,main,6,20260218-140903,local,global,300,S,S,E,A,E-S.png,S-A.png,sS,sS,mask-3.png,mask-4.png,s,1,0.45305619947612286,s,1,0.06200710032135248,0.04828230012208223,0.047507899813354015,0.10008729994297028,0.10150450002402067,0.29915890004485846
RSVPLG03,cs,20260218-140814,1.0.2,20251105-084826,767,Experiment,Both,1,Automatic,main,7,20260218-140907,global,global,300,H,S,A,A,H-A.png,S-A.png,hH,sS,mask-1.png,mask-4.png,h,1,0.2529221000149846,s,1,0.36527550034224987,0.04757119994610548,0.046437500044703484,0.10059999953955412,0.09939850028604269,0.30103909969329834
RSVPLG03,cs,20260218-140814,1.0.2,20251105-084826,767,Experiment,Both,1,Automatic,main,8,20260218-140911,global,local,300,H,S,E,A,H-E.png,A-S.png,hH,sS,mask-1.png,mask-1.png,h,1,0.211680899374187,s,1,0.30790819972753525,0.0465661995112896,0.047534000128507614,0.09954829979687929,0.10053390078246593,0.29914659913629293
RSVPLG03,cs,20260218-140814,1.0.2,20251105-084826,767,Experiment,Both,1,Automatic,main,9,20260218-140915,global,local,300,H,S,E,E,H-E.png,E-S.png,hH,sS,mask-4.png,mask-4.png,h,1,0.2950101001188159,s,1,0.39126710034906864,0.048075499944388866,0.04763900022953749,0.10113089997321367,0.10047680046409369,0.29957429971545935
RSVPLG03,cs,20260218-140814,1.0.2,20251105-084826,767,Experiment,Both,1,Automatic,main,10,20260218-140919,local,global,750,S,H,A,E,A-S.png,H-E.png,sS,hH,mask-3.png,mask-2.png,s,1,0.8214157996699214,h,1,1.412993999198079,0.04738349933177233,0.0485249999910593,0.10026589967310429,0.10150390025228262,0.7495614998042583
RSVPLG03,cs,20260218-140814,1.0.2,20251105-084826,767,Experiment,Both,1,Automatic,main,11,20260218-140925,global,local,750,H,H,A,E,H-A.png,E-H.png,hH,hH,mask-1.png,mask-1.png,h,1,0.3411405999213457,h,1,0.040743700228631496,0.04846880026161671,0.04638590011745691,0.0995704997330904,0.09877249971032143,0.7507832003757358
RSVPLG03,cs,20260218-140814,1.0.2,20251105-084826,767,Experiment,Both,1,Automatic,main,12,20260218-140930,local,global,750,S,S,E,A,E-S.png,S-A.png,sS,sS,mask-1.png,mask-2.png,s,1,0.3487534997984767,s,1,0.2443382004275918,0.047895800322294235,0.047943600453436375,0.10085850022733212,0.10031590051949024,0.7499225996434689
RSVPLG03,cs,20260218-140814,1.0.2,20251105-084826,767,Experiment,Both,1,Automatic,main,13,20260218-140934,local,local,750,S,S,E,E,E-S.png,E-S.png,sS,sS,mask-3.png,mask-3.png,s,1,0.3346180999651551,s,1,0.05393549986183643,0.04768779966980219,0.04755050037056208,0.09903769940137863,0.09939160011708736,0.7506732996553183
RSVPLG03,cs,20260218-140814,1.0.2,20251105-084826,767,Experiment,Both,1,Automatic,main,14,20260218-140939,global,global,750,H,H,A,E,H-A.png,H-E.png,hH,hH,mask-3.png,mask-3.png,h,1,0.2836297992616892,h,1,0.08743560034781694,0.04664960037916899,0.04650080017745495,0.10081520024687052,0.09933170024305582,0.7507266998291016
RSVPLG03,cs,20260218-140814,1.0.2,20251105-084826,767,Experiment,Both,1,Automatic,main,15,20260218-140943,global,global,300,H,S,E,E,H-E.png,S-E.png,hH,sS,mask-2.png,mask-2.png,h,1,0.3293276997283101,s,1,0.4736794997006655,0.04635399952530861,0.047128899954259396,0.10044030006974936,0.1001920998096466,0.2993056997656822
RSVPLG03,cs,20260218-140814,1.0.2,20251105-084826,767,Experiment,Both,1,Automatic,main,16,20260218-140947,local,global,750,H,S,A,E,A-H.png,S-E.png,hH,sS,mask-3.png,mask-3.png,h,1,0.290102600120008,s,1,0.027416199445724487,0.04550930019468069,0.04750999994575977,0.09948279988020658,0.09947349969297647,0.7495363000780344
RSVPLG03,cs,20260218-140814,1.0.2,20251105-084826,767,Experiment,Both,1,Automatic,main,17,20260218-140952,local,local,750,H,S,A,E,A-H.png,E-S.png,hH,sS,mask-4.png,mask-2.png,h,1,0.2463427996262908,s,1,0.014134200289845467,0.046678400598466396,0.04752159956842661,0.09929750021547079,0.10029570013284683,0.7486641006544232
RSVPLG03,cs,20260218-140814,1.0.2,20251105-084826,767,Experiment,Both,1,Automatic,main,18,20260218-140956,global,local,300,H,H,E,E,H-E.png,E-H.png,hH,hH,mask-3.png,mask-1.png,h,1,1.3477729996666312,s,0,0.46738760080188513,0.047614299692213535,0.04574100021272898,0.09945940040051937,0.09935260005295277,0.2995600998401642
RSVPLG03,cs,20260218-140814,1.0.2,20251105-084826,767,Experiment,Both,1,Automatic,main,19,20260218-141002,global,local,300,H,H,A,E,H-A.png,E-H.png,hH,hH,mask-1.png,mask-2.png,h,1,0.6510680001229048,h,1,0.10114459972828627,0.047146900556981564,0.04649870004504919,0.09768250025808811,0.09886350017040968,0.29966589994728565
RSVPLG03,cs,20260218-140814,1.0.2,20251105-084826,767,Experiment,Both,1,Automatic,main,20,20260218-141006,global,local,300,S,S,E,E,S-E.png,E-S.png,sS,sS,mask-4.png,mask-3.png,s,1,0.3639815002679825,h,0,0.0441513005644083,0.04697709996253252,0.04714709986001253,0.10135339945554733,0.09923849999904633,0.30000569950789213
RSVPLG03,cs,20260218-140814,1.0.2,20251105-084826,767,Experiment,Both,1,Automatic,main,21,20260218-141010,global,global,300,S,H,E,A,S-E.png,H-A.png,sS,hH,mask-1.png,mask-4.png,s,1,0.5992330992594361,s,0,0.9155603004619479,0.04715519957244396,0.048709300346672535,0.10024259984493256,0.1001316998153925,0.2989388993009925
RSVPLG03,cs,20260218-140814,1.0.2,20251105-084826,767,Experiment,Both,1,Automatic,main,22,20260218-141015,local,global,750,S,H,A,E,A-S.png,H-E.png,sS,hH,mask-4.png,mask-1.png,s,1,0.3337930999696255,h,1,0.011043500155210495,0.047663699835538864,0.047647600062191486,0.10108849965035915,0.10172799974679947,0.7500946000218391
RSVPLG03,cs,20260218-140814,1.0.2,20251105-084826,767,Experiment,Both,1,Automatic,main,23,20260218-141020,local,global,750,H,S,E,E,E-H.png,S-E.png,hH,sS,mask-1.png,mask-2.png,s,0,2.1879785005003214,s,1,0.06193519942462444,0.04855030030012131,0.04699719976633787,0.10099050030112267,0.09871619939804077,0.75146450009197
RSVPLG03,cs,20260218-140814,1.0.2,20251105-084826,767,Experiment,Both,1,Automatic,main,24,20260218-141026,global,local,300,H,H,A,A,H-A.png,A-H.png,hH,hH,mask-1.png,mask-1.png,h,1,0.9510046001523733,h,1,0.14865180011838675,0.04652769956737757,0.04643790051341057,0.09878399968147278,0.0983857000246644,0.30022279918193817
RSVPLG03,cs,20260218-140814,1.0.2,20251105-084826,767,Experiment,Both,1,Automatic,main,25,20260218-141031,local,local,300,S,H,E,E,E-S.png,E-H.png,sS,hH,mask-4.png,mask-4.png,s,1,0.43747759982943535,h,1,0.010716399177908897,0.04767469968646765,0.04670120030641556,0.09967560041695833,0.10096469987183809,0.29959109984338284
RSVPLG03,cs,20260218-140814,1.0.2,20251105-084826,767,Experiment,Both,1,Automatic,main,26,20260218-141040,local,local,750,H,S,A,E,A-H.png,E-S.png,hH,sS,mask-2.png,mask-4.png,h,1,0.36963559966534376,s,1,0.48181189969182014,0.049374799244105816,0.048712899908423424,0.1015418991446495,0.09941339958459139,0.7508023995906115
RSVPLG03,cs,20260218-140814,1.0.2,20251105-084826,767,Experiment,Both,1,Automatic,main,27,20260218-141044,local,global,750,H,S,E,E,E-H.png,S-E.png,hH,sS,mask-4.png,mask-2.png,h,1,0.4335166998207569,s,1,0.5459566991776228,0.04549140017479658,0.04696450009942055,0.09847559966146946,0.10107029974460602,0.7488895002752542
RSVPLG03,cs,20260218-140814,1.0.2,20251105-084826,767,Experiment,Both,1,Automatic,main,28,20260218-141049,local,local,300,H,H,A,A,A-H.png,A-H.png,hH,hH,mask-1.png,mask-1.png,h,1,0.3224792005494237,h,1,0.0520711001008749,0.046569700352847576,0.045901600271463394,0.09764720033854246,0.09992299973964691,0.29930790048092604
RSVPLG03,cs,20260218-140814,1.0.2,20251105-084826,767,Experiment,Both,1,Automatic,main,29,20260218-141053,global,global,750,H,S,A,A,H-A.png,S-A.png,hH,sS,mask-4.png,mask-3.png,h,1,0.2720336001366377,s,1,0.4984521996229887,0.04866030067205429,0.0458532003685832,0.10051310062408447,0.09920900035649538,0.7504083001986146
RSVPLG03,cs,20260218-140814,1.0.2,20251105-084826,767,Experiment,Both,1,Automatic,main,30,20260218-141058,local,local,750,S,H,E,A,E-S.png,A-H.png,sS,hH,mask-4.png,mask-1.png,s,1,0.22620739974081516,h,1,0.35463379975408316,0.04705839976668358,0.04714869987219572,0.09781299997121096,0.10002030059695244,0.7479818994179368
RSVPLG03,cs,20260218-140814,1.0.2,20251105-084826,767,Experiment,Both,1,Automatic,main,31,20260218-141102,global,global,300,H,H,E,A,H-E.png,H-A.png,hH,hH,mask-1.png,mask-4.png,h,1,0.2925718007609248,h,1,0.34513929951936007,0.046045999974012375,0.04808500036597252,0.09938809927552938,0.10120430029928684,0.2984146997332573
RSVPLG03,cs,20260218-140814,1.0.2,20251105-084826,767,Experiment,Both,1,Automatic,main,32,20260218-141107,global,local,750,S,H,E,A,S-E.png,A-H.png,sS,hH,mask-4.png,mask-1.png,s,1,0.3106802999973297,h,1,0.04240680020302534,0.047561099752783775,0.04773170035332441,0.09776439983397722,0.09905949980020523,0.7494744993746281
RSVPLG03,cs,20260218-140814,1.0.2,20251105-084826,767,Experiment,Both,1,Automatic,main,33,20260218-141111,local,local,750,H,H,A,A,A-H.png,A-H.png,hH,hH,mask-2.png,mask-1.png,h,1,0.8220442999154329,h,1,0.09924629982560873,0.04654149990528822,0.04762689955532551,0.09968890063464642,0.10078819934278727,0.7488854005932808
RSVPLG03,cs,20260218-140814,1.0.2,20251105-084826,767,Experiment,Both,1,Automatic,main,34,20260218-141116,global,local,300,S,S,E,E,S-E.png,E-S.png,sS,sS,mask-3.png,mask-3.png,s,1,0.3568909000605345,h,0,0.06037389952689409,0.04567390028387308,0.04882679972797632,0.09950979985296726,0.10049859993159771,0.2987940004095435
RSVPLG03,cs,20260218-140814,1.0.2,20251105-084826,767,Experiment,Both,1,Automatic,main,35,20260218-141120,global,global,750,H,S,A,E,H-A.png,S-E.png,hH,sS,mask-3.png,mask-3.png,h,1,0.24008440040051937,s,1,0.012621600180864334,0.04749680031090975,0.04750999994575977,0.09848740044981241,0.10091680008918047,0.7486730003729463
RSVPLG03,cs,20260218-140814,1.0.2,20251105-084826,767,Experiment,Both,1,Automatic,main,36,20260218-141125,local,local,750,S,H,A,E,A-S.png,E-H.png,sS,hH,mask-3.png,mask-3.png,s,1,0.253668500110507,h,1,0.3660172000527382,0.04775269981473684,0.04883730039000511,0.09971189964562654,0.10036120004951954,0.7492773998528719
RSVPLG03,cs,20260218-140814,1.0.2,20251105-084826,767,Experiment,Both,1,Automatic,main,37,20260218-141129,global,local,300,H,H,E,E,H-E.png,E-H.png,hH,hH,mask-3.png,mask-1.png,h,1,0.33524869941174984,h,1,0.45919480081647635,0.04689770005643368,0.04747159965336323,0.09946959931403399,0.09940820001065731,0.2995849000290036
RSVPLG03,cs,20260218-140814,1.0.2,20251105-084826,767,Experiment,Both,1,Automatic,main,38,20260218-141134,local,local,300,S,H,A,E,A-S.png,E-H.png,sS,hH,mask-4.png,mask-1.png,s,1,0.3519855998456478,s,0,0.3587680999189615,0.04670079983770847,0.04563200008124113,0.09891329985111952,0.09825630020350218,0.300000200048089
RSVPLG03,cs,20260218-140814,1.0.2,20251105-084826,767,Experiment,Both,1,Automatic,main,39,20260218-141138,global,global,300,S,H,A,A,S-A.png,H-A.png,sS,hH,mask-2.png,mask-3.png,s,1,0.617854599840939,h,1,0.07500360067933798,0.04751039948314428,0.04721119999885559,0.0998641001060605,0.09849940054118633,0.3003368992358446
RSVPLG03,cs,20260218-140814,1.0.2,20251105-084826,767,Experiment,Both,1,Automatic,main,40,20260218-141142,local,global,750,H,S,E,A,E-H.png,S-A.png,hH,sS,mask-4.png,mask-4.png,h,1,0.40186299942433834,s,1,0.0196402994915843,0.047555199824273586,0.0475937994197011,0.10053220018744469,0.09887909982353449,0.7508677002042532
RSVPLG03,cs,20260218-140814,1.0.2,20251105-084826,767,Experiment,Both,1,Automatic,main,41,20260218-141147,local,local,300,S,S,E,A,E-S.png,A-S.png,sS,sS,mask-4.png,mask-4.png,s,1,0.5308697996661067,h,0,0.4735538000240922,0.04957459960132837,0.04863150045275688,0.10164619982242584,0.10185620002448559,0.30017489939928055
RSVPLG03,cs,20260218-140814,1.0.2,20251105-084826,767,Experiment,Both,1,Automatic,main,42,20260218-141152,local,global,300,S,S,E,A,E-S.png,S-A.png,sS,sS,mask-1.png,mask-4.png,s,1,0.728923300281167,s,1,0.6934046996757388,0.04677740018814802,0.047248600050807,0.09992169961333275,0.10032770037651062,0.29998139943927526
RSVPLG03,cs,20260218-140814,1.0.2,20251105-084826,767,Experiment,Both,1,Automatic,main,43,20260218-141157,global,local,750,H,S,A,A,H-A.png,A-S.png,hH,sS,mask-2.png,mask-4.png,h,1,0.325428600423038,h,0,0.3907420998439193,0.04647720046341419,0.04765770025551319,0.09903830010443926,0.09955279994755983,0.749609800055623
RSVPLG03,cs,20260218-140814,1.0.2,20251105-084826,767,Experiment,Both,1,Automatic,main,44,20260218-141202,global,local,750,H,H,A,E,H-A.png,E-H.png,hH,hH,mask-3.png,mask-1.png,h,1,0.7637767000123858,s,0,0.06154199969023466,0.04772059991955757,0.04769919998943806,0.09938229992985725,0.09931330010294914,0.7492109006270766
RSVPLG03,cs,20260218-140814,1.0.2,20251105-084826,767,Experiment,Both,1,Automatic,main,45,20260218-141207,local,local,300,H,H,A,E,A-H.png,E-H.png,hH,hH,mask-1.png,mask-3.png,h,1,0.4191728001460433,h,1,0.05454150028526783,0.04879039991647005,0.04871570039540529,0.10103089921176434,0.1009162999689579,0.30003479961305857
RSVPLG03,cs,20260218-140814,1.0.2,20251105-084826,767,Experiment,Both,1,Automatic,main,46,20260218-141211,global,global,300,H,S,A,E,H-A.png,S-E.png,hH,sS,mask-3.png,mask-4.png,h,1,0.4848819999024272,s,1,0.46035460010170937,0.047558899968862534,0.047489999793469906,0.10053819976747036,0.1004947992041707,0.30008830036967993
RSVPLG03,cs,20260218-140814,1.0.2,20251105-084826,767,Experiment,Both,1,Automatic,main,47,20260218-141216,local,local,300,S,H,E,A,E-S.png,A-H.png,sS,hH,mask-3.png,mask-3.png,s,1,1.6486689001321793,h,1,0.44474259950220585,0.046394200064241886,0.04753039963543415,0.0998072000220418,0.09906109981238842,0.30051419977098703
RSVPLG03,cs,20260218-140814,1.0.2,20251105-084826,767,Experiment,Both,1,Automatic,main,48,20260218-141221,local,local,750,S,S,A,A,A-S.png,A-S.png,sS,sS,mask-1.png,mask-2.png,h,0,0.5180236995220184,h,0,0.06982530001550913,0.04670660011470318,0.04773000068962574,0.09967240039259195,0.10032040067017078,0.7499227998778224
RSVPLG03,cs,20260218-140814,1.0.2,20251105-084826,767,Experiment,Both,1,Automatic,main,49,20260218-141226,local,local,750,S,H,E,A,E-S.png,A-H.png,sS,hH,mask-3.png,mask-2.png,s,1,1.4800640996545553,h,1,1.5759233999997377,0.047777299769222736,0.047305299900472164,0.10096380021423101,0.10019819997251034,0.7493238002061844
RSVPLG03,cs,20260218-140814,1.0.2,20251105-084826,767,Experiment,Both,1,Automatic,main,50,20260218-141232,local,global,750,H,S,A,A,A-H.png,S-A.png,hH,sS,mask-3.png,mask-3.png,h,1,0.4184011993929744,s,1,0.0735298004001379,0.04735570028424263,0.0475375996902585,0.09959680028259754,0.09880769997835159,0.7504778001457453
RSVPLG03,cs,20260218-140814,1.0.2,20251105-084826,767,Experiment,Both,1,Automatic,main,51,20260218-141240,local,local,750,H,S,E,E,E-H.png,E-S.png,hH,sS,mask-3.png,mask-2.png,s,0,0.8081914000213146,h,0,0.9202928999438882,0.04798220004886389,0.0457268999889493,0.10018650069832802,0.09983150009065866,0.7516157999634743
RSVPLG03,cs,20260218-140814,1.0.2,20251105-084826,767,Experiment,Both,1,Automatic,main,52,20260218-141245,local,global,300,H,H,A,E,A-H.png,H-E.png,hH,hH,mask-2.png,mask-2.png,h,1,0.5065077003091574,s,0,0.6505609005689621,0.047780499793589115,0.047688799910247326,0.10095889959484339,0.10087079927325249,0.3003454003483057
RSVPLG03,cs,20260218-140814,1.0.2,20251105-084826,767,Experiment,Both,1,Automatic,main,53,20260218-141249,local,global,300,H,S,E,E,E-H.png,S-E.png,hH,sS,mask-2.png,mask-4.png,h,1,0.8361856006085873,s,1,0.9163100998848677,0.04751279950141907,0.047592999413609505,0.09966699965298176,0.09967809915542603,0.3012284003198147
RSVPLG03,cs,20260218-140814,1.0.2,20251105-084826,767,Experiment,Both,1,Automatic,main,54,20260218-141253,local,local,750,S,S,A,E,A-S.png,E-S.png,sS,sS,mask-2.png,mask-3.png,h,0,0.4621055005118251,s,1,1.2427291003987193,0.04859609995037317,0.0487336004152894,0.10170859936624765,0.10180390067398548,0.7501027993857861
RSVPLG03,cs,20260218-140814,1.0.2,20251105-084826,767,Experiment,Both,1,Automatic,main,55,20260218-141259,local,local,300,H,S,E,A,E-H.png,A-S.png,hH,sS,mask-2.png,mask-3.png,s,0,3.0628068996593356,h,0,0.2353207003325224,0.04772290028631687,0.048706499859690666,0.10001199971884489,0.10117829963564873,0.29950170032680035
RSVPLG03,cs,20260218-140814,1.0.2,20251105-084826,767,Experiment,Both,1,Automatic,main,56,20260218-141306,global,local,750,S,H,E,A,S-E.png,A-H.png,sS,hH,mask-2.png,mask-1.png,s,1,0.22674610000103712,h,1,0.02083520032465458,0.04705619998276234,0.046694799326360226,0.10021119937300682,0.09984899964183569,0.7502183001488447
RSVPLG03,cs,20260218-140814,1.0.2,20251105-084826,767,Experiment,Both,1,Automatic,main,57,20260218-141311,global,global,750,S,H,A,E,S-A.png,H-E.png,sS,hH,mask-1.png,mask-4.png,s,1,0.1971757998690009,h,1,0.03319939970970154,0.048381900414824486,0.04678709991276264,0.10146819986402988,0.09885229915380478,0.7512417007237673
RSVPLG03,cs,20260218-140814,1.0.2,20251105-084826,767,Experiment,Both,1,Automatic,main,58,20260218-141315,local,global,750,H,S,A,A,A-H.png,S-A.png,hH,sS,mask-3.png,mask-1.png,h,1,0.27662699948996305,s,1,0.40507249999791384,0.04831840004771948,0.04553209990262985,0.09965599980205297,0.09799589961767197,0.7513747001066804
RSVPLG03,cs,20260218-140814,1.0.2,20251105-084826,767,Experiment,Both,1,Automatic,main,59,20260218-141319,global,global,750,S,S,A,A,S-A.png,S-A.png,sS,sS,mask-2.png,mask-1.png,s,1,0.3826171001419425,s,1,0.06351150013506413,0.047248899936676025,0.04771430045366287,0.10033819917589426,0.09944840054959059,0.7489372994750738
RSVPLG03,cs,20260218-140814,1.0.2,20251105-084826,767,Experiment,Both,1,Automatic,main,60,20260218-141324,local,local,300,H,H,E,A,E-H.png,A-H.png,hH,hH,mask-1.png,mask-4.png,h,1,0.36922650039196014,h,1,0.06052280031144619,0.04645969998091459,0.04748679976910353,0.10024990048259497,0.1015125997364521,0.2996364003047347
RSVPLG03,cs,20260218-140814,1.0.2,20251105-084826,767,Experiment,Both,1,Automatic,main,61,20260218-141328,global,global,300,S,S,A,A,S-A.png,S-A.png,sS,sS,mask-1.png,mask-3.png,s,1,0.1733159003779292,h,0,0.3361785998567939,0.046952299773693085,0.04726439993828535,0.09840080048888922,0.1002732003107667,0.2998887998983264
RSVPLG03,cs,20260218-140814,1.0.2,20251105-084826,767,Experiment,Both,1,Automatic,main,62,20260218-141332,global,local,300,H,H,A,E,H-A.png,E-H.png,hH,hH,mask-3.png,mask-2.png,h,1,0.48592659924179316,h,1,0.042339700274169445,0.046678599901497364,0.0477091995999217,0.09990319982171059,0.09880200028419495,0.29959290008991957
RSVPLG03,cs,20260218-140814,1.0.2,20251105-084826,767,Experiment,Both,1,Automatic,main,63,20260218-141336,global,local,750,H,H,A,A,H-A.png,A-H.png,hH,hH,mask-2.png,mask-3.png,h,1,0.782854599878192,h,1,0.03809730056673288,0.04841480031609535,0.047540499828755856,0.10042509995400906,0.10170709993690252,0.7494218004867435
RSVPLG03,cs,20260218-140814,1.0.2,20251105-084826,767,Experiment,Both,1,Automatic,main,64,20260218-141341,global,local,750,H,S,E,E,H-E.png,E-S.png,hH,sS,mask-2.png,mask-1.png,h,1,0.5854433001950383,s,1,0.023396600037813187,0.046516500413417816,0.046872399747371674,0.0985292000696063,0.09994690027087927,0.7482946002855897
RSVPLG03,cs,20260218-140814,1.0.2,20251105-084826,767,Experiment,Both,1,Automatic,main,65,20260218-141346,global,local,300,S,H,A,E,S-A.png,E-H.png,sS,hH,mask-1.png,mask-1.png,s,1,1.282706500031054,s,0,0.07664860039949417,0.048723600804805756,0.04883689992129803,0.10003470070660114,0.10187789984047413,0.29964000079780817
RSVPLG03,cs,20260218-140814,1.0.2,20251105-084826,767,Experiment,Both,1,Automatic,main,66,20260218-141351,local,global,300,H,S,E,A,E-H.png,S-A.png,hH,sS,mask-4.png,mask-1.png,s,0,2.1937688998878,h,0,0.06338350009173155,0.04642360005527735,0.04867460019886494,0.09934969991445541,0.10068640019744635,0.2984988000243902
RSVPLG03,cs,20260218-140814,1.0.2,20251105-084826,767,Experiment,Both,1,Automatic,main,67,20260218-141357,local,local,300,H,S,A,A,A-H.png,A-S.png,hH,sS,mask-4.png,mask-4.png,h,1,0.4068622998893261,s,1,0.013193299993872643,0.04747280012816191,0.04777480009943247,0.09943689964711666,0.09996560029685497,0.30010339990258217
RSVPLG03,cs,20260218-140814,1.0.2,20251105-084826,767,Experiment,Both,1,Automatic,main,68,20260218-141401,global,global,750,S,S,A,E,S-A.png,S-E.png,sS,sS,mask-1.png,mask-3.png,s,1,1.455617900006473,s,1,0.07573540043085814,0.04565040022134781,0.04658319987356663,0.09920210018754005,0.10036190040409565,0.7485461998730898
RSVPLG03,cs,20260218-140814,1.0.2,20251105-084826,767,Experiment,Both,1,Automatic,main,69,20260218-141407,global,global,300,S,S,E,A,S-E.png,S-A.png,sS,sS,mask-3.png,mask-2.png,s,1,0.6897151004523039,s,1,0.05980930011719465,0.04770390037447214,0.046496099792420864,0.09980299975723028,0.09971010033041239,0.2998123001307249
RSVPLG03,cs,20260218-140814,1.0.2,20251105-084826,767,Experiment,Both,1,Automatic,main,70,20260218-141411,global,local,300,H,S,E,A,H-E.png,A-S.png,hH,sS,mask-3.png,mask-2.png,h,1,0.3156260997056961,s,1,0.44331909995526075,0.04863790050148964,0.04647590033710003,0.10099999979138374,0.10000979993492365,0.3003676999360323
RSVPLG03,cs,20260218-140814,1.0.2,20251105-084826,767,Experiment,Both,1,Automatic,main,71,20260218-141415,local,global,300,H,H,A,E,A-H.png,H-E.png,hH,hH,mask-4.png,mask-1.png,h,1,0.8957764999940991,h,1,0.023266599513590336,0.04849579930305481,0.04743510019034147,0.10123159922659397,0.10034270025789738,0.2999235996976495
RSVPLG03,cs,20260218-140814,1.0.2,20251105-084826,767,Experiment,Both,1,Automatic,main,72,20260218-141420,local,local,750,S,S,A,A,A-S.png,A-S.png,sS,sS,mask-4.png,mask-2.png,s,1,1.5285430001094937,s,1,0.05438059940934181,0.04683909937739372,0.04760340042412281,0.09890189953148365,0.10086730029433966,0.7486766995862126
RSVPLG03,cs,20260218-140814,1.0.2,20251105-084826,767,Experiment,Both,1,Automatic,main,73,20260218-141425,local,global,300,S,S,E,E,E-S.png,S-E.png,sS,sS,mask-4.png,mask-2.png,s,1,1.8221070999279618,s,1,0.04362510051578283,0.04966470040380955,0.04958039987832308,0.10069630015641451,0.10161519981920719,0.3001380003988743
RSVPLG03,cs,20260218-140814,1.0.2,20251105-084826,767,Experiment,Both,1,Automatic,main,74,20260218-141431,global,local,750,H,H,A,A,H-A.png,A-H.png,hH,hH,mask-2.png,mask-3.png,h,1,0.3528370000422001,h,1,0.2627119002863765,0.047645799815654755,0.048650999553501606,0.1008433997631073,0.10017360001802444,0.7491902997717261
RSVPLG03,cs,20260218-140814,1.0.2,20251105-084826,767,Experiment,Both,1,Automatic,main,75,20260218-141436,global,global,750,S,H,E,E,S-E.png,H-E.png,sS,hH,mask-3.png,mask-3.png,s,1,0.3398299003019929,h,1,0.43598239962011576,0.04671560041606426,0.047432100400328636,0.09989870060235262,0.09956180024892092,0.7498457999899983
RSVPLG03,cs,20260218-140814,1.0.2,20251105-084826,767,Experiment,Both,1,Automatic,main,76,20260218-141445,local,local,300,S,H,E,E,E-S.png,E-H.png,sS,hH,mask-2.png,mask-2.png,s,1,0.35596449952572584,h,1,0.452785799279809,0.045901100151240826,0.047145700082182884,0.09821140021085739,0.09942400082945824,0.2987672993913293
RSVPLG03,cs,20260218-140814,1.0.2,20251105-084826,767,Experiment,Both,1,Automatic,main,77,20260218-141449,local,global,750,H,H,A,E,A-H.png,H-E.png,hH,hH,mask-1.png,mask-4.png,h,1,0.3637801995500922,h,1,0.03451929986476898,0.046571699902415276,0.04819860029965639,0.09958240017294884,0.09940710011869669,0.7493720995262265
RSVPLG03,cs,20260218-140814,1.0.2,20251105-084826,767,Experiment,Both,1,Automatic,main,78,20260218-141453,global,local,750,S,S,A,E,S-A.png,E-S.png,sS,sS,mask-1.png,mask-3.png,s,1,0.4233367005363107,s,1,0.06017709989100695,0.04760919976979494,0.04672370012849569,0.09989750012755394,0.09998450055718422,0.749800999648869
RSVPLG03,cs,20260218-140814,1.0.2,20251105-084826,767,Experiment,Both,1,Automatic,main,79,20260218-141458,global,global,750,H,S,E,A,H-E.png,S-A.png,hH,sS,mask-4.png,mask-3.png,h,1,0.2756876992061734,s,1,0.45765959937125444,0.047760000452399254,0.04782580025494099,0.10072469990700483,0.10012010019272566,0.7501622000709176
RSVPLG03,cs,20260218-140814,1.0.2,20251105-084826,767,Experiment,Both,1,Automatic,main,80,20260218-141503,global,global,300,S,H,A,A,S-A.png,H-A.png,sS,hH,mask-2.png,mask-2.png,s,1,0.39382770005613565,h,1,0.016922200098633766,0.049462199211120605,0.04610159993171692,0.10137549974024296,0.09828289970755577,0.3015847997739911
RSVPLG03,cs,20260218-140814,1.0.2,20251105-084826,767,Experiment,Both,1,Automatic,main,81,20260218-141507,local,global,300,S,H,E,E,E-S.png,H-E.png,sS,hH,mask-3.png,mask-1.png,s,1,0.31359419971704483,h,1,0.004685099236667156,0.04671540018171072,0.04884409997612238,0.09911680035293102,0.10026689991354942,0.299324800260365
RSVPLG03,cs,20260218-140814,1.0.2,20251105-084826,767,Experiment,Both,1,Automatic,main,82,20260218-141511,global,global,300,H,H,A,E,H-A.png,H-E.png,hH,hH,mask-3.png,mask-3.png,h,1,0.19847789965569973,s,0,0.09975429996848106,0.04728870000690222,0.04849759954959154,0.10009230021387339,0.09948339965194464,0.2997100008651614
RSVPLG03,cs,20260218-140814,1.0.2,20251105-084826,767,Experiment,Both,1,Automatic,main,83,20260218-141515,global,local,750,H,H,E,A,H-E.png,A-H.png,hH,hH,mask-1.png,mask-3.png,h,1,0.42611389979720116,h,1,0.15504129976034164,0.04650119971483946,0.04755860008299351,0.0980714000761509,0.1005286006256938,0.7489949995651841
RSVPLG03,cs,20260218-140814,1.0.2,20251105-084826,767,Experiment,Both,1,Automatic,main,84,20260218-141520,local,global,750,S,S,A,A,A-S.png,S-A.png,sS,sS,mask-3.png,mask-4.png,h,0,0.6951552992686629,s,1,0.5412653004750609,0.04626449942588806,0.04736930038779974,0.09807979967445135,0.09963660035282373,0.7487347992137074
RSVPLG03,cs,20260218-140814,1.0.2,20251105-084826,767,Experiment,Both,1,Automatic,main,85,20260218-141525,global,global,750,S,H,A,E,S-A.png,H-E.png,sS,hH,mask-3.png,mask-2.png,s,1,0.43987400084733963,h,1,0.1765021001920104,0.04864040017127991,0.047928900457918644,0.10167500004172325,0.10087279975414276,0.7503915000706911
RSVPLG03,cs,20260218-140814,1.0.2,20251105-084826,767,Experiment,Both,1,Automatic,main,86,20260218-141530,global,local,300,H,S,E,E,H-E.png,E-S.png,hH,sS,mask-3.png,mask-4.png,h,1,0.702390399761498,s,1,0.1854631006717682,0.04764179978519678,0.04729880020022392,0.09984909929335117,0.09981160052120686,0.2999968994408846
RSVPLG03,cs,20260218-140814,1.0.2,20251105-084826,767,Experiment,Both,1,Automatic,main,87,20260218-141535,global,global,750,S,S,E,E,S-E.png,S-E.png,sS,sS,mask-1.png,mask-4.png,s,1,0.7707302002236247,s,1,0.34735719952732325,0.04679359961301088,0.048676599748432636,0.0998742999508977,0.10012389998883009,0.7493022996932268
RSVPLG03,cs,20260218-140814,1.0.2,20251105-084826,767,Experiment,Both,1,Automatic,main,88,20260218-141540,local,global,300,S,S,E,E,E-S.png,S-E.png,sS,sS,mask-2.png,mask-3.png,s,1,0.6309350002557039,s,1,0.23600859940052032,0.04784610029309988,0.048085699789226055,0.10132780019193888,0.1013238001614809,0.3001816002652049
RSVPLG03,cs,20260218-140814,1.0.2,20251105-084826,767,Experiment,Both,1,Automatic,main,89,20260218-141545,global,local,750,S,S,A,E,S-A.png,E-S.png,sS,sS,mask-2.png,mask-4.png,s,1,0.8112161001190543,s,1,0.36597940046340227,0.0475937994197011,0.04749650042504072,0.09862709976732731,0.09960930049419403,0.7499897992238402
RSVPLG03,cs,20260218-140814,1.0.2,20251105-084826,767,Experiment,Both,1,Automatic,main,90,20260218-141550,local,global,300,S,S,A,E,A-S.png,S-E.png,sS,sS,mask-1.png,mask-2.png,h,0,0.7080477997660637,h,0,0.5079600000753999,0.04749239981174469,0.04748309962451458,0.09955359995365143,0.10106089990586042,0.2990597002208233
RSVPLG03,cs,20260218-140814,1.0.2,20251105-084826,767,Experiment,Both,1,Automatic,main,91,20260218-141555,local,local,300,H,S,E,E,E-H.png,E-S.png,hH,sS,mask-1.png,mask-3.png,s,0,2.3097473001107574,h,0,0.08944580052047968,0.04673920013010502,0.048056299798190594,0.09993140026926994,0.09999989997595549,0.29806850012391806
RSVPLG03,cs,20260218-140814,1.0.2,20251105-084826,767,Experiment,Both,1,Automatic,main,92,20260218-141601,global,global,300,H,H,E,E,H-E.png,H-E.png,hH,hH,mask-2.png,mask-2.png,h,1,0.30059169977903366,h,1,0.08812400046736002,0.0487266993150115,0.04763580020517111,0.10014329943805933,0.09911960083991289,0.30053569935262203
RSVPLG03,cs,20260218-140814,1.0.2,20251105-084826,767,Experiment,Both,1,Automatic,main,93,20260218-141605,global,global,750,H,H,A,E,H-A.png,H-E.png,hH,hH,mask-3.png,mask-4.png,h,1,0.6580466004088521,h,1,0.06982280034571886,0.04663520026952028,0.04592079948633909,0.09962960053235292,0.09904719982296228,0.7501740008592606
RSVPLG03,cs,20260218-140814,1.0.2,20251105-084826,767,Experiment,Both,1,Automatic,main,94,20260218-141610,local,local,750,H,S,E,E,E-H.png,E-S.png,hH,sS,mask-4.png,mask-4.png,h,1,0.6939124995842576,h,0,0.0999897001311183,0.0477060005068779,0.046636899933218956,0.09937230031937361,0.10084310080856085,0.7493011998012662
RSVPLG03,cs,20260218-140814,1.0.2,20251105-084826,767,Experiment,Both,1,Automatic,main,95,20260218-141615,global,global,750,S,S,A,A,S-A.png,S-A.png,sS,sS,mask-4.png,mask-2.png,s,1,0.28231609985232353,s,1,0.09615799970924854,0.046532999724149704,0.04851619992405176,0.09879209939390421,0.0997974006459117,0.7487520994618535
RSVPLG03,cs,20260218-140814,1.0.2,20251105-084826,767,Experiment,Both,1,Automatic,main,96,20260218-141619,global,local,750,H,S,A,A,H-A.png,A-S.png,hH,sS,mask-3.png,mask-3.png,h,1,0.30442360043525696,s,1,0.04044859949499369,0.047884900122880936,0.047644699923694134,0.10118359979242086,0.10108309984207153,0.7493396000936627
RSVPLG03,cs,20260218-140814,1.0.2,20251105-084826,767,Experiment,Both,1,Automatic,main,97,20260218-141624,local,global,300,H,H,E,A,E-H.png,H-A.png,hH,hH,mask-4.png,mask-4.png,s,0,0.43402389995753765,h,1,0.06961650028824806,0.045647500082850456,0.04752129968255758,0.09965400025248528,0.0998797994107008,0.298738700337708
RSVPLG03,cs,20260218-140814,1.0.2,20251105-084826,767,Experiment,Both,1,Automatic,main,98,20260218-141628,local,local,300,H,H,A,A,A-H.png,A-H.png,hH,hH,mask-2.png,mask-2.png,h,1,0.23180370032787323,h,1,0.08616110030561686,0.04614910017699003,0.04848239943385124,0.09832650050520897,0.09963519964367151,0.29911100026220083
RSVPLG03,cs,20260218-140814,1.0.2,20251105-084826,767,Experiment,Both,1,Automatic,main,99,20260218-141632,local,global,750,H,S,A,A,A-H.png,S-A.png,hH,sS,mask-2.png,mask-2.png,h,1,0.3248055996373296,s,1,0.06384319998323917,0.04830989986658096,0.04693340044468641,0.10048389993607998,0.09936350025236607,0.7511115996167064
RSVPLG03,cs,20260218-140814,1.0.2,20251105-084826,767,Experiment,Both,1,Automatic,main,100,20260218-141636,local,global,300,H,H,A,E,A-H.png,H-E.png,hH,hH,mask-2.png,mask-1.png,h,1,0.2821141006425023,h,1,0.14608030021190643,0.047155000269412994,0.04856329970061779,0.10125759989023209,0.0997834000736475,0.300135999917984
