exp,exp_initials,runtime,ver,modtime,sub,blocktype,targets,cuetype,mode,trialtype,trial,trialtime,t1_level,t2_level,t2_lag,t1,t2,distractor1,distractor2,stimfile1,stimfile2,t1_corr,t2_corr,maskfile1,maskfile2,t1_resp,t1_acc,t1_rt,t2_resp,t2_acc,t2_rt,t1_dur,t2_dur,t1mask_soa,t2mask_soa,t1t2_soa
RSVPLG03,si,20260311-080824,1.0.2,20260219-152011,801,Introduction,T1,1,Automatic,main,1,20260311-080846,local,global,750,S,S,E,E,E-S.png,S-E.png,sS,sS,mask-3.png,mask-2.png,s,1,1.7325981999747455,none,-5,0,0.09834800008684397,0.09986389998812228,0.19745680002961308,0.20120490004774183,0.7481237000320107
RSVPLG03,si,20260311-080824,1.0.2,20260219-152011,801,Introduction,T1,1,Automatic,main,2,20260311-080852,local,local,750,H,H,E,A,E-H.png,A-H.png,hH,hH,mask-2.png,mask-2.png,s,0,1.7061741999350488,none,-5,0,0.09913670003879815,0.10236949997488409,0.20095149998087436,0.2021134999813512,0.7494581000646576
RSVPLG03,si,20260311-080824,1.0.2,20260219-152011,801,Introduction,T1,1,Automatic,main,3,20260311-080858,global,global,750,S,S,A,E,S-A.png,S-E.png,sS,sS,mask-2.png,mask-4.png,s,1,1.6045965000521392,none,-5,0,0.09930140001233667,0.09941239992622286,0.19892360002268106,0.200251100002788,0.749361400026828
RSVPLG03,si,20260311-080824,1.0.2,20260219-152011,801,Introduction,T1,1,Automatic,main,4,20260311-080904,global,global,750,S,S,E,A,S-E.png,S-A.png,sS,sS,mask-4.png,mask-3.png,s,1,1.3371827999362722,none,-5,0,0.10181729996111244,0.09974150010384619,0.2003279000055045,0.19963849999476224,0.7518110999371856
RSVPLG03,si,20260311-080824,1.0.2,20260219-152011,801,Introduction,T1,1,Automatic,main,5,20260311-080909,local,global,750,H,H,A,A,A-H.png,H-A.png,hH,hH,mask-2.png,mask-4.png,h,1,1.7555738999508321,none,-5,0,0.09835379989817739,0.10045850009191781,0.199667299981229,0.20193430001381785,0.7496047999011353
RSVPLG03,si,20260311-080824,1.0.2,20260219-152011,801,Introduction,T1,1,Automatic,main,6,20260311-080915,global,local,750,H,H,A,E,H-A.png,E-H.png,hH,hH,mask-3.png,mask-4.png,s,0,2.296559099922888,none,-5,0,0.10119400010444224,0.09966129995882511,0.20095150009728968,0.2004630999872461,0.750195600092411
RSVPLG03,si,20260311-080824,1.0.2,20260219-152011,801,Introduction,T1,1,Automatic,main,7,20260311-080922,global,global,750,H,S,A,E,H-A.png,S-E.png,hH,sS,mask-2.png,mask-3.png,s,0,0.9049614000832662,none,-5,0,0.10095749993342906,0.09810040006414056,0.2004513000138104,0.19903900008648634,0.7528340999269858
RSVPLG03,si,20260311-080824,1.0.2,20260219-152011,801,Introduction,T1,1,Automatic,main,8,20260311-080927,local,local,750,S,H,E,A,E-S.png,A-H.png,sS,hH,mask-3.png,mask-2.png,h,0,1.0538615999976173,none,-5,0,0.0996199999935925,0.09917429997585714,0.1983716000104323,0.19951329997275025,0.7501903000520542
RSVPLG03,si,20260311-080824,1.0.2,20260219-152011,801,Introduction,T1,1,Automatic,main,9,20260311-080932,local,local,750,S,S,E,A,E-S.png,A-S.png,sS,sS,mask-4.png,mask-2.png,s,1,2.436035900027491,none,-5,0,0.09874839999247342,0.09944980009458959,0.19980820000637323,0.19934350007679313,0.7514915999490768
RSVPLG03,si,20260311-080824,1.0.2,20260219-152011,801,Introduction,T1,1,Automatic,main,10,20260311-080939,local,global,750,S,H,E,E,E-S.png,H-E.png,sS,hH,mask-1.png,mask-3.png,h,0,3.206475800019689,none,-5,0,0.10171919991262257,0.10167380003258586,0.20178639993537217,0.1998236000072211,0.7511382999364287
RSVPLG03,si,20260311-080824,1.0.2,20260219-152011,801,Introduction,T1,1,Automatic,main,11,20260311-080946,global,local,750,H,S,E,E,H-E.png,E-S.png,hH,sS,mask-2.png,mask-1.png,h,1,2.318774600047618,none,-5,0,0.10135179990902543,0.09665700001642108,0.2005352999549359,0.199004799942486,0.7528705999720842
RSVPLG03,si,20260311-080824,1.0.2,20260219-152011,801,Introduction,T1,1,Automatic,main,12,20260311-080953,global,local,750,H,S,A,E,H-A.png,E-S.png,hH,sS,mask-1.png,mask-4.png,s,0,1.2202994000399485,none,-5,0,0.09919449989683926,0.09923279995564371,0.2012459000106901,0.19975360005628318,0.750926399952732
RSVPLG03,si,20260311-080824,1.0.2,20260219-152011,801,Introduction,T1,1,Automatic,main,13,20260311-080958,global,global,750,H,S,E,E,H-E.png,S-E.png,hH,sS,mask-4.png,mask-2.png,s,0,1.1505752999801189,none,-5,0,0.10101310000754893,0.10006179998163134,0.19968570000492036,0.19961510004941374,0.751742499996908
RSVPLG03,si,20260311-080824,1.0.2,20260219-152011,801,Introduction,T1,1,Automatic,main,14,20260311-081004,local,local,750,H,S,A,A,A-H.png,A-S.png,hH,sS,mask-4.png,mask-4.png,s,0,2.9819718000944704,none,-5,0,0.10004229994956404,0.09735360008198768,0.20029259996954352,0.19881630002055317,0.7537535999435931
RSVPLG03,si,20260311-080824,1.0.2,20260219-152011,801,Introduction,T1,1,Automatic,main,15,20260311-081011,global,local,750,S,S,A,E,S-A.png,E-S.png,sS,sS,mask-3.png,mask-1.png,s,1,4.082689199945889,none,-5,0,0.10048460005782545,0.1011844000313431,0.20113400008995086,0.19981500005815178,0.7506712999893352
RSVPLG03,si,20260311-080824,1.0.2,20260219-152011,801,Introduction,T1,1,Automatic,main,16,20260311-081019,local,global,750,S,H,E,E,E-S.png,H-E.png,sS,hH,mask-2.png,mask-2.png,s,1,1.7488026999635622,none,-5,0,0.1022985999006778,0.09752080007456243,0.2011693000094965,0.19748980004806072,0.7537501999177039
RSVPLG03,si,20260311-081040,1.0.2,20260219-152011,801,Introduction,T1,1,Automatic,main,1,20260311-081057,global,global,750,S,S,E,A,S-E.png,S-A.png,sS,sS,mask-3.png,mask-3.png,s,1,1.3933994999388233,none,-5,0,0.09573020006064326,0.10015469999052584,0.19578270008787513,0.20079820009414107,0.7451703000115231
RSVPLG03,si,20260311-081040,1.0.2,20260219-152011,801,Introduction,T1,1,Automatic,main,2,20260311-081102,local,global,750,H,H,A,E,A-H.png,H-E.png,hH,hH,mask-3.png,mask-3.png,h,1,1.2762857999186963,none,-5,0,0.09934990003239363,0.09870670002419502,0.19915830006357282,0.19897380005568266,0.7503390000201762
RSVPLG03,si,20260311-081040,1.0.2,20260219-152011,801,Introduction,T1,1,Automatic,main,3,20260311-081108,local,local,750,H,H,A,A,A-H.png,A-H.png,hH,hH,mask-3.png,mask-2.png,h,1,0.9059494999237359,none,-5,0,0.10223570000380278,0.09927409992087632,0.19998060003854334,0.1995867999503389,0.7517960000550374
RSVPLG03,si,20260311-081040,1.0.2,20260219-152011,801,Introduction,T1,1,Automatic,main,4,20260311-081113,local,global,750,H,H,A,E,A-H.png,H-E.png,hH,hH,mask-1.png,mask-2.png,h,1,1.0511786000570282,none,-5,0,0.09386859997175634,0.10003199998755008,0.19507999997586012,0.2001264999853447,0.7444441999541596
RSVPLG03,si,20260311-081040,1.0.2,20260219-152011,801,Introduction,T1,1,Automatic,main,5,20260311-081118,local,global,750,S,S,A,A,A-S.png,S-A.png,sS,sS,mask-1.png,mask-2.png,s,1,1.5195637999568135,none,-5,0,0.10151139996014535,0.09976339992135763,0.2001452000113204,0.19962239998858422,0.7509663000237197
RSVPLG03,si,20260311-081040,1.0.2,20260219-152011,801,Introduction,T1,1,Automatic,main,6,20260311-081124,global,global,750,H,S,E,A,H-E.png,S-A.png,hH,sS,mask-2.png,mask-4.png,s,0,2.999727600021288,none,-5,0,0.09982440003659576,0.09965160000137985,0.20134140003938228,0.20010599994566292,0.7497426000190899
RSVPLG03,si,20260311-081040,1.0.2,20260219-152011,801,Introduction,T1,1,Automatic,main,7,20260311-081131,local,local,750,S,H,A,A,A-S.png,A-H.png,sS,hH,mask-3.png,mask-1.png,s,1,0.7212746000150219,none,-5,0,0.09966880001593381,0.09970669995527714,0.1995522000361234,0.20159409998450428,0.7493878999957815
RSVPLG03,si,20260311-081040,1.0.2,20260219-152011,801,Introduction,T1,1,Automatic,main,8,20260311-081136,local,local,750,H,S,E,A,E-H.png,A-S.png,hH,sS,mask-2.png,mask-2.png,h,1,0.8966858999338001,none,-5,0,0.10050339996814728,0.10004439996555448,0.20014380000066012,0.20048090000636876,0.7494036999996752
RSVPLG03,si,20260311-081040,1.0.2,20260219-152011,801,Introduction,T1,1,Automatic,main,9,20260311-081141,global,local,750,S,H,A,A,S-A.png,A-H.png,sS,hH,mask-2.png,mask-3.png,s,1,0.8124234999995679,none,-5,0,0.09997909993398935,0.10016969998832792,0.19882619997952133,0.20032990002073348,0.7491652999306098
RSVPLG03,si,20260311-081040,1.0.2,20260219-152011,801,Introduction,T1,1,Automatic,main,10,20260311-081146,global,local,750,H,S,E,A,H-E.png,A-S.png,hH,sS,mask-1.png,mask-4.png,h,1,0.6103560000192374,none,-5,0,0.09757570002693683,0.1012506999541074,0.1988019000273198,0.20114019990433007,0.7482329000486061
RSVPLG03,si,20260311-081040,1.0.2,20260219-152011,801,Introduction,T1,1,Automatic,main,11,20260311-081151,global,global,750,H,S,E,A,H-E.png,S-A.png,hH,sS,mask-2.png,mask-3.png,h,1,1.7257692000130191,none,-5,0,0.0989892000798136,0.09921889996621758,0.20034270000178367,0.20069490000605583,0.7498355000279844
RSVPLG03,si,20260311-081040,1.0.2,20260219-152011,801,Introduction,T1,1,Automatic,main,12,20260311-081157,global,global,750,S,S,E,E,S-E.png,S-E.png,sS,sS,mask-4.png,mask-3.png,h,0,1.1259482000023127,none,-5,0,0.09994029998779297,0.0994447999401018,0.19916369998827577,0.1998736000386998,0.7500865999609232
RSVPLG03,si,20260311-081040,1.0.2,20260219-152011,801,Introduction,T1,1,Automatic,main,13,20260311-081202,global,local,750,S,S,A,E,S-A.png,E-S.png,sS,sS,mask-1.png,mask-4.png,s,1,0.4641521000303328,none,-5,0,0.10088939999695867,0.10038750001695007,0.20027879998087883,0.19949450006242841,0.751452999887988
RSVPLG03,si,20260311-081040,1.0.2,20260219-152011,801,Introduction,T1,1,Automatic,main,14,20260311-081207,local,global,750,H,S,A,A,A-H.png,S-A.png,hH,sS,mask-3.png,mask-2.png,h,1,1.4643504999112338,none,-5,0,0.10234800004400313,0.09916660003364086,0.20242119999602437,0.19973310001660138,0.7515098999720067
RSVPLG03,si,20260311-081040,1.0.2,20260219-152011,801,Introduction,T1,1,Automatic,main,15,20260311-081213,local,local,750,H,H,E,E,E-H.png,E-H.png,hH,hH,mask-4.png,mask-2.png,h,1,0.9387445000465959,none,-5,0,0.09821990004274994,0.09924660006072372,0.19992449996061623,0.2007633000612259,0.7494438999565318
RSVPLG03,si,20260311-081040,1.0.2,20260219-152011,801,Introduction,T1,1,Automatic,main,16,20260311-081218,global,local,750,H,S,A,A,H-A.png,A-S.png,hH,sS,mask-2.png,mask-4.png,s,0,0.6713388999924064,none,-5,0,0.10076509998179972,0.10032830003183335,0.198123799986206,0.1999837999464944,0.7491357000544667
RSVPLG03,si,20260311-081243,1.0.2,20260219-152011,801,Practice,T1,1,Automatic,main,1,20260311-081300,global,local,300,S,S,E,E,S-E.png,E-S.png,sS,sS,mask-2.png,mask-2.png,s,1,1.1204314000206068,none,-5,0,0.05005109997000545,0.04857669991906732,0.09855370002333075,0.0992034999653697,0.2998154000379145
RSVPLG03,si,20260311-081243,1.0.2,20260219-152011,801,Practice,T1,1,Automatic,main,2,20260311-081304,local,local,300,H,H,E,E,E-H.png,E-H.png,hH,hH,mask-2.png,mask-2.png,h,1,1.000867799972184,none,-5,0,0.049855199991725385,0.04951709997840226,0.10018239996861666,0.09872490004636347,0.3026165999472141
RSVPLG03,si,20260311-081243,1.0.2,20260219-152011,801,Practice,T1,1,Automatic,main,3,20260311-081309,global,global,300,H,S,E,A,H-E.png,S-A.png,hH,sS,mask-2.png,mask-3.png,s,0,2.1973399999551475,none,-5,0,0.04993019998073578,0.05018969997763634,0.10008250002283603,0.10016449994873255,0.30038809997495264
RSVPLG03,si,20260311-081243,1.0.2,20260219-152011,801,Practice,T1,1,Automatic,main,4,20260311-081315,global,local,750,S,S,A,E,S-A.png,E-S.png,sS,sS,mask-3.png,mask-1.png,s,1,1.061628399998881,none,-5,0,0.048592900042422116,0.0507795000448823,0.09869300003629178,0.10012800002004951,0.7503912000684068
RSVPLG03,si,20260311-081243,1.0.2,20260219-152011,801,Practice,T1,1,Automatic,main,5,20260311-081320,local,global,750,S,H,A,E,A-S.png,H-E.png,sS,hH,mask-2.png,mask-3.png,s,1,1.538781400071457,none,-5,0,0.05045759992208332,0.05151829996611923,0.10059749998617917,0.10091489995829761,0.7511316000018269
RSVPLG03,si,20260311-081243,1.0.2,20260219-152011,801,Practice,T1,1,Automatic,main,6,20260311-081325,local,local,300,S,H,E,A,E-S.png,A-H.png,sS,hH,mask-4.png,mask-2.png,s,1,1.2241570999613032,none,-5,0,0.05072379997000098,0.05078970000613481,0.1008416999829933,0.09940390009433031,0.3017867999151349
RSVPLG03,si,20260311-081243,1.0.2,20260219-152011,801,Practice,T1,1,Automatic,main,7,20260311-081330,global,local,750,H,S,E,A,H-E.png,A-S.png,hH,sS,mask-2.png,mask-2.png,h,1,0.7807503999210894,none,-5,0,0.051076099975034595,0.04987340001389384,0.10133350000251085,0.0993362000444904,0.7526543999556452
RSVPLG03,si,20260311-081243,1.0.2,20260219-152011,801,Practice,T1,1,Automatic,main,8,20260311-081335,global,local,300,S,H,A,E,S-A.png,E-H.png,sS,hH,mask-3.png,mask-3.png,s,1,0.9625175000401214,none,-5,0,0.051815600018016994,0.04907029995229095,0.10105759999714792,0.09975759999360889,0.3024759000400081
RSVPLG03,si,20260311-081243,1.0.2,20260219-152011,801,Practice,T1,1,Automatic,main,9,20260311-081340,global,global,300,S,H,E,E,S-E.png,H-E.png,sS,hH,mask-2.png,mask-3.png,s,1,1.8099410000722855,none,-5,0,0.049422599957324564,0.050194500014185905,0.09979050001129508,0.10055289999581873,0.30057189997751266
RSVPLG03,si,20260311-081243,1.0.2,20260219-152011,801,Practice,T1,1,Automatic,main,10,20260311-081345,local,global,300,S,S,E,E,E-S.png,S-E.png,sS,sS,mask-3.png,mask-2.png,s,1,1.6787871000124142,none,-5,0,0.04970779991708696,0.050422800006344914,0.09987139992881566,0.09974700002931058,0.30074489989783615
RSVPLG03,si,20260311-081243,1.0.2,20260219-152011,801,Practice,T1,1,Automatic,main,11,20260311-081350,local,global,750,H,H,A,A,A-H.png,H-A.png,hH,hH,mask-2.png,mask-1.png,h,1,0.7734781999606639,none,-5,0,0.05185759998857975,0.051034800009801984,0.10215359996072948,0.1003479000646621,0.7520378999179229
RSVPLG03,si,20260311-081243,1.0.2,20260219-152011,801,Practice,T1,1,Automatic,main,12,20260311-081355,local,local,750,S,H,E,A,E-S.png,A-H.png,sS,hH,mask-3.png,mask-1.png,s,1,0.8175951999146491,none,-5,0,0.05135389999486506,0.049711499945260584,0.09984649997204542,0.10191069997381419,0.7515108999796212
RSVPLG03,si,20260311-081243,1.0.2,20260219-152011,801,Practice,T1,1,Automatic,main,13,20260311-081400,local,global,300,S,S,A,E,A-S.png,S-E.png,sS,sS,mask-4.png,mask-1.png,s,1,0.8849551000166684,none,-5,0,0.05084229994099587,0.049746999982744455,0.09972850000485778,0.0998265000525862,0.3014557999558747
RSVPLG03,si,20260311-081243,1.0.2,20260219-152011,801,Practice,T1,1,Automatic,main,14,20260311-081405,global,global,750,H,S,E,E,H-E.png,S-E.png,hH,sS,mask-2.png,mask-1.png,s,0,2.129484200035222,none,-5,0,0.05105010000988841,0.05291999992914498,0.09921230003237724,0.1016241000033915,0.7502761000068858
RSVPLG03,si,20260311-081243,1.0.2,20260219-152011,801,Practice,T1,1,Automatic,main,15,20260311-081411,local,local,750,S,S,E,A,E-S.png,A-S.png,sS,sS,mask-1.png,mask-2.png,s,1,0.8338621999137104,none,-5,0,0.05099750007502735,0.051294100005179644,0.10142580000683665,0.10057890007738024,0.7523390999995172
RSVPLG03,si,20260311-081243,1.0.2,20260219-152011,801,Practice,T1,1,Automatic,main,16,20260311-081416,global,global,750,S,S,A,A,S-A.png,S-A.png,sS,sS,mask-4.png,mask-2.png,h,0,1.0904996000463143,none,-5,0,0.05202679999638349,0.04999790003057569,0.10136180010158569,0.10054640006273985,0.7531239000381902
RSVPLG03,si,20260311-081450,1.0.2,20260219-152011,801,Introduction,Both,1,Automatic,main,1,20260311-081507,global,global,750,S,H,A,A,S-A.png,H-A.png,sS,hH,mask-4.png,mask-3.png,s,1,1.3613138000946492,s,0,1.7600850999588147,0.08893630001693964,0.0992547000059858,0.18985890003386885,0.19951389997731894,0.735058700083755
RSVPLG03,si,20260311-081450,1.0.2,20260219-152011,801,Introduction,Both,1,Automatic,main,2,20260311-081515,global,global,750,S,S,E,E,S-E.png,S-E.png,sS,sS,mask-3.png,mask-1.png,s,1,1.4519319999963045,s,1,1.7103312000399455,0.09810840000864118,0.0989304999820888,0.19966390007175505,0.19697779999114573,0.7467635000357404
RSVPLG03,si,20260311-081450,1.0.2,20260219-152011,801,Introduction,Both,1,Automatic,main,3,20260311-081522,local,global,750,S,H,A,E,A-S.png,H-E.png,sS,hH,mask-1.png,mask-3.png,s,1,2.586403400055133,h,1,0.8467422999674454,0.10039699997287244,0.09879740001633763,0.2018510999623686,0.19677179993595928,0.7486997999949381
RSVPLG03,si,20260311-081450,1.0.2,20260219-152011,801,Introduction,Both,1,Automatic,main,4,20260311-081530,global,local,750,S,S,E,E,S-E.png,E-S.png,sS,sS,mask-3.png,mask-2.png,s,1,0.6500078999670222,s,1,0.7247375999577343,0.09909039991907775,0.0998299999628216,0.19787009991705418,0.19810839998535812,0.74619169998914
RSVPLG03,si,20260311-081450,1.0.2,20260219-152011,801,Introduction,Both,1,Automatic,main,5,20260311-081536,global,local,750,H,S,A,E,H-A.png,E-S.png,hH,sS,mask-4.png,mask-1.png,h,1,1.206286699976772,s,1,1.0894879000261426,0.09929669997654855,0.09834739996585995,0.19885489996522665,0.19862119993194938,0.7468552000354975
RSVPLG03,si,20260311-081450,1.0.2,20260219-152011,801,Introduction,Both,1,Automatic,main,6,20260311-081542,local,global,750,H,S,E,A,E-H.png,S-A.png,hH,sS,mask-3.png,mask-4.png,h,1,1.091458800015971,s,1,0.5600135000422597,0.09956100000999868,0.09862589999102056,0.1997089000651613,0.19862749997992069,0.7463082000613213
RSVPLG03,si,20260311-081450,1.0.2,20260219-152011,801,Introduction,Both,1,Automatic,main,7,20260311-081548,local,global,750,H,H,A,E,A-H.png,H-E.png,hH,hH,mask-3.png,mask-1.png,h,1,1.0660559000680223,s,0,0.678545199916698,0.09909459995105863,0.10067080007866025,0.1982224000385031,0.19874790008179843,0.7459431999595836
RSVPLG03,si,20260311-081450,1.0.2,20260219-152011,801,Introduction,Both,1,Automatic,main,8,20260311-081554,global,global,750,H,S,A,E,H-A.png,S-E.png,hH,sS,mask-3.png,mask-4.png,h,1,1.3100595000432804,s,1,1.5031111999414861,0.10113699990324676,0.09970779996365309,0.19964259990956634,0.1979042999446392,0.7484183999476954
RSVPLG03,si,20260311-081450,1.0.2,20260219-152011,801,Introduction,Both,1,Automatic,main,9,20260311-081602,local,local,750,S,S,E,A,E-S.png,A-S.png,sS,sS,mask-2.png,mask-2.png,s,1,1.244812999968417,h,0,2.609752899967134,0.09929819998797029,0.09789099998306483,0.19833130005281419,0.20004849997349083,0.7471959000686184
RSVPLG03,si,20260311-081450,1.0.2,20260219-152011,801,Introduction,Both,1,Automatic,main,10,20260311-081610,local,global,750,H,S,E,E,E-H.png,S-E.png,hH,sS,mask-4.png,mask-4.png,h,1,1.6616531999316067,s,1,1.4499028999125585,0.09870259999297559,0.09950229991227388,0.1988619000185281,0.19980709999799728,0.7447586000198498
RSVPLG03,si,20260311-081450,1.0.2,20260219-152011,801,Introduction,Both,1,Automatic,main,11,20260311-081617,local,local,750,H,H,A,E,A-H.png,E-H.png,hH,hH,mask-1.png,mask-2.png,h,1,1.4158460000762716,s,0,0.9667010999983177,0.1006869999691844,0.09790590009652078,0.20253779995255172,0.19752110005356371,0.7477998998947442
RSVPLG03,si,20260311-081450,1.0.2,20260219-152011,801,Introduction,Both,1,Automatic,main,12,20260311-081624,global,local,750,S,S,E,A,S-E.png,A-S.png,sS,sS,mask-2.png,mask-1.png,s,1,1.2514710000250489,s,1,1.0607118000043556,0.09789309999905527,0.09841550001874566,0.19885259994771332,0.1980990000301972,0.746650299988687
RSVPLG03,si,20260311-081450,1.0.2,20260219-152011,801,Introduction,Both,1,Automatic,main,13,20260311-081631,local,local,750,H,S,E,E,E-H.png,E-S.png,hH,sS,mask-4.png,mask-2.png,h,1,2.2810435999417678,s,1,1.042313100071624,0.09933720005210489,0.09937680000439286,0.20033699995838106,0.20012819999828935,0.7471548999892548
RSVPLG03,si,20260311-081450,1.0.2,20260219-152011,801,Introduction,Both,1,Automatic,main,14,20260311-081639,local,local,750,S,H,A,A,A-S.png,A-H.png,sS,hH,mask-1.png,mask-2.png,none,-6,0,none,-6,0,0.09817120002117008,0.09947499993722886,0.19838860002346337,0.2013408999191597,0.7458219000836834
RSVPLG03,si,20260311-081657,1.0.2,20260219-152011,801,Practice,Both,1,Automatic,main,1,20260311-081714,global,local,300,S,S,A,E,S-A.png,E-S.png,sS,sS,mask-2.png,mask-2.png,s,1,1.1336531999986619,s,1,1.3023018999956548,0.04803329997230321,0.05170780001208186,0.09702839993406087,0.10117919999174774,0.2961480999365449
RSVPLG03,si,20260311-081657,1.0.2,20260219-152011,801,Practice,Both,1,Automatic,main,2,20260311-081720,global,global,750,H,H,A,E,H-A.png,H-E.png,hH,hH,mask-3.png,mask-2.png,h,1,4.296956300036982,s,0,1.1305129999527708,0.05109890003222972,0.05098539998289198,0.10126200004015118,0.10148519999347627,0.7486685001058504
RSVPLG03,si,20260311-081657,1.0.2,20260219-152011,801,Practice,Both,1,Automatic,main,3,20260311-081730,global,global,750,S,S,E,E,S-E.png,S-E.png,sS,sS,mask-3.png,mask-1.png,s,1,0.9790422000223771,s,1,1.1790212000487372,0.048769099987111986,0.05161610001232475,0.09967859997414052,0.09930810006335378,0.7490187999792397
RSVPLG03,si,20260311-081657,1.0.2,20260219-152011,801,Practice,Both,1,Automatic,main,4,20260311-081736,local,global,300,H,H,A,A,A-H.png,H-A.png,hH,hH,mask-1.png,mask-3.png,h,1,2.6656284000491723,s,0,0.7938880999572575,0.04926070000510663,0.04848220001440495,0.09936840005684644,0.09756470005959272,0.30070869997143745
RSVPLG03,si,20260311-081657,1.0.2,20260219-152011,801,Practice,Both,1,Automatic,main,5,20260311-081743,local,local,300,H,S,A,E,A-H.png,E-S.png,hH,sS,mask-3.png,mask-3.png,h,1,1.0864018000429496,s,1,0.6083304999629036,0.050690899952314794,0.052382699912413955,0.09883889998309314,0.10218589997384697,0.29877310001756996
RSVPLG03,si,20260311-081657,1.0.2,20260219-152011,801,Practice,Both,1,Automatic,main,6,20260311-081749,global,global,300,S,S,A,E,S-A.png,S-E.png,sS,sS,mask-3.png,mask-2.png,s,1,0.9502779999747872,s,1,1.0717559999320656,0.05072549998294562,0.049840399995446205,0.10076800000388175,0.09886799997184426,0.3010114000644535
RSVPLG03,si,20260311-081657,1.0.2,20260219-152011,801,Practice,Both,1,Automatic,main,7,20260311-081754,global,local,750,S,H,E,E,S-E.png,E-H.png,sS,hH,mask-4.png,mask-1.png,s,1,0.9643658999120817,h,1,1.0906052000354975,0.05069489998277277,0.049514199956320226,0.1005865999031812,0.10039119992870837,0.750289999996312
RSVPLG03,si,20260311-081657,1.0.2,20260219-152011,801,Practice,Both,1,Automatic,main,8,20260311-081801,local,global,750,S,H,E,A,E-S.png,H-A.png,sS,hH,mask-4.png,mask-2.png,s,1,0.9219302000710741,h,1,0.8653504999820143,0.049938400043174624,0.04843079997226596,0.10118320002220571,0.09929030004423112,0.7511786000104621
RSVPLG03,si,20260311-081657,1.0.2,20260219-152011,801,Practice,Both,1,Automatic,main,9,20260311-081807,local,local,300,S,H,A,E,A-S.png,E-H.png,sS,hH,mask-2.png,mask-3.png,h,0,1.6911240000044927,h,1,0.823749199975282,0.05002520000562072,0.04930930002592504,0.10072900005616248,0.09950480004772544,0.30200050002895296
RSVPLG03,si,20260311-081657,1.0.2,20260219-152011,801,Practice,Both,1,Automatic,main,10,20260311-081813,local,global,750,H,H,E,E,E-H.png,H-E.png,hH,hH,mask-4.png,mask-2.png,h,1,1.0513941999524832,s,0,0.777609399985522,0.04860689991619438,0.050556100090034306,0.098681699950248,0.09981770010199398,0.7473404998891056
RSVPLG03,si,20260311-081657,1.0.2,20260219-152011,801,Practice,Both,1,Automatic,main,11,20260311-081819,global,global,300,S,H,A,E,S-A.png,H-E.png,sS,hH,mask-3.png,mask-4.png,s,1,1.4343395000323653,h,1,0.6483503000345081,0.050923499977216125,0.050139699946157634,0.10038179997354746,0.10066520003601909,0.2993544000200927
RSVPLG03,si,20260311-081657,1.0.2,20260219-152011,801,Practice,Both,1,Automatic,main,12,20260311-081825,global,local,750,H,H,E,A,H-E.png,A-H.png,hH,hH,mask-1.png,mask-3.png,h,1,0.7551061999984086,h,1,1.0193487000651658,0.05095570010598749,0.048453800030983984,0.10151130007579923,0.0981869000243023,0.750522300018929
RSVPLG03,si,20260311-081657,1.0.2,20260219-152011,801,Practice,Both,1,Automatic,main,13,20260311-081831,global,local,300,S,H,E,A,S-E.png,A-H.png,sS,hH,mask-4.png,mask-2.png,s,1,1.4311909000389278,h,1,1.0094690000405535,0.05270779994316399,0.04876520007383078,0.10050219995900989,0.0980946000199765,0.30235749995335937
RSVPLG03,si,20260311-081657,1.0.2,20260219-152011,801,Practice,Both,1,Automatic,main,14,20260311-081837,local,local,750,H,H,E,A,E-H.png,A-H.png,hH,hH,mask-3.png,mask-1.png,h,1,0.8026221001055092,h,1,1.2551034999778494,0.049308700021356344,0.04906939994543791,0.09971929993480444,0.09823110001161695,0.7497682999819517
RSVPLG03,si,20260311-081657,1.0.2,20260219-152011,801,Practice,Both,1,Automatic,main,15,20260311-081843,local,local,750,S,S,E,A,E-S.png,A-S.png,sS,sS,mask-3.png,mask-3.png,s,1,1.130429600016214,h,0,1.1207955999998376,0.04870199994184077,0.050493599963374436,0.1004143999889493,0.10163829999510199,0.7490464999573305
RSVPLG03,si,20260311-081657,1.0.2,20260219-152011,801,Practice,Both,1,Automatic,main,16,20260311-081850,local,global,300,S,S,A,A,A-S.png,S-A.png,sS,sS,mask-1.png,mask-1.png,s,1,1.5407368999440223,s,1,0.9610163000179455,0.049872900010086596,0.04956280009355396,0.09894379996694624,0.10102529998403043,0.2984389999182895
RSVPLG03,si,20260311-081931,1.0.2,20260219-152011,801,Experiment,Both,1,Automatic,warmup,1,20260311-081951,global,global,750,H,H,E,A,H-E.png,H-A.png,hH,hH,mask-3.png,mask-1.png,h,1,1.0344901999924332,h,1,0.8330518000293523,0.04790599993430078,0.050505299936048687,0.09792239998932928,0.10021369997411966,0.7481649999972433
RSVPLG03,si,20260311-081931,1.0.2,20260219-152011,801,Experiment,Both,1,Automatic,warmup,2,20260311-081957,local,local,300,S,S,E,A,E-S.png,A-S.png,sS,sS,mask-1.png,mask-3.png,s,1,0.8431466999463737,h,0,1.1052383000496775,0.04823820001911372,0.05022939993068576,0.09879800002090633,0.10063839994836599,0.29729300003964454
RSVPLG03,si,20260311-081931,1.0.2,20260219-152011,801,Experiment,Both,1,Automatic,warmup,3,20260311-082003,local,global,750,H,S,E,A,E-H.png,S-A.png,hH,sS,mask-3.png,mask-2.png,h,1,3.400601999950595,s,1,0.6232022000476718,0.05056460003834218,0.04904549999628216,0.10048300004564226,0.09963299997616559,0.7521564000053331
RSVPLG03,si,20260311-081931,1.0.2,20260219-152011,801,Experiment,Both,1,Automatic,warmup,4,20260311-082011,local,local,750,S,H,E,A,E-S.png,A-H.png,sS,hH,mask-4.png,mask-4.png,s,1,3.5233079999452457,h,1,0.5608372999122366,0.04954429995268583,0.05051199998706579,0.09967869997490197,0.10061859991401434,0.750566600007005
RSVPLG03,si,20260311-081931,1.0.2,20260219-152011,801,Experiment,Both,1,Automatic,main,5,20260311-082019,global,local,750,S,H,E,A,S-E.png,A-H.png,sS,hH,mask-3.png,mask-1.png,s,1,1.6062448999146,s,0,0.7707110000774264,0.04895720002241433,0.049541400047019124,0.09879999991972,0.09795810002833605,0.7507875999435782
RSVPLG03,si,20260311-081931,1.0.2,20260219-152011,801,Experiment,Both,1,Automatic,main,6,20260311-082026,local,local,300,H,H,A,E,A-H.png,E-H.png,hH,hH,mask-4.png,mask-4.png,h,1,1.3667119999881834,s,0,0.5055245000403374,0.049487699987366796,0.04985039995517582,0.10083510004915297,0.09941510006319731,0.2993201999925077
RSVPLG03,si,20260311-081931,1.0.2,20260219-152011,801,Experiment,Both,1,Automatic,main,7,20260311-082031,global,global,750,H,S,A,A,H-A.png,S-A.png,hH,sS,mask-4.png,mask-1.png,s,0,0.787473600008525,s,1,0.7938992999261245,0.04932120000012219,0.04745419998653233,0.09862920001614839,0.09846150001976639,0.7514077000087127
RSVPLG03,si,20260311-081931,1.0.2,20260219-152011,801,Experiment,Both,1,Automatic,main,8,20260311-082037,local,global,750,S,S,A,E,A-S.png,S-E.png,sS,sS,mask-2.png,mask-2.png,s,1,0.9194447000045329,s,1,1.4970162999816239,0.050510199973359704,0.04935330001171678,0.09981229994446039,0.1011614000890404,0.7531707999296486
RSVPLG03,si,20260311-081931,1.0.2,20260219-152011,801,Experiment,Both,1,Automatic,main,9,20260311-082044,local,global,300,S,S,E,A,E-S.png,S-A.png,sS,sS,mask-1.png,mask-1.png,s,1,0.8825899000512436,s,1,1.050440700026229,0.050778299919329584,0.049341100035235286,0.10103389993309975,0.1004097000695765,0.30050399992614985
RSVPLG03,si,20260311-081931,1.0.2,20260219-152011,801,Experiment,Both,1,Automatic,main,10,20260311-082049,global,global,750,H,H,E,A,H-E.png,H-A.png,hH,hH,mask-1.png,mask-1.png,h,1,1.086068799952045,h,1,1.2015951999928802,0.050613900064490736,0.04968989989720285,0.10047550010494888,0.10046230000443757,0.7520465000998229
RSVPLG03,si,20260311-081931,1.0.2,20260219-152011,801,Experiment,Both,1,Automatic,main,11,20260311-082056,local,local,750,H,S,A,A,A-H.png,A-S.png,hH,sS,mask-2.png,mask-1.png,h,1,1.0757328000618145,s,1,0.4741314999992028,0.05065180000383407,0.05061280005611479,0.10082429996691644,0.10083470004610717,0.7515803999267519
RSVPLG03,si,20260311-081931,1.0.2,20260219-152011,801,Experiment,Both,1,Automatic,main,12,20260311-082102,local,local,300,H,S,A,E,A-H.png,E-S.png,hH,sS,mask-1.png,mask-4.png,h,1,0.9825772999320179,s,1,0.9655890000285581,0.049443399999290705,0.04871670005377382,0.09899450000375509,0.10128110006917268,0.2995734999421984
RSVPLG03,si,20260311-081931,1.0.2,20260219-152011,801,Experiment,Both,1,Automatic,main,13,20260311-082108,global,global,300,S,H,E,A,S-E.png,H-A.png,sS,hH,mask-1.png,mask-2.png,s,1,0.924911699956283,s,0,1.0412395000457764,0.05059660004917532,0.048835900030098855,0.10198170004878193,0.09961849998217076,0.30113010003697127
RSVPLG03,si,20260311-081931,1.0.2,20260219-152011,801,Experiment,Both,1,Automatic,main,14,20260311-082113,local,global,300,S,S,E,A,E-S.png,S-A.png,sS,sS,mask-1.png,mask-2.png,s,1,0.7200349000049755,s,1,0.9049714000429958,0.05008549999911338,0.04905570007394999,0.10113770002499223,0.10082369996234775,0.3014333000173792
RSVPLG03,si,20260311-081931,1.0.2,20260219-152011,801,Experiment,Both,1,Automatic,main,15,20260311-082119,global,local,750,S,S,A,E,S-A.png,E-S.png,sS,sS,mask-1.png,mask-2.png,s,1,0.772731100092642,s,1,1.3003306000027806,0.05081329995300621,0.05058630008716136,0.10291259991936386,0.09948170010466129,0.7517749998951331
RSVPLG03,si,20260311-081931,1.0.2,20260219-152011,801,Experiment,Both,1,Automatic,main,16,20260311-082125,local,local,300,H,S,E,E,E-H.png,E-S.png,hH,sS,mask-1.png,mask-1.png,h,1,1.1652286000316963,s,1,0.48271030001342297,0.05054080008994788,0.050001799943856895,0.10015980002935976,0.09970899997279048,0.2996513000689447
RSVPLG03,si,20260311-081931,1.0.2,20260219-152011,801,Experiment,Both,1,Automatic,main,17,20260311-082130,global,global,750,H,S,E,E,H-E.png,S-E.png,hH,sS,mask-3.png,mask-4.png,h,1,0.8796531000407413,s,1,0.7054106000578031,0.051210999954491854,0.04895800002850592,0.10038519999943674,0.09906779997982085,0.753652699990198
RSVPLG03,si,20260311-081931,1.0.2,20260219-152011,801,Experiment,Both,1,Automatic,main,18,20260311-082136,local,global,750,H,H,A,A,A-H.png,H-A.png,hH,hH,mask-3.png,mask-1.png,h,1,0.7498974000336602,h,1,0.6947644000174478,0.05129169998690486,0.05021299992222339,0.10158499993849546,0.10024209995754063,0.7514702000189573
RSVPLG03,si,20260311-081931,1.0.2,20260219-152011,801,Experiment,Both,1,Automatic,main,19,20260311-082142,global,local,750,S,H,E,A,S-E.png,A-H.png,sS,hH,mask-3.png,mask-2.png,s,1,0.6270513000199571,h,1,0.5918803999666125,0.05155049997847527,0.049698199960403144,0.1023325000423938,0.10004419996403158,0.7518066000193357
RSVPLG03,si,20260311-081931,1.0.2,20260219-152011,801,Experiment,Both,1,Automatic,main,20,20260311-082147,local,global,300,H,S,E,E,E-H.png,S-E.png,hH,sS,mask-2.png,mask-2.png,h,1,1.899551400099881,s,1,0.6917223999043927,0.04939670010935515,0.05006579996552318,0.09971470001619309,0.09985790005885065,0.29906620003748685
RSVPLG03,si,20260311-081931,1.0.2,20260219-152011,801,Experiment,Both,1,Automatic,main,21,20260311-082153,global,local,750,S,S,E,A,S-E.png,A-S.png,sS,sS,mask-3.png,mask-2.png,s,1,1.031527700019069,s,1,1.385008699959144,0.05025640001986176,0.049231600016355515,0.10175559995695949,0.0987906000809744,0.752118399948813
RSVPLG03,si,20260311-081931,1.0.2,20260219-152011,801,Experiment,Both,1,Automatic,main,22,20260311-082200,local,local,750,H,H,E,E,E-H.png,E-H.png,hH,hH,mask-2.png,mask-1.png,h,1,1.214508300065063,s,0,0.9465830000117421,0.0489583999151364,0.05077920004259795,0.09935459995176643,0.10029620002023876,0.7505013999762014
RSVPLG03,si,20260311-081931,1.0.2,20260219-152011,801,Experiment,Both,1,Automatic,main,23,20260311-082206,global,global,300,S,S,E,A,S-E.png,S-A.png,sS,sS,mask-3.png,mask-2.png,s,1,0.8248458000598475,s,1,0.6388382000150159,0.04818460007663816,0.0495917999651283,0.09835430001839995,0.09934429998975247,0.2995649001095444
RSVPLG03,si,20260311-081931,1.0.2,20260219-152011,801,Experiment,Both,1,Automatic,main,24,20260311-082212,global,local,300,H,H,A,E,H-A.png,E-H.png,hH,hH,mask-1.png,mask-3.png,h,1,1.893755599972792,h,1,0.8436986999586225,0.04959249997045845,0.05135740002151579,0.09859369997866452,0.10024569998495281,0.2987997999880463
RSVPLG03,si,20260311-081931,1.0.2,20260219-152011,801,Experiment,Both,1,Automatic,main,25,20260311-082218,global,global,750,S,S,A,E,S-A.png,S-E.png,sS,sS,mask-1.png,mask-3.png,s,1,1.8267200000118464,s,1,0.87315579992719,0.05007099988870323,0.0502615999430418,0.09868179995100945,0.09973679995164275,0.7509095999412239
RSVPLG03,si,20260311-081931,1.0.2,20260219-152011,801,Experiment,Both,1,Automatic,main,26,20260311-082238,global,global,750,S,S,E,E,S-E.png,S-E.png,sS,sS,mask-4.png,mask-3.png,s,1,0.3488818999612704,s,1,0.8087570000207052,0.05076160002499819,0.05028839991427958,0.10077240003738552,0.10042889998294413,0.7526084000710398
RSVPLG03,si,20260311-081931,1.0.2,20260219-152011,801,Experiment,Both,1,Automatic,main,27,20260311-082243,local,global,300,H,S,E,A,E-H.png,S-A.png,hH,sS,mask-4.png,mask-3.png,s,0,2.899179399944842,h,0,0.5578428000444546,0.05034060007892549,0.048761799931526184,0.09974600002169609,0.09853359998669475,0.30188460007775575
RSVPLG03,si,20260311-081931,1.0.2,20260219-152011,801,Experiment,Both,1,Automatic,main,28,20260311-082250,global,global,750,H,H,A,E,H-A.png,H-E.png,hH,hH,mask-1.png,mask-1.png,h,1,0.5645483999978751,h,1,0.8981299999868497,0.04969720006920397,0.05104139994364232,0.09876750002149493,0.10000269999727607,0.7511143001029268
RSVPLG03,si,20260311-081931,1.0.2,20260219-152011,801,Experiment,Both,1,Automatic,main,29,20260311-082256,global,local,300,S,S,E,A,S-E.png,A-S.png,sS,sS,mask-2.png,mask-4.png,s,1,1.5372558999806643,h,0,1.1598209999501705,0.04780699999537319,0.05022760003339499,0.09784249996300787,0.09982940007466823,0.29983619996346533
RSVPLG03,si,20260311-081931,1.0.2,20260219-152011,801,Experiment,Both,1,Automatic,main,30,20260311-082302,local,local,300,S,S,E,E,E-S.png,E-S.png,sS,sS,mask-2.png,mask-2.png,s,1,0.5335205000592396,s,1,0.8759672000305727,0.054675100021995604,0.04990909993648529,0.10153600003104657,0.10038900002837181,0.3007450000150129
RSVPLG03,si,20260311-081931,1.0.2,20260219-152011,801,Experiment,Both,1,Automatic,main,31,20260311-082307,global,local,750,S,H,E,E,S-E.png,E-H.png,sS,hH,mask-4.png,mask-3.png,s,1,0.5680389000335708,s,0,0.7382224999601021,0.048948800074867904,0.05085170001257211,0.09851849998813123,0.09901720006018877,0.7500888999784365
RSVPLG03,si,20260311-081931,1.0.2,20260219-152011,801,Experiment,Both,1,Automatic,main,32,20260311-082313,global,local,300,H,H,E,A,H-E.png,A-H.png,hH,hH,mask-2.png,mask-2.png,h,1,0.7679658000124618,h,1,0.9295244000386447,0.050203200080432,0.05003559996839613,0.10030180006287992,0.09978609997779131,0.30074550001882017
RSVPLG03,si,20260311-081931,1.0.2,20260219-152011,801,Experiment,Both,1,Automatic,main,33,20260311-082318,local,global,300,H,S,E,E,E-H.png,S-E.png,hH,sS,mask-1.png,mask-4.png,h,1,0.9555788999423385,s,1,0.5301538000348955,0.04915670002810657,0.05004580004606396,0.09945550002157688,0.10121160000562668,0.29846089996863157
RSVPLG03,si,20260311-081931,1.0.2,20260219-152011,801,Experiment,Both,1,Automatic,main,34,20260311-082324,global,local,300,H,S,E,A,H-E.png,A-S.png,hH,sS,mask-1.png,mask-4.png,s,0,0.9988782999571413,h,0,0.37815150001551956,0.049546799971722066,0.05009139992762357,0.09931349998805672,0.09953210002277046,0.29859969997778535
RSVPLG03,si,20260311-081931,1.0.2,20260219-152011,801,Experiment,Both,1,Automatic,main,35,20260311-082329,global,local,750,S,H,E,A,S-E.png,A-H.png,sS,hH,mask-1.png,mask-3.png,h,0,1.5996421999298036,h,1,0.7288246999960393,0.051144500030204654,0.05014069995377213,0.09950890007894486,0.10143639997113496,0.7502662000479177
RSVPLG03,si,20260311-081931,1.0.2,20260219-152011,801,Experiment,Both,1,Automatic,main,36,20260311-082335,local,global,750,S,H,E,E,E-S.png,H-E.png,sS,hH,mask-3.png,mask-4.png,s,1,0.8909161000046879,h,1,0.7724379000719637,0.05215440003667027,0.050723299966193736,0.10082880000118166,0.10093820001929998,0.7513291999930516
RSVPLG03,si,20260311-081931,1.0.2,20260219-152011,801,Experiment,Both,1,Automatic,main,37,20260311-082341,global,global,300,H,H,A,E,H-A.png,H-E.png,hH,hH,mask-1.png,mask-2.png,h,1,0.6705352000426501,h,1,0.7853792000096291,0.049859900027513504,0.04886370000895113,0.10079629998654127,0.10069920006208122,0.3005695999599993
RSVPLG03,si,20260311-081931,1.0.2,20260219-152011,801,Experiment,Both,1,Automatic,main,38,20260311-082346,local,global,300,S,H,E,A,E-S.png,H-A.png,sS,hH,mask-2.png,mask-2.png,s,1,0.6473781999666244,h,1,1.19452859996818,0.052009299979545176,0.051677499897778034,0.10087520000524819,0.10029219998978078,0.3018774000229314
RSVPLG03,si,20260311-081931,1.0.2,20260219-152011,801,Experiment,Both,1,Automatic,main,39,20260311-082352,global,global,300,S,S,A,E,S-A.png,S-E.png,sS,sS,mask-3.png,mask-3.png,h,0,4.338255099952221,h,0,0.8726397999562323,0.050994599936529994,0.04935489990748465,0.102255699923262,0.10039999999571592,0.30110849998891354
RSVPLG03,si,20260311-081931,1.0.2,20260219-152011,801,Experiment,Both,1,Automatic,main,40,20260311-082401,local,global,300,H,H,A,E,A-H.png,H-E.png,hH,hH,mask-1.png,mask-4.png,h,1,0.7556622000411153,s,0,1.0093745000194758,0.04909569991286844,0.05028680001851171,0.09890439989976585,0.10090129997115582,0.29924349999055266
RSVPLG03,si,20260311-081931,1.0.2,20260219-152011,801,Experiment,Both,1,Automatic,main,41,20260311-082406,global,local,300,S,H,E,E,S-E.png,E-H.png,sS,hH,mask-1.png,mask-1.png,h,0,1.3480918999994174,h,1,0.7300674000289291,0.04997129994444549,0.04981279990170151,0.10081880004145205,0.10032550001051277,0.3005329000297934
RSVPLG03,si,20260311-081931,1.0.2,20260219-152011,801,Experiment,Both,1,Automatic,main,42,20260311-082412,local,local,750,S,S,E,E,E-S.png,E-S.png,sS,sS,mask-1.png,mask-4.png,s,1,0.5337296999059618,s,1,0.998593800002709,0.048073000041767955,0.05097930005285889,0.09832870005629957,0.10175849997904152,0.7492553000338376
RSVPLG03,si,20260311-081931,1.0.2,20260219-152011,801,Experiment,Both,1,Automatic,main,43,20260311-082418,local,local,750,H,S,A,E,A-H.png,E-S.png,hH,sS,mask-1.png,mask-1.png,h,1,0.712941899895668,s,1,0.7217256999574602,0.05101159994956106,0.05123999994248152,0.10178330005146563,0.10106310003902763,0.751498099998571
RSVPLG03,si,20260311-081931,1.0.2,20260219-152011,801,Experiment,Both,1,Automatic,main,44,20260311-082424,global,global,300,H,H,A,E,H-A.png,H-E.png,hH,hH,mask-3.png,mask-2.png,h,1,3.5946154000703245,h,1,0.7206031000241637,0.04802749992813915,0.05141380010172725,0.09838119999039918,0.1008933000266552,0.2979474999010563
RSVPLG03,si,20260311-081931,1.0.2,20260219-152011,801,Experiment,Both,1,Automatic,main,45,20260311-082432,global,global,750,H,S,E,E,H-E.png,S-E.png,hH,sS,mask-2.png,mask-2.png,h,1,0.723222800064832,h,0,0.7628635000437498,0.04936230008024722,0.05044869997072965,0.10035800002515316,0.09883329994045198,0.7516894000582397
RSVPLG03,si,20260311-081931,1.0.2,20260219-152011,801,Experiment,Both,1,Automatic,main,46,20260311-082437,global,global,750,H,H,E,E,H-E.png,H-E.png,hH,hH,mask-4.png,mask-2.png,s,0,5.596602199948393,s,0,0.4425168000161648,0.04898899991530925,0.05202309996820986,0.09919119998812675,0.10161300003528595,0.7505128999473527
RSVPLG03,si,20260311-081931,1.0.2,20260219-152011,801,Experiment,Both,1,Automatic,main,47,20260311-082447,local,global,750,S,S,A,A,A-S.png,S-A.png,sS,sS,mask-2.png,mask-1.png,s,1,0.7711751000024378,s,1,0.657297599944286,0.04898610000964254,0.05050679994747043,0.10018139996100217,0.10176949994638562,0.7508724000072107
RSVPLG03,si,20260311-081931,1.0.2,20260219-152011,801,Experiment,Both,1,Automatic,main,48,20260311-082453,global,local,750,H,H,E,E,H-E.png,E-H.png,hH,hH,mask-2.png,mask-4.png,h,1,2.4250199999660254,s,0,0.3961960000451654,0.049028700101189315,0.050298199988901615,0.10089180001523346,0.10015159996692091,0.7503475000848994
RSVPLG03,si,20260311-081931,1.0.2,20260219-152011,801,Experiment,Both,1,Automatic,main,49,20260311-082500,local,local,300,H,S,A,E,A-H.png,E-S.png,hH,sS,mask-2.png,mask-2.png,h,1,0.791747200069949,s,1,1.9463573000393808,0.04978789994493127,0.05094480002298951,0.10112909995950758,0.09966429998166859,0.3004880999214947
RSVPLG03,si,20260311-081931,1.0.2,20260219-152011,801,Experiment,Both,1,Automatic,main,50,20260311-082507,local,local,300,H,H,A,E,A-H.png,E-H.png,hH,hH,mask-3.png,mask-4.png,h,1,1.1206901000114158,s,0,0.5285295000066981,0.048435900011099875,0.04816450004000217,0.09942340000998229,0.09804650000296533,0.3005197999300435
RSVPLG03,si,20260311-081931,1.0.2,20260219-152011,801,Experiment,Both,1,Automatic,main,51,20260311-082523,global,local,750,H,S,E,A,H-E.png,A-S.png,hH,sS,mask-1.png,mask-2.png,h,1,1.1230602000141516,s,1,0.5451847000513226,0.05063720000907779,0.05201999994460493,0.10217500000726432,0.10117269994225353,0.7501915000611916
RSVPLG03,si,20260311-081931,1.0.2,20260219-152011,801,Experiment,Both,1,Automatic,main,52,20260311-082529,local,global,750,S,H,A,A,A-S.png,H-A.png,sS,hH,mask-4.png,mask-2.png,s,1,0.43549840000923723,s,0,0.5402789000654593,0.04994950001128018,0.05022500001359731,0.09996640007011592,0.10110530001111329,0.75096079998184
RSVPLG03,si,20260311-081931,1.0.2,20260219-152011,801,Experiment,Both,1,Automatic,main,53,20260311-082534,local,local,300,H,S,E,E,E-H.png,E-S.png,hH,sS,mask-2.png,mask-2.png,h,1,0.7981357999378815,s,1,0.8980031000683084,0.04984699992928654,0.04921580001246184,0.10022019990719855,0.09841390000656247,0.3012575999600813
RSVPLG03,si,20260311-081931,1.0.2,20260219-152011,801,Experiment,Both,1,Automatic,main,54,20260311-082539,global,global,300,H,H,A,E,H-A.png,H-E.png,hH,hH,mask-2.png,mask-4.png,s,0,1.450609099934809,h,1,0.7083802000852302,0.04996299999766052,0.04950480000115931,0.10047110007144511,0.09915680007543415,0.302544999984093
RSVPLG03,si,20260311-081931,1.0.2,20260219-152011,801,Experiment,Both,1,Automatic,main,55,20260311-082545,global,global,300,H,H,E,E,H-E.png,H-E.png,hH,hH,mask-4.png,mask-3.png,h,1,1.2234354999382049,h,1,1.2405732999322936,0.049821500084362924,0.04886930005159229,0.10013090004213154,0.0988878000061959,0.30205679999198765
RSVPLG03,si,20260311-081931,1.0.2,20260219-152011,801,Experiment,Both,1,Automatic,main,56,20260311-082551,local,global,300,S,S,E,E,E-S.png,S-E.png,sS,sS,mask-3.png,mask-4.png,s,1,0.9254491000901908,s,1,0.9230045999865979,0.0510395000455901,0.05036710004787892,0.10091579996515065,0.09948630002327263,0.3023635999998078
RSVPLG03,si,20260311-081931,1.0.2,20260219-152011,801,Experiment,Both,1,Automatic,main,57,20260311-082557,global,local,750,H,S,E,E,H-E.png,E-S.png,hH,sS,mask-4.png,mask-4.png,s,0,3.8010899000801146,s,1,1.27335699996911,0.050887799938209355,0.050336700049228966,0.09958599996753037,0.10074660007376224,0.7510183999547735
RSVPLG03,si,20260311-081931,1.0.2,20260219-152011,801,Experiment,Both,1,Automatic,main,58,20260311-082606,local,local,300,S,S,E,A,E-S.png,A-S.png,sS,sS,mask-1.png,mask-1.png,s,1,1.3225957999238744,s,1,0.3816599000710994,0.0504949000896886,0.05062960006762296,0.09961910010315478,0.09812880004756153,0.3004415000323206
RSVPLG03,si,20260311-081931,1.0.2,20260219-152011,801,Experiment,Both,1,Automatic,main,59,20260311-082612,global,local,750,S,S,A,E,S-A.png,E-S.png,sS,sS,mask-2.png,mask-2.png,s,1,0.5389902000315487,s,1,0.6101633000653237,0.0492956000380218,0.048456600052304566,0.09805510006844997,0.09885970002505928,0.7512956999707967
RSVPLG03,si,20260311-081931,1.0.2,20260219-152011,801,Experiment,Both,1,Automatic,main,60,20260311-082617,global,global,750,H,S,E,A,H-E.png,S-A.png,hH,sS,mask-2.png,mask-4.png,h,1,1.4018473000032827,s,1,0.7209836000110954,0.049888000008650124,0.04975100001320243,0.10076649999246001,0.10094150004442781,0.751143499976024
RSVPLG03,si,20260311-081931,1.0.2,20260219-152011,801,Experiment,Both,1,Automatic,main,61,20260311-082623,local,global,300,S,S,E,E,E-S.png,S-E.png,sS,sS,mask-4.png,mask-2.png,s,1,0.6355492000002414,s,1,0.7453843000112101,0.049006400047801435,0.049999000038951635,0.0988888000138104,0.09971520002000034,0.29990290000569075
RSVPLG03,si,20260311-081931,1.0.2,20260219-152011,801,Experiment,Both,1,Automatic,main,62,20260311-082629,global,local,300,S,H,A,E,S-A.png,E-H.png,sS,hH,mask-2.png,mask-1.png,s,1,3.0016428000526503,s,0,0.5422006000299007,0.05003220005892217,0.04894680005963892,0.09963740000966936,0.10283730004448444,0.30076070001814514
RSVPLG03,si,20260311-081931,1.0.2,20260219-152011,801,Experiment,Both,1,Automatic,main,63,20260311-082636,global,global,300,H,S,A,A,H-A.png,S-A.png,hH,sS,mask-4.png,mask-4.png,h,1,1.5734826000407338,s,1,0.674509400036186,0.05034219997469336,0.04988549998961389,0.09943559998646379,0.10121470002923161,0.29886960005387664
RSVPLG03,si,20260311-081931,1.0.2,20260219-152011,801,Experiment,Both,1,Automatic,main,64,20260311-082642,local,global,750,H,S,E,A,E-H.png,S-A.png,hH,sS,mask-2.png,mask-2.png,h,1,0.6670306000160053,s,1,1.0057839999208227,0.050124599947594106,0.0496236999752,0.100904899998568,0.09950789995491505,0.7507945999968797
RSVPLG03,si,20260311-081931,1.0.2,20260219-152011,801,Experiment,Both,1,Automatic,main,65,20260311-082648,global,local,300,H,S,A,E,H-A.png,E-S.png,hH,sS,mask-4.png,mask-3.png,h,1,1.4964710999047384,s,1,0.674940700060688,0.05142240005079657,0.04991349996998906,0.1005977001041174,0.10091599996667355,0.30058670009020716
RSVPLG03,si,20260311-081931,1.0.2,20260219-152011,801,Experiment,Both,1,Automatic,main,66,20260311-082654,global,local,750,S,S,A,A,S-A.png,A-S.png,sS,sS,mask-3.png,mask-4.png,s,1,0.7355583000462502,s,1,0.6415662999497727,0.05026509996969253,0.05013450002297759,0.09887210000306368,0.10043320001568645,0.7502518999390304
RSVPLG03,si,20260311-081931,1.0.2,20260219-152011,801,Experiment,Both,1,Automatic,main,67,20260311-082659,global,global,750,S,H,E,A,S-E.png,H-A.png,sS,hH,mask-2.png,mask-2.png,s,1,0.5650697000091895,s,0,0.5991212000371888,0.05037289997562766,0.04968389996793121,0.10105239995755255,0.10059809999074787,0.7512408000184223
RSVPLG03,si,20260311-081931,1.0.2,20260219-152011,801,Experiment,Both,1,Automatic,main,68,20260311-082705,global,local,750,H,H,E,A,H-E.png,A-H.png,hH,hH,mask-4.png,mask-3.png,s,0,0.7810814999975264,h,1,0.8262842000694945,0.05110919999424368,0.051812299992889166,0.10176660004071891,0.10075089999008924,0.7503904999466613
RSVPLG03,si,20260311-081931,1.0.2,20260219-152011,801,Experiment,Both,1,Automatic,main,69,20260311-082710,local,global,750,S,H,E,E,E-S.png,H-E.png,sS,hH,mask-3.png,mask-1.png,s,1,0.796456899959594,s,0,0.6976419000420719,0.05092219996731728,0.05000879999715835,0.09976399992592633,0.09888239996507764,0.7532552999909967
RSVPLG03,si,20260311-081931,1.0.2,20260219-152011,801,Experiment,Both,1,Automatic,main,70,20260311-082716,local,local,300,H,H,E,E,E-H.png,E-H.png,hH,hH,mask-2.png,mask-2.png,h,1,0.7172371000051498,h,1,0.7535535000497475,0.04923700005747378,0.05067639995831996,0.09995060006622225,0.10024559998419136,0.29898490000050515
RSVPLG03,si,20260311-081931,1.0.2,20260219-152011,801,Experiment,Both,1,Automatic,main,71,20260311-082721,local,local,300,H,S,E,E,E-H.png,E-S.png,hH,sS,mask-2.png,mask-1.png,h,1,0.7421112000010908,s,1,0.7625090000219643,0.04907559999264777,0.04900890006683767,0.09929219994228333,0.10010320006404072,0.3003345999168232
RSVPLG03,si,20260311-081931,1.0.2,20260219-152011,801,Experiment,Both,1,Automatic,main,72,20260311-082727,global,local,300,S,H,E,E,S-E.png,E-H.png,sS,hH,mask-2.png,mask-3.png,s,1,1.1855417999904603,s,0,0.7510925999376923,0.049079000018537045,0.05114810005761683,0.09988440002780408,0.10032810003031045,0.29984270001295954
RSVPLG03,si,20260311-081931,1.0.2,20260219-152011,801,Experiment,Both,1,Automatic,main,73,20260311-082732,local,local,300,S,S,E,A,E-S.png,A-S.png,sS,sS,mask-4.png,mask-2.png,s,1,0.7478904000017792,s,1,0.70544529997278,0.05046960001345724,0.05113399995025247,0.10109990008641034,0.10090219997800887,0.299925500061363
RSVPLG03,si,20260311-081931,1.0.2,20260219-152011,801,Experiment,Both,1,Automatic,main,74,20260311-082737,global,global,300,S,H,E,A,S-E.png,H-A.png,sS,hH,mask-3.png,mask-4.png,s,1,0.7007424000184983,s,0,0.898219499969855,0.049735100008547306,0.05022480001207441,0.09879909991286695,0.09996809996664524,0.29898469999898225
RSVPLG03,si,20260311-081931,1.0.2,20260219-152011,801,Experiment,Both,1,Automatic,main,75,20260311-082743,local,global,300,S,H,A,A,A-S.png,H-A.png,sS,hH,mask-2.png,mask-2.png,s,1,0.6509730000980198,s,0,0.8046066000824794,0.04986449994612485,0.048585599986836314,0.1009864000370726,0.09964949998538941,0.30274549999739975
RSVPLG03,si,20260311-081931,1.0.2,20260219-152011,801,Experiment,Both,1,Automatic,main,76,20260311-082824,local,local,750,S,S,A,E,A-S.png,E-S.png,sS,sS,mask-2.png,mask-2.png,s,1,0.3913685999577865,s,1,0.9642646999564022,0.049661900033243,0.050460999947972596,0.09892240003682673,0.10033259994816035,0.7515055000549182
RSVPLG03,si,20260311-081931,1.0.2,20260219-152011,801,Experiment,Both,1,Automatic,main,77,20260311-082829,local,global,750,H,S,E,A,E-H.png,S-A.png,hH,sS,mask-4.png,mask-4.png,h,1,0.8328591999597847,s,1,0.6417667999630794,0.049090599990449846,0.04988700000103563,0.10088849999010563,0.09876550000626594,0.750587800052017
RSVPLG03,si,20260311-081931,1.0.2,20260219-152011,801,Experiment,Both,1,Automatic,main,78,20260311-082835,local,local,750,H,S,A,A,A-H.png,A-S.png,hH,sS,mask-4.png,mask-1.png,h,1,0.4755762000568211,s,1,0.5710838999366388,0.049154400010593235,0.04886660003103316,0.09746119996998459,0.09991470002569258,0.7507001999765635
RSVPLG03,si,20260311-081931,1.0.2,20260219-152011,801,Experiment,Both,1,Automatic,main,79,20260311-082840,local,local,750,S,S,A,A,A-S.png,A-S.png,sS,sS,mask-1.png,mask-3.png,s,1,0.4782106999773532,s,1,0.9199469999875873,0.049902500002644956,0.0498798000626266,0.09952719998545945,0.10195660009048879,0.7504040999338031
RSVPLG03,si,20260311-081931,1.0.2,20260219-152011,801,Experiment,Both,1,Automatic,main,80,20260311-082846,local,global,750,S,H,E,E,E-S.png,H-E.png,sS,hH,mask-1.png,mask-3.png,s,1,0.6930684000253677,h,1,0.8024276000214741,0.05171579995658249,0.04963700007647276,0.10134189995005727,0.10105759999714792,0.7518732999451458
RSVPLG03,si,20260311-081931,1.0.2,20260219-152011,801,Experiment,Both,1,Automatic,main,81,20260311-082851,local,local,300,S,H,E,E,E-S.png,E-H.png,sS,hH,mask-3.png,mask-4.png,s,1,0.685300900018774,s,0,0.5382141000591218,0.052083900081925094,0.05055069993250072,0.10147500003222376,0.10030639998149127,0.3010883000679314
RSVPLG03,si,20260311-081931,1.0.2,20260219-152011,801,Experiment,Both,1,Automatic,main,82,20260311-082856,global,local,300,H,S,E,E,H-E.png,E-S.png,hH,sS,mask-1.png,mask-2.png,s,0,1.0083667999133468,s,1,0.8747849999926984,0.05013020010665059,0.04947349999565631,0.10083970008417964,0.10004250006750226,0.30025540001224726
RSVPLG03,si,20260311-081931,1.0.2,20260219-152011,801,Experiment,Both,1,Automatic,main,83,20260311-082902,global,global,300,S,S,E,E,S-E.png,S-E.png,sS,sS,mask-3.png,mask-3.png,h,0,2.693957700044848,s,1,0.3787201999220997,0.04869159997906536,0.04880949994549155,0.10050009994301945,0.09983159997500479,0.3003101999638602
RSVPLG03,si,20260311-081931,1.0.2,20260219-152011,801,Experiment,Both,1,Automatic,main,84,20260311-082909,local,global,750,S,S,E,E,E-S.png,S-E.png,sS,sS,mask-1.png,mask-2.png,s,1,0.8752137999981642,s,1,1.337281999993138,0.048691999982111156,0.048967799986712635,0.10000990005210042,0.09861330001149327,0.7523428000276908
RSVPLG03,si,20260311-081931,1.0.2,20260219-152011,801,Experiment,Both,1,Automatic,main,85,20260311-082915,local,local,750,S,S,E,E,E-S.png,E-S.png,sS,sS,mask-3.png,mask-4.png,s,1,0.5944534000009298,h,0,1.5389549999963492,0.049116300069727004,0.05000970000401139,0.10072310001123697,0.09897009993437678,0.7520750000840053
RSVPLG03,si,20260311-081931,1.0.2,20260219-152011,801,Experiment,Both,1,Automatic,main,86,20260311-082922,local,local,750,H,H,A,A,A-H.png,A-H.png,hH,hH,mask-2.png,mask-3.png,h,1,0.6124171999981627,h,1,0.8565153999952599,0.05091839993838221,0.0500086999963969,0.10041029995772988,0.10041679989080876,0.7511480000102893
RSVPLG03,si,20260311-081931,1.0.2,20260219-152011,801,Experiment,Both,1,Automatic,main,87,20260311-082927,local,global,300,S,S,E,E,E-S.png,S-E.png,sS,sS,mask-1.png,mask-3.png,s,1,1.1054296999936923,h,0,1.0498820999637246,0.04930509999394417,0.050148199894465506,0.0999316000379622,0.10036059992853552,0.29997160006314516
RSVPLG03,si,20260311-081931,1.0.2,20260219-152011,801,Experiment,Both,1,Automatic,main,88,20260311-082933,global,local,300,S,H,E,A,S-E.png,A-H.png,sS,hH,mask-4.png,mask-3.png,s,1,0.8190662000561133,s,0,1.360219300026074,0.05110939999576658,0.04931699996814132,0.10037300002295524,0.09903370006941259,0.3017233000136912
RSVPLG03,si,20260311-081931,1.0.2,20260219-152011,801,Experiment,Both,1,Automatic,main,89,20260311-082939,local,global,750,S,S,A,A,A-S.png,S-A.png,sS,sS,mask-2.png,mask-3.png,s,1,0.8628207999281585,h,0,0.7683766999980435,0.04900889995042235,0.0506854000268504,0.10001010005362332,0.10065309994388372,0.7513462000060827
RSVPLG03,si,20260311-081931,1.0.2,20260219-152011,801,Experiment,Both,1,Automatic,main,90,20260311-082945,global,global,750,H,H,A,E,H-A.png,H-E.png,hH,hH,mask-3.png,mask-1.png,s,0,0.645503900013864,s,0,0.8411475999746472,0.0489106000168249,0.05020439997315407,0.10010909999255091,0.09997980005573481,0.7503911999519914
RSVPLG03,si,20260311-081931,1.0.2,20260219-152011,801,Experiment,Both,1,Automatic,main,91,20260311-082950,local,local,750,H,H,A,E,A-H.png,E-H.png,hH,hH,mask-2.png,mask-3.png,h,1,0.6725483000045642,h,1,0.8972201000433415,0.050779699929989874,0.05058979999739677,0.09891900001093745,0.10031599993817508,0.7500132999848574
RSVPLG03,si,20260311-081931,1.0.2,20260219-152011,801,Experiment,Both,1,Automatic,main,92,20260311-082956,local,global,300,H,H,A,A,A-H.png,H-A.png,hH,hH,mask-4.png,mask-4.png,h,1,0.8993302999297157,s,0,0.6664793000090867,0.05104549997486174,0.0505221999483183,0.10113830002956092,0.1002265999559313,0.30099390004761517
RSVPLG03,si,20260311-081931,1.0.2,20260219-152011,801,Experiment,Both,1,Automatic,main,93,20260311-083001,local,local,750,S,H,E,E,E-S.png,E-H.png,sS,hH,mask-4.png,mask-1.png,s,1,1.043770999996923,h,1,0.7214761000359431,0.05081139993853867,0.05008850002195686,0.0999659999506548,0.10139670001808554,0.7505160999717191
RSVPLG03,si,20260311-081931,1.0.2,20260219-152011,801,Experiment,Both,1,Automatic,main,94,20260311-083007,global,local,300,S,H,A,E,S-A.png,E-H.png,sS,hH,mask-4.png,mask-3.png,h,0,2.247959499945864,h,1,0.7371708999853581,0.05017709999810904,0.0500162000535056,0.09909399994648993,0.10062559996731579,0.2999123999616131
RSVPLG03,si,20260311-081931,1.0.2,20260219-152011,801,Experiment,Both,1,Automatic,main,95,20260311-083014,local,global,750,S,S,A,E,A-S.png,S-E.png,sS,sS,mask-2.png,mask-4.png,s,1,1.0780687999213114,s,1,1.2445435000117868,0.051047899993136525,0.05049180006608367,0.10387889994308352,0.10038509999867529,0.751824599923566
RSVPLG03,si,20260311-081931,1.0.2,20260219-152011,801,Experiment,Both,1,Automatic,main,96,20260311-083021,global,local,300,H,H,A,A,H-A.png,A-H.png,hH,hH,mask-1.png,mask-3.png,s,0,1.5228413000004366,s,0,0.9071747999405488,0.04851270001381636,0.05085599992889911,0.09951299999374896,0.09981639997567981,0.30069380009081215
RSVPLG03,si,20260311-081931,1.0.2,20260219-152011,801,Experiment,Both,1,Automatic,main,97,20260311-083027,local,local,750,H,H,A,E,A-H.png,E-H.png,hH,hH,mask-4.png,mask-2.png,s,0,1.777965399902314,h,1,0.7603294999571517,0.05088980006985366,0.05159389995969832,0.10113220009952784,0.10083819995634258,0.7523610000498593
RSVPLG03,si,20260311-081931,1.0.2,20260219-152011,801,Experiment,Both,1,Automatic,main,98,20260311-083034,global,global,300,H,S,A,A,H-A.png,S-A.png,hH,sS,mask-1.png,mask-1.png,s,0,2.9281885001109913,s,1,0.608642700011842,0.049810700002126396,0.051191900041885674,0.09971219999715686,0.1001920000417158,0.29915809992235154
RSVPLG03,si,20260311-081931,1.0.2,20260219-152011,801,Experiment,Both,1,Automatic,main,99,20260311-083041,global,global,300,H,S,A,A,H-A.png,S-A.png,hH,sS,mask-4.png,mask-4.png,h,1,0.7716998000396416,s,1,0.6488632999826223,0.04977269994560629,0.04976249998435378,0.09970199991948903,0.10109889996238053,0.300848999992013
RSVPLG03,si,20260311-081931,1.0.2,20260219-152011,801,Experiment,Both,1,Automatic,main,100,20260311-083046,global,global,750,H,H,A,E,H-A.png,H-E.png,hH,hH,mask-3.png,mask-1.png,h,1,0.942332600010559,s,0,0.7422094999346882,0.04976540000643581,0.05000879999715835,0.09849640005268157,0.10030190006364137,0.7494938999880105
RSVPLG03,si,20260311-083120,1.0.2,20260219-152011,801,Experiment,Both,1,Automatic,warmup,1,20260311-083141,global,local,300,H,H,E,E,H-E.png,E-H.png,hH,hH,mask-2.png,mask-1.png,s,0,0.8146391999907792,s,0,0.7531676000216976,0.049892600043676794,0.05103189998771995,0.10052650002762675,0.10057160002179444,0.29831980005837977
RSVPLG03,si,20260311-083120,1.0.2,20260219-152011,801,Experiment,Both,1,Automatic,warmup,2,20260311-083146,local,local,750,S,H,E,A,E-S.png,A-H.png,sS,hH,mask-4.png,mask-1.png,s,1,0.7350920999888331,h,1,0.6849239999428391,0.049643500009551644,0.0493813999928534,0.09954349999316037,0.09963780001271516,0.7475383999990299
RSVPLG03,si,20260311-083120,1.0.2,20260219-152011,801,Experiment,Both,1,Automatic,warmup,3,20260311-083151,local,local,300,S,S,E,E,E-S.png,E-S.png,sS,sS,mask-3.png,mask-3.png,s,1,0.5756704999366775,s,1,0.6233389000408351,0.04763479996472597,0.050298399990424514,0.09740460000466555,0.09967679996043444,0.2975019000004977
RSVPLG03,si,20260311-083120,1.0.2,20260219-152011,801,Experiment,Both,1,Automatic,warmup,4,20260311-083156,global,global,300,S,S,A,E,S-A.png,S-E.png,sS,sS,mask-2.png,mask-1.png,s,1,0.6928680000128224,s,1,0.5105969000142068,0.05091660004109144,0.050114599987864494,0.09983409999404103,0.10010889999102801,0.2991543000098318
RSVPLG03,si,20260311-083120,1.0.2,20260219-152011,801,Experiment,Both,1,Automatic,main,5,20260311-083201,local,global,300,S,S,E,E,E-S.png,S-E.png,sS,sS,mask-2.png,mask-1.png,s,1,0.46909160003997386,s,1,0.4266572999767959,0.048792799934744835,0.04977609997149557,0.09911760000977665,0.10205009998753667,0.29860089998692274
RSVPLG03,si,20260311-083120,1.0.2,20260219-152011,801,Experiment,Both,1,Automatic,main,6,20260311-083206,global,global,750,S,S,E,E,S-E.png,S-E.png,sS,sS,mask-1.png,mask-4.png,s,1,0.39076390000991523,s,1,0.5197240000125021,0.049283399945124984,0.04896729998290539,0.1009079999057576,0.0996393000241369,0.7486447999253869
RSVPLG03,si,20260311-083120,1.0.2,20260219-152011,801,Experiment,Both,1,Automatic,main,7,20260311-083211,global,local,300,S,S,A,A,S-A.png,A-S.png,sS,sS,mask-4.png,mask-2.png,s,1,0.5015436999965459,s,1,0.45763860002625734,0.04881399997975677,0.05058809998445213,0.0991177000105381,0.10001970001030713,0.2985768000362441
RSVPLG03,si,20260311-083120,1.0.2,20260219-152011,801,Experiment,Both,1,Automatic,main,8,20260311-083216,local,global,300,H,S,A,E,A-H.png,S-E.png,hH,sS,mask-1.png,mask-3.png,h,1,1.8143061998998746,h,0,0.40849770000204444,0.05082640005275607,0.04968139994889498,0.10016040003392845,0.0987558999331668,0.30054890003520995
RSVPLG03,si,20260311-083120,1.0.2,20260219-152011,801,Experiment,Both,1,Automatic,main,9,20260311-083222,local,global,750,H,H,A,A,A-H.png,H-A.png,hH,hH,mask-2.png,mask-1.png,h,1,0.597317999927327,s,0,0.487850199919194,0.04872429999522865,0.05145030003041029,0.09742449992336333,0.09916700003668666,0.7460497999563813
RSVPLG03,si,20260311-083120,1.0.2,20260219-152011,801,Experiment,Both,1,Automatic,main,10,20260311-083227,local,local,750,S,H,E,A,E-S.png,A-H.png,sS,hH,mask-3.png,mask-4.png,h,0,1.7154485000064597,s,0,0.3231929000467062,0.049636000068858266,0.04942289995960891,0.09969140007160604,0.09791529993526638,0.7494443000759929
RSVPLG03,si,20260311-083120,1.0.2,20260219-152011,801,Experiment,Both,1,Automatic,main,11,20260311-083233,local,local,300,S,S,A,E,A-S.png,E-S.png,sS,sS,mask-4.png,mask-4.png,s,1,0.59273460006807,s,1,0.5834463000064716,0.05031109997071326,0.049991399981081486,0.09946970001328737,0.09954329999163747,0.29846189997624606
RSVPLG03,si,20260311-083120,1.0.2,20260219-152011,801,Experiment,Both,1,Automatic,main,12,20260311-083238,global,local,750,S,H,A,A,S-A.png,A-H.png,sS,hH,mask-2.png,mask-4.png,s,1,1.3238920000148937,s,0,0.5688215000554919,0.04990460001863539,0.050038799992762506,0.1001719000050798,0.10008900007233024,0.748668699990958
RSVPLG03,si,20260311-083120,1.0.2,20260219-152011,801,Experiment,Both,1,Automatic,main,13,20260311-083244,global,global,300,S,H,A,E,S-A.png,H-E.png,sS,hH,mask-3.png,mask-3.png,s,1,2.1346564000705257,s,0,0.4876255999552086,0.04967540001962334,0.04956419998779893,0.09979180002119392,0.10021019994746894,0.2979217000538483
RSVPLG03,si,20260311-083120,1.0.2,20260219-152011,801,Experiment,Both,1,Automatic,main,14,20260311-083250,local,global,300,S,H,E,A,E-S.png,H-A.png,sS,hH,mask-4.png,mask-4.png,s,1,0.6148573999525979,s,0,0.5719159999862313,0.05107119993772358,0.049763199989683926,0.10012819990515709,0.10048999998252839,0.29953419999219477
RSVPLG03,si,20260311-083120,1.0.2,20260219-152011,801,Experiment,Both,1,Automatic,main,15,20260311-083255,global,global,300,H,H,E,E,H-E.png,H-E.png,hH,hH,mask-4.png,mask-2.png,s,0,2.1687527999747545,h,1,0.3777123000472784,0.051522199995815754,0.04991079994942993,0.10028889996465296,0.09882469999138266,0.29956750001292676
RSVPLG03,si,20260311-083120,1.0.2,20260219-152011,801,Experiment,Both,1,Automatic,main,16,20260311-083301,local,local,300,H,H,E,E,E-H.png,E-H.png,hH,hH,mask-3.png,mask-4.png,h,1,0.7025207999395207,s,0,0.6302545999642462,0.049489199998788536,0.04994799999985844,0.10002020001411438,0.09953599993605167,0.29900500003714114
RSVPLG03,si,20260311-083120,1.0.2,20260219-152011,801,Experiment,Both,1,Automatic,main,17,20260311-083306,global,global,750,H,H,A,E,H-A.png,H-E.png,hH,hH,mask-1.png,mask-2.png,s,0,1.4498019999591634,s,0,0.5647486000088975,0.05102250003255904,0.04795110004488379,0.09986770001705736,0.09796230006031692,0.748853400000371
RSVPLG03,si,20260311-083120,1.0.2,20260219-152011,801,Experiment,Both,1,Automatic,main,18,20260311-083313,global,local,300,S,H,E,E,S-E.png,E-H.png,sS,hH,mask-1.png,mask-2.png,h,0,2.0566100999712944,s,0,0.8238433999940753,0.04929270001593977,0.04969500005245209,0.10000149998813868,0.10064810002222657,0.2976844999939203
RSVPLG03,si,20260311-083120,1.0.2,20260219-152011,801,Experiment,Both,1,Automatic,main,19,20260311-083319,global,local,300,H,H,A,E,H-A.png,E-H.png,hH,hH,mask-3.png,mask-2.png,s,0,0.8409129999345168,h,1,0.7680366000859067,0.04871999996248633,0.049509900039993227,0.09883959998842329,0.09950190002564341,0.29909589991439134
RSVPLG03,si,20260311-083120,1.0.2,20260219-152011,801,Experiment,Both,1,Automatic,main,20,20260311-083325,local,global,300,H,H,A,A,A-H.png,H-A.png,hH,hH,mask-2.png,mask-4.png,h,1,0.6092877000337467,s,0,0.7040375999640673,0.04949439992196858,0.05066940002143383,0.09983329998794943,0.09967930009588599,0.2983792999293655
RSVPLG03,si,20260311-083120,1.0.2,20260219-152011,801,Experiment,Both,1,Automatic,main,21,20260311-083330,global,global,300,S,S,A,E,S-A.png,S-E.png,sS,sS,mask-2.png,mask-2.png,s,1,3.5806014999980107,s,1,1.456787999952212,0.04999880003742874,0.05078960000537336,0.10000199999194592,0.10068380006123334,0.30002019996754825
RSVPLG03,si,20260311-083120,1.0.2,20260219-152011,801,Experiment,Both,1,Automatic,main,22,20260311-083339,global,global,300,H,H,E,A,H-E.png,H-A.png,hH,hH,mask-4.png,mask-2.png,s,0,3.5311778999166563,h,1,0.5027882000431418,0.05015580006875098,0.04816370003391057,0.10037560004275292,0.09893450001254678,0.30021190003026277
RSVPLG03,si,20260311-083120,1.0.2,20260219-152011,801,Experiment,Both,1,Automatic,main,23,20260311-083346,local,global,750,H,S,A,E,A-H.png,S-E.png,hH,sS,mask-1.png,mask-4.png,h,1,3.404998100013472,s,1,0.6143875999841839,0.05079210002440959,0.04868700006045401,0.09845510008744895,0.09840780007652938,0.7486531999893486
RSVPLG03,si,20260311-083120,1.0.2,20260219-152011,801,Experiment,Both,1,Automatic,main,24,20260311-083355,global,local,300,S,S,A,A,S-A.png,A-S.png,sS,sS,mask-3.png,mask-2.png,s,1,2.3762077999999747,s,1,0.3937582999933511,0.04856010002549738,0.049652399960905313,0.09835600003134459,0.09851889999117702,0.2990946000209078
RSVPLG03,si,20260311-083120,1.0.2,20260219-152011,801,Experiment,Both,1,Automatic,main,25,20260311-083401,global,local,750,H,S,E,E,H-E.png,E-S.png,hH,sS,mask-2.png,mask-1.png,s,0,0.5222144001163542,s,1,0.522432400030084,0.050640800036489964,0.048877199995331466,0.10087900003418326,0.10098710004240274,0.7480330000398681
RSVPLG03,si,20260311-083120,1.0.2,20260219-152011,801,Experiment,Both,1,Automatic,main,26,20260311-083424,global,global,300,S,S,E,A,S-E.png,S-A.png,sS,sS,mask-2.png,mask-2.png,s,1,0.8283026999561116,s,1,0.5538328000111505,0.05069880001246929,0.05058969999663532,0.09959650004748255,0.1002779999980703,0.29824679996818304
RSVPLG03,si,20260311-083120,1.0.2,20260219-152011,801,Experiment,Both,1,Automatic,main,27,20260311-083429,local,local,300,H,H,A,E,A-H.png,E-H.png,hH,hH,mask-2.png,mask-2.png,h,1,0.6846267000073567,s,0,0.6779111000942066,0.050173800089396536,0.050480299978516996,0.0988455000333488,0.09781940001994371,0.30050640006083995
RSVPLG03,si,20260311-083120,1.0.2,20260219-152011,801,Experiment,Both,1,Automatic,main,28,20260311-083435,local,global,300,H,H,A,E,A-H.png,H-E.png,hH,hH,mask-4.png,mask-1.png,h,1,0.544778999988921,h,1,0.6415182000491768,0.04817560000810772,0.04921099997591227,0.09983290010131896,0.09970449993852526,0.29848950006999075
RSVPLG03,si,20260311-083120,1.0.2,20260219-152011,801,Experiment,Both,1,Automatic,main,29,20260311-083439,local,global,300,S,S,E,A,E-S.png,S-A.png,sS,sS,mask-4.png,mask-4.png,s,1,0.5141257999930531,s,1,0.451239199959673,0.051139599992893636,0.05096709995996207,0.10057599993888289,0.10013919998891652,0.3000422000186518
RSVPLG03,si,20260311-083120,1.0.2,20260219-152011,801,Experiment,Both,1,Automatic,main,30,20260311-083444,local,global,750,H,H,E,E,E-H.png,H-E.png,hH,hH,mask-2.png,mask-4.png,h,1,0.7747600000584498,s,0,0.45700499997474253,0.04955960006918758,0.050023100106045604,0.10060290002729744,0.10008560004644096,0.7472279999637976
RSVPLG03,si,20260311-083120,1.0.2,20260219-152011,801,Experiment,Both,1,Automatic,main,31,20260311-083450,local,global,750,S,H,A,E,A-S.png,H-E.png,sS,hH,mask-4.png,mask-3.png,s,1,0.6905661999480799,h,1,2.984387299977243,0.049996200017631054,0.049501299974508584,0.09864430001471192,0.09665840002708137,0.7489611000055447
RSVPLG03,si,20260311-083120,1.0.2,20260219-152011,801,Experiment,Both,1,Automatic,main,32,20260311-083458,local,local,750,S,S,A,E,A-S.png,E-S.png,sS,sS,mask-2.png,mask-1.png,s,1,1.8603564000222832,h,0,0.4389994000084698,0.04867089993786067,0.04813790007028729,0.09933559992350638,0.09776160004548728,0.7479751999489963
RSVPLG03,si,20260311-083120,1.0.2,20260219-152011,801,Experiment,Both,1,Automatic,main,33,20260311-083504,local,global,750,H,H,A,A,A-H.png,H-A.png,hH,hH,mask-1.png,mask-4.png,h,1,1.0720993999857455,s,0,0.626044400036335,0.04997169994749129,0.04956850002054125,0.1010648999363184,0.09978619997855276,0.7488459999440238
RSVPLG03,si,20260311-083120,1.0.2,20260219-152011,801,Experiment,Both,1,Automatic,main,34,20260311-083510,global,global,750,H,S,E,E,H-E.png,S-E.png,hH,sS,mask-4.png,mask-1.png,s,0,0.6022540000267327,s,1,0.5331002000020817,0.049105399986729026,0.048326199990697205,0.09914280008524656,0.09882720001041889,0.7492693000240251
RSVPLG03,si,20260311-083120,1.0.2,20260219-152011,801,Experiment,Both,1,Automatic,main,35,20260311-083515,global,global,300,S,H,A,A,S-A.png,H-A.png,sS,hH,mask-3.png,mask-3.png,h,0,3.2131394000025466,h,1,1.1769271000521258,0.050981300068087876,0.050657000043429434,0.1034741000039503,0.10077689995523542,0.2999644000083208
RSVPLG03,si,20260311-083120,1.0.2,20260219-152011,801,Experiment,Both,1,Automatic,main,36,20260311-083523,global,global,750,H,S,E,E,H-E.png,S-E.png,hH,sS,mask-2.png,mask-3.png,s,0,1.6605526999337599,h,0,1.0830418999539688,0.050391800003126264,0.04955049999989569,0.10014590003993362,0.09941209992393851,0.7472868000622839
RSVPLG03,si,20260311-083120,1.0.2,20260219-152011,801,Experiment,Both,1,Automatic,main,37,20260311-083530,local,global,300,S,H,E,A,E-S.png,H-A.png,sS,hH,mask-4.png,mask-3.png,s,1,0.8511034999974072,h,1,0.8414660000707954,0.04874940006993711,0.05060720001347363,0.0981995000038296,0.09946479997597635,0.2983010000316426
RSVPLG03,si,20260311-083120,1.0.2,20260219-152011,801,Experiment,Both,1,Automatic,main,38,20260311-083536,local,global,300,S,H,E,A,E-S.png,H-A.png,sS,hH,mask-1.png,mask-3.png,s,1,0.9343178999843076,h,1,0.533732800045982,0.048960500047542155,0.05310390004888177,0.09921980008948594,0.10032980004325509,0.2975371000356972
RSVPLG03,si,20260311-083120,1.0.2,20260219-152011,801,Experiment,Both,1,Automatic,main,39,20260311-083541,local,local,300,H,H,E,E,E-H.png,E-H.png,hH,hH,mask-1.png,mask-3.png,h,1,0.5496244000969455,h,1,0.5667779999785125,0.049769200035370886,0.04983929998707026,0.09945180010981858,0.09929070004727691,0.29799660004209727
RSVPLG03,si,20260311-083120,1.0.2,20260219-152011,801,Experiment,Both,1,Automatic,main,40,20260311-083546,global,local,750,H,S,A,A,H-A.png,A-S.png,hH,sS,mask-4.png,mask-1.png,s,0,0.5307795000262558,s,1,0.7461892999708652,0.04999099997803569,0.04987390001770109,0.10044379997998476,0.10003909992519766,0.7466270000441
RSVPLG03,si,20260311-083120,1.0.2,20260219-152011,801,Experiment,Both,1,Automatic,main,41,20260311-083551,local,global,300,S,H,E,A,E-S.png,H-A.png,sS,hH,mask-2.png,mask-1.png,s,1,0.8544018999673426,s,0,0.5291853999951854,0.050003299955278635,0.04819400003179908,0.10051309992559254,0.09878650004975498,0.30069259996525943
RSVPLG03,si,20260311-083120,1.0.2,20260219-152011,801,Experiment,Both,1,Automatic,main,42,20260311-083556,local,local,750,H,S,A,E,A-H.png,E-S.png,hH,sS,mask-1.png,mask-2.png,h,1,0.5805019999388605,s,1,0.42627190006896853,0.04918810003437102,0.05031550000421703,0.10045020002871752,0.10129400005098432,0.7480463000247255
RSVPLG03,si,20260311-083120,1.0.2,20260219-152011,801,Experiment,Both,1,Automatic,main,43,20260311-083602,local,global,750,H,H,A,E,A-H.png,H-E.png,hH,hH,mask-3.png,mask-2.png,h,1,0.5931068999925628,s,0,0.7677324999822304,0.04930680000688881,0.04862889996729791,0.09897130005992949,0.09884849993977696,0.74797440005932
RSVPLG03,si,20260311-083120,1.0.2,20260219-152011,801,Experiment,Both,1,Automatic,main,44,20260311-083607,local,local,750,S,H,A,E,A-S.png,E-H.png,sS,hH,mask-2.png,mask-2.png,s,1,0.7091903000837192,h,1,0.7141182000050321,0.05021180002950132,0.04964099999051541,0.09968790004495531,0.09917689999565482,0.7484279000200331
RSVPLG03,si,20260311-083120,1.0.2,20260219-152011,801,Experiment,Both,1,Automatic,main,45,20260311-083613,global,global,750,H,S,E,E,H-E.png,S-E.png,hH,sS,mask-4.png,mask-2.png,s,0,1.2355263999197632,s,1,0.6097115000011399,0.04853620007634163,0.04791829991154373,0.09783050010446459,0.09802839998155832,0.7486384001094848
RSVPLG03,si,20260311-083120,1.0.2,20260219-152011,801,Experiment,Both,1,Automatic,main,46,20260311-083619,global,local,300,H,H,A,E,H-A.png,E-H.png,hH,hH,mask-4.png,mask-4.png,h,1,1.3470709000248462,s,0,0.519121199962683,0.04978220001794398,0.04934139992110431,0.09968820004723966,0.10080070002004504,0.298762800055556
RSVPLG03,si,20260311-083120,1.0.2,20260219-152011,801,Experiment,Both,1,Automatic,main,47,20260311-083624,global,global,300,H,S,E,A,H-E.png,S-A.png,hH,sS,mask-1.png,mask-3.png,s,0,3.1166346999816597,h,0,1.2202320999931544,0.05113429995253682,0.05144289997406304,0.10040659992955625,0.10043029999360442,0.29820740001741797
RSVPLG03,si,20260311-083120,1.0.2,20260219-152011,801,Experiment,Both,1,Automatic,main,48,20260311-083632,global,global,300,H,S,E,A,H-E.png,S-A.png,hH,sS,mask-2.png,mask-4.png,h,1,2.279533800086938,s,1,0.3672950000036508,0.0506427000509575,0.04933860001619905,0.09967270004563034,0.09884220000822097,0.29948310006875545
RSVPLG03,si,20260311-083120,1.0.2,20260219-152011,801,Experiment,Both,1,Automatic,main,49,20260311-083639,global,local,750,S,H,E,E,S-E.png,E-H.png,sS,hH,mask-3.png,mask-4.png,h,0,0.6564038000069559,s,0,1.2127887000096962,0.04938920005224645,0.04983270005322993,0.09830319997854531,0.09958060004282743,0.7475866000168025
RSVPLG03,si,20260311-083120,1.0.2,20260219-152011,801,Experiment,Both,1,Automatic,main,50,20260311-083645,global,global,750,H,S,E,E,H-E.png,S-E.png,hH,sS,mask-2.png,mask-1.png,s,0,0.8308045000303537,h,0,1.1145041000563651,0.050020999973639846,0.049963600002229214,0.10092619992792606,0.0999868999933824,0.7479749999474734
RSVPLG03,si,20260311-083120,1.0.2,20260219-152011,801,Experiment,Both,1,Automatic,main,51,20260311-083700,local,global,750,S,H,E,E,E-S.png,H-E.png,sS,hH,mask-2.png,mask-4.png,s,1,0.2795906000537798,s,0,0.36521339998580515,0.05175539990887046,0.05006619996856898,0.10230419994331896,0.09945669991429895,0.7491448000073433
RSVPLG03,si,20260311-083120,1.0.2,20260219-152011,801,Experiment,Both,1,Automatic,main,52,20260311-083705,global,local,750,H,H,E,E,H-E.png,E-H.png,hH,hH,mask-3.png,mask-2.png,s,0,1.4258373000193387,h,1,0.6728000999428332,0.04980829998385161,0.05064539995510131,0.09972289996221662,0.09978029993362725,0.7476602999959141
RSVPLG03,si,20260311-083120,1.0.2,20260219-152011,801,Experiment,Both,1,Automatic,main,53,20260311-083711,local,local,750,H,S,E,E,E-H.png,E-S.png,hH,sS,mask-2.png,mask-4.png,h,1,0.6659613000229001,s,1,0.5593678000150248,0.05006909999065101,0.04829710000194609,0.10051210003439337,0.09800639993045479,0.7495196000672877
RSVPLG03,si,20260311-083120,1.0.2,20260219-152011,801,Experiment,Both,1,Automatic,main,54,20260311-083717,global,local,300,S,S,E,A,S-E.png,A-S.png,sS,sS,mask-1.png,mask-2.png,s,1,1.4311424000188708,s,1,0.41696699999738485,0.05049019993748516,0.051101199933327734,0.10015139996539801,0.10092819994315505,0.29782460001297295
RSVPLG03,si,20260311-083120,1.0.2,20260219-152011,801,Experiment,Both,1,Automatic,main,55,20260311-083722,local,local,750,S,S,E,E,E-S.png,E-S.png,sS,sS,mask-1.png,mask-3.png,s,1,0.6277394000208005,s,1,0.5587657000869513,0.04946680006105453,0.04906589991878718,0.09957830002531409,0.09842699998989701,0.7492445000680164
RSVPLG03,si,20260311-083120,1.0.2,20260219-152011,801,Experiment,Both,1,Automatic,main,56,20260311-083728,local,local,750,S,S,A,E,A-S.png,E-S.png,sS,sS,mask-4.png,mask-1.png,s,1,0.45640170003753155,s,1,0.43876489996910095,0.04942779999691993,0.05095979990437627,0.09868759999517351,0.10119319998193532,0.7457256000488997
RSVPLG03,si,20260311-083120,1.0.2,20260219-152011,801,Experiment,Both,1,Automatic,main,57,20260311-083733,global,local,750,H,H,E,E,H-E.png,E-H.png,hH,hH,mask-1.png,mask-1.png,s,0,1.1382990001002327,h,1,0.42037080007139593,0.05205299996305257,0.0510206000180915,0.10176549991592765,0.09920699999202043,0.7485003999900073
RSVPLG03,si,20260311-083120,1.0.2,20260219-152011,801,Experiment,Both,1,Automatic,main,58,20260311-083739,global,local,750,H,S,A,A,H-A.png,A-S.png,hH,sS,mask-1.png,mask-2.png,h,1,2.020892099943012,h,0,0.6891868999227881,0.05178469989914447,0.04883049998898059,0.1005739999236539,0.09895300003699958,0.7494736999506131
RSVPLG03,si,20260311-083120,1.0.2,20260219-152011,801,Experiment,Both,1,Automatic,main,59,20260311-083746,global,local,300,S,H,E,E,S-E.png,E-H.png,sS,hH,mask-1.png,mask-3.png,s,1,2.0609840999823064,s,0,0.5321792000904679,0.04960579995531589,0.048490000073798,0.10031040001194924,0.09999240003526211,0.2994970999425277
RSVPLG03,si,20260311-083120,1.0.2,20260219-152011,801,Experiment,Both,1,Automatic,main,60,20260311-083752,global,local,750,H,S,E,E,H-E.png,E-S.png,hH,sS,mask-4.png,mask-3.png,h,1,3.8669924000278115,s,1,0.9214411999564618,0.050199300050735474,0.0495106999296695,0.09983270009979606,0.10080120002385229,0.7469500000588596
RSVPLG03,si,20260311-083120,1.0.2,20260219-152011,801,Experiment,Both,1,Automatic,main,61,20260311-083801,global,local,750,H,S,A,E,H-A.png,E-S.png,hH,sS,mask-3.png,mask-4.png,s,0,0.667356500052847,h,0,1.9218878999818116,0.050077800056897104,0.04787830007262528,0.10175590007565916,0.0972491999855265,0.750995000009425
RSVPLG03,si,20260311-083120,1.0.2,20260219-152011,801,Experiment,Both,1,Automatic,main,62,20260311-083808,local,local,300,S,S,A,A,A-S.png,A-S.png,sS,sS,mask-4.png,mask-4.png,s,1,0.5026126999873668,s,1,0.47097959998063743,0.04954360006377101,0.05063730000983924,0.09912470006383955,0.10007280006539077,0.29875499999616295
RSVPLG03,si,20260311-083120,1.0.2,20260219-152011,801,Experiment,Both,1,Automatic,main,63,20260311-083812,local,local,300,H,S,A,A,A-H.png,A-S.png,hH,sS,mask-3.png,mask-2.png,h,1,0.6111218000296503,s,1,0.4652292000828311,0.050027300021611154,0.04978160001337528,0.0980700000654906,0.10084910003934056,0.2990577999735251
RSVPLG03,si,20260311-083120,1.0.2,20260219-152011,801,Experiment,Both,1,Automatic,main,64,20260311-083817,global,local,750,S,S,E,A,S-E.png,A-S.png,sS,sS,mask-2.png,mask-4.png,s,1,0.697745000012219,s,1,0.33480859990231693,0.04968990001361817,0.05070029990747571,0.09911140007898211,0.09972379996906966,0.7483002000954002
RSVPLG03,si,20260311-083120,1.0.2,20260219-152011,801,Experiment,Both,1,Automatic,main,65,20260311-083822,local,local,300,H,H,A,A,A-H.png,A-H.png,hH,hH,mask-1.png,mask-2.png,h,1,1.2692276999587193,h,1,0.3388594000134617,0.04985890001989901,0.05047400004696101,0.09918730007484555,0.09908279997762293,0.29797810001764446
RSVPLG03,si,20260311-083120,1.0.2,20260219-152011,801,Experiment,Both,1,Automatic,main,66,20260311-083828,global,global,750,H,S,E,A,H-E.png,S-A.png,hH,sS,mask-2.png,mask-1.png,s,0,0.4379215999506414,s,1,0.5072163000004366,0.05007520003709942,0.048762000049464405,0.09912709996569902,0.10064269998110831,0.7474888999713585
RSVPLG03,si,20260311-083120,1.0.2,20260219-152011,801,Experiment,Both,1,Automatic,main,67,20260311-083833,global,global,750,H,H,A,E,H-A.png,H-E.png,hH,hH,mask-4.png,mask-4.png,h,1,1.0213474000338465,s,0,0.37995269999373704,0.050612600054591894,0.04918149998411536,0.10048040002584457,0.10098119999747723,0.7478613000130281
RSVPLG03,si,20260311-083120,1.0.2,20260219-152011,801,Experiment,Both,1,Automatic,main,68,20260311-083838,local,local,750,H,S,E,E,E-H.png,E-S.png,hH,sS,mask-3.png,mask-3.png,h,1,0.55135700001847,h,0,0.44832000008318573,0.050421299994923174,0.050567899947054684,0.10017360001802444,0.09956699993927032,0.7475409000180662
RSVPLG03,si,20260311-083120,1.0.2,20260219-152011,801,Experiment,Both,1,Automatic,main,69,20260311-083844,global,global,750,S,S,A,A,S-A.png,S-A.png,sS,sS,mask-2.png,mask-2.png,s,1,0.7495063999667764,h,0,0.7539601000025868,0.05018909997306764,0.05036750005092472,0.09992960002273321,0.10405100008938462,0.7475629999535158
RSVPLG03,si,20260311-083120,1.0.2,20260219-152011,801,Experiment,Both,1,Automatic,main,70,20260311-083849,local,local,300,H,H,A,E,A-H.png,E-H.png,hH,hH,mask-2.png,mask-3.png,h,1,0.48562260007020086,s,0,0.9052825999679044,0.05197749997023493,0.051218500011600554,0.10033070005010813,0.10017959994729608,0.29836350004188716
RSVPLG03,si,20260311-083120,1.0.2,20260219-152011,801,Experiment,Both,1,Automatic,main,71,20260311-083854,local,local,300,H,H,A,E,A-H.png,E-H.png,hH,hH,mask-4.png,mask-2.png,h,1,0.9582218000432476,s,0,0.4240894999820739,0.048807799932546914,0.05003409995697439,0.09843869996257126,0.1006760000018403,0.2983702999772504
RSVPLG03,si,20260311-083120,1.0.2,20260219-152011,801,Experiment,Both,1,Automatic,main,72,20260311-083859,global,global,750,S,H,E,E,S-E.png,H-E.png,sS,hH,mask-1.png,mask-1.png,s,1,1.910832199966535,h,1,0.39862280001398176,0.04756269999779761,0.04982890002429485,0.09997849992942065,0.10058999992907047,0.7459441999671981
RSVPLG03,si,20260311-083120,1.0.2,20260219-152011,801,Experiment,Both,1,Automatic,main,73,20260311-083906,local,local,750,H,S,A,E,A-H.png,E-S.png,hH,sS,mask-2.png,mask-2.png,h,1,0.84453219990246,s,1,0.46134659997187555,0.05091880005784333,0.0504178999690339,0.10053010005503893,0.10038949991576374,0.7482657000655308
RSVPLG03,si,20260311-083120,1.0.2,20260219-152011,801,Experiment,Both,1,Automatic,main,74,20260311-083911,local,global,300,S,H,E,A,E-S.png,H-A.png,sS,hH,mask-3.png,mask-2.png,s,1,0.8131641999352723,h,1,0.4090708000585437,0.05219379998743534,0.04815789998974651,0.10077559994533658,0.09911840001586825,0.3002896999241784
RSVPLG03,si,20260311-083120,1.0.2,20260219-152011,801,Experiment,Both,1,Automatic,main,75,20260311-083916,local,local,750,S,S,A,E,A-S.png,E-S.png,sS,sS,mask-4.png,mask-2.png,s,1,2.522829700028524,s,1,0.45774819992948323,0.05000010004732758,0.048513999907299876,0.09964899998158216,0.09796759998425841,0.7493056000676006
RSVPLG03,si,20260311-083120,1.0.2,20260219-152011,801,Experiment,Both,1,Automatic,main,76,20260311-083929,local,global,300,H,H,A,A,A-H.png,H-A.png,hH,hH,mask-1.png,mask-4.png,s,0,0.6329861000413075,h,1,0.6024943999946117,0.05023970000911504,0.049431500025093555,0.09917739999946207,0.10067750001326203,0.29967850004322827
RSVPLG03,si,20260311-083120,1.0.2,20260219-152011,801,Experiment,Both,1,Automatic,main,77,20260311-083934,global,global,300,S,S,A,A,S-A.png,S-A.png,sS,sS,mask-2.png,mask-1.png,h,0,0.6452006999170408,s,1,0.6078346000285819,0.05149709992110729,0.048200099961832166,0.0999047999503091,0.09859950002282858,0.3015198999783024
RSVPLG03,si,20260311-083120,1.0.2,20260219-152011,801,Experiment,Both,1,Automatic,main,78,20260311-083939,global,global,300,S,H,E,E,S-E.png,H-E.png,sS,hH,mask-3.png,mask-2.png,s,1,0.2827432000776753,s,0,0.936432300019078,0.04901319998316467,0.05067919997964054,0.09954279998783022,0.1003200999693945,0.2986761999782175
RSVPLG03,si,20260311-083120,1.0.2,20260219-152011,801,Experiment,Both,1,Automatic,main,79,20260311-083944,local,global,750,S,H,E,E,E-S.png,H-E.png,sS,hH,mask-2.png,mask-2.png,s,1,0.5036707000108436,h,1,0.5866604999173433,0.04763799998909235,0.04983929998707026,0.09884489991236478,0.10001199995167553,0.7466978000011295
RSVPLG03,si,20260311-083120,1.0.2,20260219-152011,801,Experiment,Both,1,Automatic,main,80,20260311-083949,global,global,300,H,S,A,A,H-A.png,S-A.png,hH,sS,mask-2.png,mask-4.png,h,1,0.6184858999913558,s,1,0.48865159996785223,0.04978020000271499,0.04986909998115152,0.10002429992891848,0.1008921000175178,0.29865459993015975
RSVPLG03,si,20260311-083120,1.0.2,20260219-152011,801,Experiment,Both,1,Automatic,main,81,20260311-083954,global,local,300,H,S,E,A,H-E.png,A-S.png,hH,sS,mask-3.png,mask-1.png,h,1,0.5115192999364808,h,0,0.5047208999749273,0.04900520003866404,0.05026659998111427,0.09904950007330626,0.10064209997653961,0.29902290005702525
RSVPLG03,si,20260311-083120,1.0.2,20260219-152011,801,Experiment,Both,1,Automatic,main,82,20260311-083959,global,global,750,H,S,A,A,H-A.png,S-A.png,hH,sS,mask-3.png,mask-3.png,h,1,0.5127545000286773,s,1,0.41053339990321547,0.04939229995943606,0.051341300015337765,0.09925990004558116,0.10057710006367415,0.7473964999662712
RSVPLG03,si,20260311-083120,1.0.2,20260219-152011,801,Experiment,Both,1,Automatic,main,83,20260311-084004,global,global,300,H,S,E,E,H-E.png,S-E.png,hH,sS,mask-3.png,mask-4.png,h,1,0.450726900016889,s,1,0.3965301999123767,0.047718600020743906,0.0486546999309212,0.10105119994841516,0.09770479996223003,0.29855840001255274
RSVPLG03,si,20260311-083120,1.0.2,20260219-152011,801,Experiment,Both,1,Automatic,main,84,20260311-084008,local,local,300,H,S,E,A,E-H.png,A-S.png,hH,sS,mask-1.png,mask-1.png,s,0,0.4769416000926867,s,1,0.4104505000868812,0.048114500008523464,0.048859699978493154,0.09711089998017997,0.09977770003024489,0.29908819997217506
RSVPLG03,si,20260311-083120,1.0.2,20260219-152011,801,Experiment,Both,1,Automatic,main,85,20260311-084013,global,local,750,H,H,E,A,H-E.png,A-H.png,hH,hH,mask-3.png,mask-1.png,h,1,0.3515810000244528,h,1,0.4509029999608174,0.049806500086560845,0.051311800023540854,0.098467200063169,0.10040120000485331,0.7474456999916583
RSVPLG03,si,20260311-083120,1.0.2,20260219-152011,801,Experiment,Both,1,Automatic,main,86,20260311-084018,global,local,300,H,S,A,A,H-A.png,A-S.png,hH,sS,mask-1.png,mask-2.png,h,1,0.4468387000961229,h,0,0.3881684000371024,0.04953409999143332,0.04988289996981621,0.10169679997488856,0.10136289999354631,0.2977858000667766
RSVPLG03,si,20260311-083120,1.0.2,20260219-152011,801,Experiment,Both,1,Automatic,main,87,20260311-084022,global,local,300,H,S,E,A,H-E.png,A-S.png,hH,sS,mask-3.png,mask-1.png,h,1,0.4284373999107629,h,0,0.9069545000093058,0.050572499982081354,0.05013029999099672,0.1009433000581339,0.10036580008454621,0.2995472999755293
RSVPLG03,si,20260311-083120,1.0.2,20260219-152011,801,Experiment,Both,1,Automatic,main,88,20260311-084027,local,local,750,H,S,E,A,E-H.png,A-S.png,hH,sS,mask-4.png,mask-1.png,h,1,0.7184902000008151,h,0,0.6120379000203684,0.05145060003269464,0.050498299999162555,0.10017490002792329,0.09931479999795556,0.7496504000155255
RSVPLG03,si,20260311-083120,1.0.2,20260219-152011,801,Experiment,Both,1,Automatic,main,89,20260311-084033,local,global,750,H,H,A,E,A-H.png,H-E.png,hH,hH,mask-4.png,mask-4.png,h,1,0.3738792999647558,s,0,0.39750479999929667,0.050393100013025105,0.051616499898955226,0.09863270004279912,0.10175469995010644,0.7471953000640497
RSVPLG03,si,20260311-083120,1.0.2,20260219-152011,801,Experiment,Both,1,Automatic,main,90,20260311-084038,global,local,300,S,S,A,E,S-A.png,E-S.png,sS,sS,mask-4.png,mask-3.png,s,1,0.40690790000371635,h,0,0.5203081000363454,0.05024160002358258,0.052524899947457016,0.09934050007723272,0.10224130004644394,0.2970333000412211
RSVPLG03,si,20260311-083120,1.0.2,20260219-152011,801,Experiment,Both,1,Automatic,main,91,20260311-084042,global,local,750,H,S,E,E,H-E.png,E-S.png,hH,sS,mask-2.png,mask-4.png,h,1,0.3503930999431759,s,1,0.45107320009265095,0.05119699996430427,0.04815609997604042,0.09903229994233698,0.09979080001357943,0.7482681999681517
RSVPLG03,si,20260311-083120,1.0.2,20260219-152011,801,Experiment,Both,1,Automatic,main,92,20260311-084047,local,local,300,S,S,E,A,E-S.png,A-S.png,sS,sS,mask-3.png,mask-2.png,s,1,1.4887721000704914,s,1,0.613171299919486,0.049997300026007,0.047838900005444884,0.10002120002172887,0.10007120005320758,0.2993628999684006
RSVPLG03,si,20260311-083120,1.0.2,20260219-152011,801,Experiment,Both,1,Automatic,main,93,20260311-084053,global,global,750,H,S,E,E,H-E.png,S-E.png,hH,sS,mask-4.png,mask-4.png,h,1,0.4038329999893904,s,1,0.35452819999773055,0.04942320007830858,0.049269899958744645,0.10031850007362664,0.0994640999706462,0.7461249000625685
RSVPLG03,si,20260311-083120,1.0.2,20260219-152011,801,Experiment,Both,1,Automatic,main,94,20260311-084058,local,local,750,S,H,E,A,E-S.png,A-H.png,sS,hH,mask-3.png,mask-2.png,s,1,0.48163430008571595,h,1,1.173951999982819,0.04962299996986985,0.05063419998623431,0.10029259999282658,0.10009670001454651,0.7477062999969348
RSVPLG03,si,20260311-083120,1.0.2,20260219-152011,801,Experiment,Both,1,Automatic,main,95,20260311-084104,local,global,300,H,S,A,A,A-H.png,S-A.png,hH,sS,mask-1.png,mask-3.png,h,1,0.48056670010555536,s,1,0.3385394000215456,0.050076200044713914,0.05114009999670088,0.10068519995547831,0.10089309990871698,0.29779980005696416
RSVPLG03,si,20260311-083120,1.0.2,20260219-152011,801,Experiment,Both,1,Automatic,main,96,20260311-084108,global,local,300,H,H,E,E,H-E.png,E-H.png,hH,hH,mask-1.png,mask-3.png,h,1,0.3951670000096783,s,0,0.29411789996083826,0.048425800050608814,0.0488801000174135,0.09826320002321154,0.0990548999980092,0.29882699996232986
RSVPLG03,si,20260311-083120,1.0.2,20260219-152011,801,Experiment,Both,1,Automatic,main,97,20260311-084112,local,global,750,S,H,E,E,E-S.png,H-E.png,sS,hH,mask-1.png,mask-3.png,s,1,0.4064606000902131,h,1,0.26653619995340705,0.04991679999511689,0.050212400034070015,0.10080849996302277,0.09988900006283075,0.74715249997098
RSVPLG03,si,20260311-083120,1.0.2,20260219-152011,801,Experiment,Both,1,Automatic,main,98,20260311-084117,local,global,750,H,H,A,A,A-H.png,H-A.png,hH,hH,mask-1.png,mask-3.png,h,1,0.4520990999881178,h,1,0.7053461000323296,0.04897759994491935,0.051919200108386576,0.09787199995480478,0.10034460003953427,0.7463218999328092
RSVPLG03,si,20260311-083120,1.0.2,20260219-152011,801,Experiment,Both,1,Automatic,main,99,20260311-084123,local,local,300,S,H,A,A,A-S.png,A-H.png,sS,hH,mask-4.png,mask-1.png,h,0,1.1289144000038505,s,0,0.2614287999458611,0.04934329993557185,0.050939900102093816,0.09923289995640516,0.10015790001489222,0.29638829990290105
RSVPLG03,si,20260311-083120,1.0.2,20260219-152011,801,Experiment,Both,1,Automatic,main,100,20260311-084128,local,global,750,S,H,E,E,E-S.png,H-E.png,sS,hH,mask-1.png,mask-2.png,s,1,0.35124839993659407,h,1,0.2893558999057859,0.049185700016096234,0.04921640001703054,0.10001689998898655,0.09885120007675141,0.747469799942337
