exp,exp_initials,runtime,ver,modtime,sub,blocktype,targets,cuetype,mode,trialtype,trial,trialtime,t1_level,t2_level,t2_lag,t1,t2,distractor1,distractor2,stimfile1,stimfile2,t1_corr,t2_corr,maskfile1,maskfile2,t1_resp,t1_acc,t1_rt,t2_resp,t2_acc,t2_rt,t1_dur,t2_dur,t1mask_soa,t2mask_soa,t1t2_soa
RSVPLG03,cs,20260424-101836,1.0.2,20251105-084826,830,Introduction,T1,1,Automatic,main,1,20260424-101904,local,global,750,H,S,E,E,E-H.png,S-E.png,hH,sS,mask-4.png,mask-2.png,h,1,2.6911725997924805,none,-5,0,0.09050630033016205,0.09948030021041632,0.1945434003137052,0.20225080009549856,0.744684100151062
RSVPLG03,cs,20260424-101836,1.0.2,20251105-084826,830,Introduction,T1,1,Automatic,main,2,20260424-101911,local,global,750,S,H,A,E,A-S.png,H-E.png,sS,hH,mask-4.png,mask-2.png,s,1,1.609729599673301,none,-5,0,0.09736720006912947,0.0973853999748826,0.199148700106889,0.20069510024040937,0.7514713001437485
RSVPLG03,cs,20260424-101836,1.0.2,20251105-084826,830,Introduction,T1,1,Automatic,main,3,20260424-101916,local,global,750,S,S,A,A,A-S.png,S-A.png,sS,sS,mask-1.png,mask-2.png,s,1,1.649380300194025,none,-5,0,0.0973674999549985,0.09947089990600944,0.20021009957417846,0.20230269990861416,0.7513492000289261
RSVPLG03,cs,20260424-101836,1.0.2,20251105-084826,830,Introduction,T1,1,Automatic,main,4,20260424-101922,local,local,750,H,S,E,A,E-H.png,A-S.png,hH,sS,mask-4.png,mask-1.png,h,1,1.8534369003027678,none,-5,0,0.09736440004780889,0.09717920003458858,0.20029910001903772,0.20003379974514246,0.7522817002609372
RSVPLG03,cs,20260424-101836,1.0.2,20251105-084826,830,Introduction,T1,1,Automatic,main,5,20260424-101928,local,global,750,S,S,A,E,A-S.png,S-E.png,sS,sS,mask-2.png,mask-3.png,s,1,1.3772142003290355,none,-5,0,0.09736130014061928,0.09920010017231107,0.20125050004571676,0.20047420030459762,0.7520904000848532
RSVPLG03,cs,20260424-101836,1.0.2,20251105-084826,830,Introduction,T1,1,Automatic,main,6,20260424-101934,local,local,750,S,H,E,A,E-S.png,A-H.png,sS,hH,mask-4.png,mask-2.png,h,0,1.933568200096488,none,-5,0,0.09739230014383793,0.09840529970824718,0.20030830008909106,0.20126849971711636,0.7510387003421783
RSVPLG03,cs,20260424-101836,1.0.2,20251105-084826,830,Introduction,T1,1,Automatic,main,7,20260424-101940,global,local,750,H,H,E,A,H-E.png,A-H.png,hH,hH,mask-3.png,mask-2.png,h,1,0.7690302999690175,none,-5,0,0.09670920018106699,0.09744650032371283,0.19986899988725781,0.20034580025821924,0.753362599760294
RSVPLG03,cs,20260424-101836,1.0.2,20251105-084826,830,Introduction,T1,1,Automatic,main,8,20260424-101945,global,local,750,S,H,E,A,S-E.png,A-H.png,sS,hH,mask-1.png,mask-2.png,none,-6,0,none,-5,0,0.0974236000329256,0.0995295001193881,0.20154020003974438,0.2013701000250876,0.7517552999779582
RSVPLG03,cs,20260424-101956,1.0.2,20251105-084826,830,Practice,T1,1,Automatic,main,1,20260424-102021,global,global,300,S,H,A,A,S-A.png,H-A.png,sS,hH,mask-1.png,mask-2.png,s,1,1.063940899912268,none,-5,0,0.04631130024790764,0.04759910004213452,0.1004343000240624,0.09959340002387762,0.300893799867481
RSVPLG03,cs,20260424-101956,1.0.2,20251105-084826,830,Practice,T1,1,Automatic,main,2,20260424-102025,global,global,750,H,H,E,A,H-E.png,H-A.png,hH,hH,mask-3.png,mask-1.png,h,1,0.5786494999192655,none,-5,0,0.04690170008689165,0.04770209966227412,0.10009469976648688,0.10089579969644547,0.7513826000504196
RSVPLG03,cs,20260424-101956,1.0.2,20251105-084826,830,Practice,T1,1,Automatic,main,3,20260424-102030,local,global,300,S,H,A,A,A-S.png,H-A.png,sS,hH,mask-1.png,mask-1.png,h,0,1.8560238000936806,none,-5,0,0.04838950000703335,0.0475917998701334,0.09944560006260872,0.10154699999839067,0.2998198000714183
RSVPLG03,cs,20260424-101956,1.0.2,20251105-084826,830,Practice,T1,1,Automatic,main,4,20260424-102035,global,local,300,H,S,A,E,H-A.png,E-S.png,hH,sS,mask-4.png,mask-1.png,s,0,0.6227850997820497,none,-5,0,0.04833150003105402,0.04945069970563054,0.10026550013571978,0.10033119982108474,0.2998927002772689
RSVPLG03,cs,20260424-101956,1.0.2,20251105-084826,830,Practice,T1,1,Automatic,main,5,20260424-102040,local,local,300,H,S,E,E,E-H.png,E-S.png,hH,sS,mask-3.png,mask-4.png,h,1,0.948552000336349,none,-5,0,0.046542900148779154,0.04742150008678436,0.10057920031249523,0.09950100025162101,0.30017830012366176
RSVPLG03,cs,20260424-101956,1.0.2,20251105-084826,830,Practice,T1,1,Automatic,main,6,20260424-102044,global,global,300,S,S,A,E,S-A.png,S-E.png,sS,sS,mask-3.png,mask-3.png,s,1,0.8714037998579443,none,-5,0,0.04752420028671622,0.047520500142127275,0.0988459000363946,0.10054480005055666,0.2992218001745641
RSVPLG03,cs,20260424-101956,1.0.2,20251105-084826,830,Practice,T1,1,Automatic,main,7,20260424-102049,local,global,750,H,H,E,E,E-H.png,H-E.png,hH,hH,mask-3.png,mask-3.png,s,0,1.5837409999221563,none,-5,0,0.04752250015735626,0.04672580026090145,0.10156199987977743,0.09918550029397011,0.7516482998616993
RSVPLG03,cs,20260424-101956,1.0.2,20251105-084826,830,Practice,T1,1,Automatic,main,8,20260424-102054,global,local,750,S,H,A,E,S-A.png,E-H.png,sS,hH,mask-3.png,mask-4.png,s,1,0.7104722000658512,none,-5,0,0.04753010021522641,0.04958789981901646,0.09952010028064251,0.10165320010855794,0.7498107003048062
RSVPLG03,cs,20260424-101956,1.0.2,20251105-084826,830,Practice,T1,1,Automatic,main,9,20260424-102059,local,global,750,S,H,A,A,A-S.png,H-A.png,sS,hH,mask-4.png,mask-1.png,h,0,0.5140645001083612,none,-5,0,0.047821199987083673,0.04750460013747215,0.099526799749583,0.10154830012470484,0.7499506999738514
RSVPLG03,cs,20260424-101956,1.0.2,20251105-084826,830,Practice,T1,1,Automatic,main,10,20260424-102103,global,global,750,S,H,A,E,S-A.png,H-E.png,sS,hH,mask-3.png,mask-2.png,s,1,0.7717349999584258,none,-5,0,0.04770360002294183,0.047424300108104944,0.09981859987601638,0.10027540009468794,0.7508429996669292
RSVPLG03,cs,20260424-101956,1.0.2,20251105-084826,830,Practice,T1,1,Automatic,main,11,20260424-102108,local,local,300,H,H,E,E,E-H.png,E-H.png,hH,hH,mask-2.png,mask-4.png,h,1,1.5624986998736858,none,-5,0,0.048701600171625614,0.04670679988339543,0.09988670004531741,0.09893570002168417,0.3019265001639724
RSVPLG03,cs,20260424-101956,1.0.2,20251105-084826,830,Practice,T1,1,Automatic,main,12,20260424-102113,global,local,750,S,H,E,A,S-E.png,A-H.png,sS,hH,mask-3.png,mask-4.png,h,0,1.1592379999347031,none,-5,0,0.04751699976623058,0.047534599900245667,0.09935419959947467,0.10136209987103939,0.7508891997858882
RSVPLG03,cs,20260424-101956,1.0.2,20251105-084826,830,Practice,T1,1,Automatic,main,13,20260424-102118,local,global,300,S,H,A,E,A-S.png,H-E.png,sS,hH,mask-1.png,mask-4.png,s,1,0.6538895997218788,none,-5,0,0.04765959968790412,0.04755270015448332,0.09926169971004128,0.10154590010643005,0.2998341997154057
RSVPLG03,cs,20260424-101956,1.0.2,20251105-084826,830,Practice,T1,1,Automatic,main,14,20260424-102123,local,local,750,S,H,E,A,E-S.png,A-H.png,sS,hH,mask-4.png,mask-3.png,h,0,1.2587628001347184,none,-5,0,0.048520300071686506,0.04734999965876341,0.10054640006273985,0.10055439965799451,0.7523893001489341
RSVPLG03,cs,20260424-101956,1.0.2,20251105-084826,830,Practice,T1,1,Automatic,main,15,20260424-102128,global,local,300,H,H,A,A,H-A.png,A-H.png,hH,hH,mask-2.png,mask-2.png,h,1,0.5464116004295647,none,-5,0,0.047677400056272745,0.047680800314992666,0.09987809974700212,0.09987140027806163,0.3003407996147871
RSVPLG03,cs,20260424-101956,1.0.2,20251105-084826,830,Practice,T1,1,Automatic,main,16,20260424-102132,local,local,750,H,H,E,A,E-H.png,A-H.png,hH,hH,mask-1.png,mask-2.png,s,0,0.7467406997457147,none,-5,0,0.04752109991386533,0.048596400301903486,0.09952920023351908,0.10162580013275146,0.7507255999371409
RSVPLG03,cs,20260424-102150,1.0.2,20251105-084826,830,Practice,T1,1,Automatic,main,1,20260424-102208,global,global,750,H,H,E,E,H-E.png,H-E.png,hH,hH,mask-4.png,mask-4.png,h,1,0.5063147000037134,none,-5,0,0.047159899957478046,0.048724399879574776,0.10041130008175969,0.100902299862355,0.7496278998441994
RSVPLG03,cs,20260424-102150,1.0.2,20251105-084826,830,Practice,T1,1,Automatic,main,2,20260424-102212,global,global,300,H,S,E,E,H-E.png,S-E.png,hH,sS,mask-3.png,mask-4.png,h,1,0.7719231997616589,none,-5,0,0.04683370003476739,0.04852959979325533,0.09890480013564229,0.09964369982481003,0.2992955003865063
RSVPLG03,cs,20260424-102150,1.0.2,20251105-084826,830,Practice,T1,1,Automatic,main,3,20260424-102217,local,global,300,S,S,A,E,A-S.png,S-E.png,sS,sS,mask-2.png,mask-2.png,s,1,1.239725900348276,none,-5,0,0.04870079969987273,0.04672030033543706,0.10091859987005591,0.10002380004152656,0.30055859964340925
RSVPLG03,cs,20260424-102150,1.0.2,20251105-084826,830,Practice,T1,1,Automatic,main,4,20260424-102221,global,global,300,H,S,E,A,H-E.png,S-A.png,hH,sS,mask-1.png,mask-1.png,h,1,0.4784504002891481,none,-5,0,0.04709390038624406,0.04769719997420907,0.1012419001199305,0.09991970006376505,0.30092750024050474
RSVPLG03,cs,20260424-102150,1.0.2,20251105-084826,830,Practice,T1,1,Automatic,main,5,20260424-102225,local,local,750,H,S,A,E,A-H.png,E-S.png,hH,sS,mask-2.png,mask-1.png,h,1,0.5947994999587536,none,-5,0,0.046672199852764606,0.04724450036883354,0.09984599985182285,0.10050450032576919,0.7487527998164296
RSVPLG03,cs,20260424-102150,1.0.2,20251105-084826,830,Practice,T1,1,Automatic,main,6,20260424-102230,global,local,750,S,H,E,E,S-E.png,E-H.png,sS,hH,mask-2.png,mask-1.png,s,1,0.5363245001062751,none,-5,0,0.04768209997564554,0.047672000247985125,0.098811199888587,0.09991200035437942,0.7483297996222973
RSVPLG03,cs,20260424-102150,1.0.2,20251105-084826,830,Practice,T1,1,Automatic,main,7,20260424-102235,global,global,750,S,S,A,A,S-A.png,S-A.png,sS,sS,mask-1.png,mask-4.png,s,1,0.5375879998318851,none,-5,0,0.04751570010557771,0.04752890020608902,0.10154050029814243,0.0985381999053061,0.7514828001148999
RSVPLG03,cs,20260424-102150,1.0.2,20251105-084826,830,Practice,T1,1,Automatic,main,8,20260424-102239,local,local,750,H,S,E,E,E-H.png,E-S.png,hH,sS,mask-2.png,mask-2.png,s,0,0.9497079998254776,none,-5,0,0.048539099749177694,0.04753789957612753,0.09896179987117648,0.09883739985525608,0.7505271001718938
RSVPLG03,cs,20260424-102150,1.0.2,20251105-084826,830,Practice,T1,1,Automatic,main,9,20260424-102244,local,local,300,H,H,E,E,E-H.png,E-H.png,hH,hH,mask-4.png,mask-1.png,s,0,0.5317568001337349,none,-5,0,0.04766630008816719,0.0475637000054121,0.09973330004140735,0.09929620008915663,0.30131280003115535
RSVPLG03,cs,20260424-102150,1.0.2,20251105-084826,830,Practice,T1,1,Automatic,main,10,20260424-102248,local,global,750,S,S,A,A,A-S.png,S-A.png,sS,sS,mask-1.png,mask-3.png,s,1,0.7259515998885036,none,-5,0,0.04653839999809861,0.04672549990937114,0.09956130012869835,0.10181359993293881,0.7481855000369251
RSVPLG03,cs,20260424-102150,1.0.2,20251105-084826,830,Practice,T1,1,Automatic,main,11,20260424-102253,global,local,750,S,H,A,E,S-A.png,E-H.png,sS,hH,mask-4.png,mask-4.png,s,1,0.8455595001578331,none,-5,0,0.04755369992926717,0.048587899655103683,0.09858760004863143,0.1006199000403285,0.7486268002539873
RSVPLG03,cs,20260424-102150,1.0.2,20251105-084826,830,Practice,T1,1,Automatic,main,12,20260424-102258,local,local,300,S,S,E,A,E-S.png,A-S.png,sS,sS,mask-2.png,mask-1.png,h,0,2.2125103999860585,none,-5,0,0.04707770003005862,0.047945600003004074,0.09997709980234504,0.10035010008141398,0.29965429985895753
RSVPLG03,cs,20260424-102150,1.0.2,20251105-084826,830,Practice,T1,1,Automatic,main,13,20260424-102303,global,local,300,H,H,A,A,H-A.png,A-H.png,hH,hH,mask-1.png,mask-3.png,s,0,0.5486228000372648,none,-5,0,0.04768730001524091,0.0481798998080194,0.09990129992365837,0.10136070009320974,0.29867020016536117
RSVPLG03,cs,20260424-102150,1.0.2,20251105-084826,830,Practice,T1,1,Automatic,main,14,20260424-102307,global,local,300,H,S,E,E,H-E.png,E-S.png,hH,sS,mask-3.png,mask-3.png,h,1,0.4256553999148309,none,-5,0,0.04787660017609596,0.04740059981122613,0.09966129995882511,0.10027919989079237,0.29980160016566515
RSVPLG03,cs,20260424-102150,1.0.2,20251105-084826,830,Practice,T1,1,Automatic,main,15,20260424-102311,local,global,300,S,H,E,A,E-S.png,H-A.png,sS,hH,mask-4.png,mask-1.png,s,1,0.3793814000673592,none,-5,0,0.04760450031608343,0.049070900306105614,0.09971800027415156,0.1001094002276659,0.29819029988721013
RSVPLG03,cs,20260424-102150,1.0.2,20251105-084826,830,Practice,T1,1,Automatic,main,16,20260424-102315,local,global,750,H,H,A,A,A-H.png,H-A.png,hH,hH,mask-3.png,mask-3.png,h,1,0.36766589991748333,none,-5,0,0.047693599946796894,0.04678640002384782,0.10195389995351434,0.09998880000784993,0.7506683003157377
RSVPLG03,cs,20260424-102333,1.0.2,20251105-084826,830,Practice,T1,1,Automatic,main,1,20260424-102348,global,global,750,H,S,A,E,H-A.png,S-E.png,hH,sS,mask-1.png,mask-1.png,h,1,0.37148380000144243,none,-5,0,0.0403205999173224,0.047691499814391136,0.09308269992470741,0.09989620000123978,0.747607700061053
RSVPLG03,cs,20260424-102333,1.0.2,20251105-084826,830,Practice,T1,1,Automatic,main,2,20260424-102352,global,local,300,H,S,E,A,H-E.png,A-S.png,hH,sS,mask-2.png,mask-2.png,h,1,0.3321164003573358,none,-5,0,0.046711599919945,0.04769650008529425,0.10009320033714175,0.09990580007433891,0.3002635999582708
RSVPLG03,cs,20260424-102333,1.0.2,20251105-084826,830,Practice,T1,1,Automatic,main,3,20260424-102356,local,global,300,H,H,E,A,E-H.png,H-A.png,hH,hH,mask-3.png,mask-1.png,h,1,0.39465529983863235,none,-5,0,0.047660599928349257,0.04769180016592145,0.0998602001927793,0.0998840001411736,0.30148130003362894
RSVPLG03,cs,20260424-102333,1.0.2,20251105-084826,830,Practice,T1,1,Automatic,main,4,20260424-102400,global,local,750,H,S,A,E,H-A.png,E-S.png,hH,sS,mask-1.png,mask-3.png,h,1,0.41667830012738705,none,-5,0,0.04768700012937188,0.04868049966171384,0.09971900004893541,0.10086689982563257,0.7515592002309859
RSVPLG03,cs,20260424-102333,1.0.2,20251105-084826,830,Practice,T1,1,Automatic,main,5,20260424-102405,local,local,300,S,S,A,E,A-S.png,E-S.png,sS,sS,mask-3.png,mask-4.png,h,0,0.36931189987808466,none,-5,0,0.04767700005322695,0.047694599721580744,0.099876600317657,0.09990220004692674,0.3024034001864493
RSVPLG03,cs,20260424-102333,1.0.2,20251105-084826,830,Practice,T1,1,Automatic,main,6,20260424-102409,local,global,300,S,S,A,A,A-S.png,S-A.png,sS,sS,mask-1.png,mask-2.png,h,0,0.4457586002536118,none,-5,0,0.04652639990672469,0.047762599773705006,0.09854280017316341,0.09998690010979772,0.2999076000414789
RSVPLG03,cs,20260424-102333,1.0.2,20251105-084826,830,Practice,T1,1,Automatic,main,7,20260424-102412,local,global,750,H,H,A,E,A-H.png,H-E.png,hH,hH,mask-1.png,mask-1.png,h,1,0.4061669004149735,none,-5,0,0.047647000290453434,0.04772310005500913,0.10086499992758036,0.10191910015419126,0.7527922000735998
RSVPLG03,cs,20260424-102333,1.0.2,20251105-084826,830,Practice,T1,1,Automatic,main,8,20260424-102417,global,local,750,H,H,A,E,H-A.png,E-H.png,hH,hH,mask-3.png,mask-4.png,h,1,0.8624503999017179,none,-5,0,0.04768550023436546,0.04768959991633892,0.09977540001273155,0.1010644999332726,0.7519303001463413
RSVPLG03,cs,20260424-102333,1.0.2,20251105-084826,830,Practice,T1,1,Automatic,main,9,20260424-102422,global,global,300,H,S,E,E,H-E.png,S-E.png,hH,sS,mask-1.png,mask-2.png,h,1,0.7819727999158204,none,-5,0,0.047601399943232536,0.0485211000777781,0.09963630000129342,0.10052530001848936,0.3015236002393067
RSVPLG03,cs,20260424-102333,1.0.2,20251105-084826,830,Practice,T1,1,Automatic,main,10,20260424-102426,local,local,750,S,S,A,A,A-S.png,A-S.png,sS,sS,mask-3.png,mask-1.png,s,1,0.7707545999437571,none,-5,0,0.04774279985576868,0.04768249997869134,0.10096079995855689,0.10086850030347705,0.7524120998568833
RSVPLG03,cs,20260424-102333,1.0.2,20251105-084826,830,Practice,T1,1,Automatic,main,11,20260424-102431,local,global,750,S,H,E,A,E-S.png,H-A.png,sS,hH,mask-1.png,mask-4.png,h,0,0.7628062996082008,none,-5,0,0.046542299911379814,0.04642820032313466,0.10072800004854798,0.09906810009852052,0.7519689998589456
RSVPLG03,cs,20260424-102333,1.0.2,20251105-084826,830,Practice,T1,1,Automatic,main,12,20260424-102436,global,global,300,S,H,A,E,S-A.png,H-E.png,sS,hH,mask-1.png,mask-1.png,h,0,0.38543220004066825,none,-5,0,0.0475399000570178,0.04759210022166371,0.10156630026176572,0.09960040031000972,0.3022723998874426
RSVPLG03,cs,20260424-102333,1.0.2,20251105-084826,830,Practice,T1,1,Automatic,main,13,20260424-102439,global,local,300,H,H,A,A,H-A.png,A-H.png,hH,hH,mask-1.png,mask-1.png,h,1,0.3651971002109349,none,-5,0,0.048781999852508307,0.04769179970026016,0.10097729973495007,0.09991459967568517,0.3025925001129508
RSVPLG03,cs,20260424-102333,1.0.2,20251105-084826,830,Practice,T1,1,Automatic,main,14,20260424-102443,global,global,750,S,S,A,E,S-A.png,S-E.png,sS,sS,mask-1.png,mask-3.png,h,0,0.4201654000207782,none,-5,0,0.04754339996725321,0.046624400187283754,0.09961969964206219,0.0994780003093183,0.7530744997784495
RSVPLG03,cs,20260424-102333,1.0.2,20251105-084826,830,Practice,T1,1,Automatic,main,15,20260424-102448,local,local,300,H,S,A,A,A-H.png,A-S.png,hH,sS,mask-2.png,mask-3.png,h,1,0.3548055002465844,none,-5,0,0.04885679995641112,0.04882530029863119,0.10105790011584759,0.10101890005171299,0.3019497999921441
RSVPLG03,cs,20260424-102333,1.0.2,20251105-084826,830,Practice,T1,1,Automatic,main,16,20260424-102452,local,local,750,H,H,A,E,A-H.png,E-H.png,hH,hH,mask-1.png,mask-3.png,h,1,0.7668178002350032,none,-5,0,0.04868949996307492,0.04742459999397397,0.09977980004623532,0.10046460013836622,0.753349700011313
RSVPLG03,cs,20260424-102518,1.0.2,20251105-084826,830,Practice,Both,1,Automatic,main,1,20260424-102542,local,global,750,S,S,E,E,E-S.png,S-E.png,sS,sS,mask-1.png,mask-3.png,s,1,1.4337964002043009,h,0,0.08959180023521185,0.047130600083619356,0.04767060000449419,0.09979660017415881,0.10093079973012209,0.7502347002737224
RSVPLG03,cs,20260424-102518,1.0.2,20251105-084826,830,Practice,Both,1,Automatic,main,2,20260424-102547,global,global,300,H,S,E,E,H-E.png,S-E.png,hH,sS,mask-1.png,mask-4.png,h,1,2.186549199745059,s,1,1.771061200182885,0.046703000087291,0.04766370030120015,0.09990760032087564,0.10077780019491911,0.30061660008504987
RSVPLG03,cs,20260424-102518,1.0.2,20251105-084826,830,Practice,Both,1,Automatic,main,3,20260424-102555,global,local,300,H,S,E,E,H-E.png,E-S.png,hH,sS,mask-4.png,mask-2.png,s,0,6.585904800333083,h,0,0.491516400128603,0.04567050002515316,0.04692120011895895,0.09852859983220696,0.10014980006963015,0.3001589998602867
RSVPLG03,cs,20260424-102518,1.0.2,20251105-084826,830,Practice,Both,1,Automatic,main,4,20260424-102606,local,local,300,H,S,A,A,A-H.png,A-S.png,hH,sS,mask-2.png,mask-2.png,h,1,1.528569399844855,s,1,0.6501055001281202,0.04751349985599518,0.046535699628293514,0.10172830009832978,0.100566899869591,0.3017732002772391
RSVPLG03,cs,20260424-102518,1.0.2,20251105-084826,830,Practice,Both,1,Automatic,main,5,20260424-102611,global,local,750,H,S,E,E,H-E.png,E-S.png,hH,sS,mask-4.png,mask-2.png,h,1,1.4133941000327468,s,1,0.4042130997404456,0.04672570014372468,0.04676799988374114,0.10103120002895594,0.09995259996503592,0.7517945999279618
RSVPLG03,cs,20260424-102518,1.0.2,20251105-084826,830,Practice,Both,1,Automatic,main,6,20260424-102617,global,global,300,H,S,E,A,H-E.png,S-A.png,hH,sS,mask-3.png,mask-3.png,h,1,1.0350056001916528,s,1,0.4234143001958728,0.047741600312292576,0.047713699750602245,0.09922070009633899,0.09994099987670779,0.30010890029370785
RSVPLG03,cs,20260424-102518,1.0.2,20251105-084826,830,Practice,Both,1,Automatic,main,7,20260424-102622,global,local,300,S,S,E,E,S-E.png,E-S.png,sS,sS,mask-4.png,mask-3.png,s,1,0.9463972998782992,h,0,0.33181839995086193,0.045696299988776445,0.047698100097477436,0.09994430001825094,0.0999432997778058,0.29957929998636246
RSVPLG03,cs,20260424-102518,1.0.2,20251105-084826,830,Practice,Both,1,Automatic,main,8,20260424-102627,local,local,750,S,S,A,E,A-S.png,E-S.png,sS,sS,mask-2.png,mask-2.png,s,1,1.0501710996031761,h,0,0.27385579980909824,0.04768260009586811,0.04777010018005967,0.09991820016875863,0.09929129993543029,0.7525369999930263
RSVPLG03,cs,20260424-102518,1.0.2,20251105-084826,830,Practice,Both,1,Automatic,main,9,20260424-102633,local,global,750,H,S,A,A,A-H.png,S-A.png,hH,sS,mask-3.png,mask-4.png,h,1,0.6536522000096738,s,1,0.2790353000164032,0.048152100294828415,0.04764349991455674,0.1002997001633048,0.10138770006597042,0.7522277999669313
RSVPLG03,cs,20260424-102518,1.0.2,20251105-084826,830,Practice,Both,1,Automatic,main,10,20260424-102638,global,global,750,H,H,E,E,H-E.png,H-E.png,hH,hH,mask-2.png,mask-1.png,h,1,0.6454270998947322,h,1,0.33288650028407574,0.0475360001437366,0.04656550008803606,0.10054200002923608,0.09963450022041798,0.7530237999744713
RSVPLG03,cs,20260424-102518,1.0.2,20251105-084826,830,Practice,Both,1,Automatic,main,11,20260424-102643,global,local,750,H,H,E,A,H-E.png,A-H.png,hH,hH,mask-2.png,mask-1.png,h,1,0.530634899623692,h,1,0.2798647000454366,0.04753440013155341,0.047533500008285046,0.09959840029478073,0.09960249997675419,0.7521905000321567
RSVPLG03,cs,20260424-102518,1.0.2,20251105-084826,830,Practice,Both,1,Automatic,main,12,20260424-102648,local,global,300,H,H,E,E,E-H.png,H-E.png,hH,hH,mask-3.png,mask-2.png,h,1,0.7711994000710547,h,1,0.7167563000693917,0.04738990031182766,0.048592499922961,0.1003867001272738,0.10067779989913106,0.299953100271523
RSVPLG03,cs,20260424-102518,1.0.2,20251105-084826,830,Practice,Both,1,Automatic,main,13,20260424-102653,local,global,300,S,H,E,E,E-S.png,H-E.png,sS,hH,mask-4.png,mask-4.png,s,1,0.765060099773109,h,1,0.25981010030955076,0.04767119977623224,0.04870739998295903,0.1008075000718236,0.10074009979143739,0.3011368000879884
RSVPLG03,cs,20260424-102518,1.0.2,20251105-084826,830,Practice,Both,1,Automatic,main,14,20260424-102658,global,global,750,S,H,A,E,S-A.png,H-E.png,sS,hH,mask-4.png,mask-4.png,s,1,0.5252632000483572,h,1,0.23566630017012358,0.046568399760872126,0.04859070014208555,0.09965149965137243,0.10044239973649383,0.7501381998881698
RSVPLG03,cs,20260424-102518,1.0.2,20251105-084826,830,Practice,Both,1,Automatic,main,15,20260424-102702,local,local,750,H,H,A,E,A-H.png,E-H.png,hH,hH,mask-1.png,mask-3.png,h,1,0.4193627000786364,h,1,0.2747583999298513,0.0475212000310421,0.04862859984859824,0.09954390022903681,0.10189179982990026,0.7507401001639664
RSVPLG03,cs,20260424-102518,1.0.2,20251105-084826,830,Practice,Both,1,Automatic,main,16,20260424-102707,local,local,300,S,S,E,A,E-S.png,A-S.png,sS,sS,mask-4.png,mask-2.png,s,1,1.1123522999696434,h,0,0.23146820021793246,0.047607199754565954,0.047676400281488895,0.10112739959731698,0.1000785999931395,0.3022352997213602
RSVPLG03,cs,20260424-102746,1.0.2,20251105-084826,830,Experiment,Both,1,Automatic,warmup,1,20260424-102847,global,global,300,H,H,E,E,H-E.png,H-E.png,hH,hH,mask-4.png,mask-1.png,h,1,1.1723615997470915,h,1,0.243830899707973,0.04516810039058328,0.04748169984668493,0.09659600025042892,0.10249499976634979,0.29997430043295026
RSVPLG03,cs,20260424-102746,1.0.2,20251105-084826,830,Experiment,Both,1,Automatic,warmup,2,20260424-102852,global,local,300,S,S,A,A,S-A.png,A-S.png,sS,sS,mask-3.png,mask-3.png,s,1,0.4842205997556448,h,0,0.22303969971835613,0.04772210028022528,0.04767229966819286,0.10194010008126497,0.10190449981018901,0.3036430003121495
RSVPLG03,cs,20260424-102746,1.0.2,20251105-084826,830,Experiment,Both,1,Automatic,warmup,3,20260424-102857,local,global,300,H,H,E,E,E-H.png,H-E.png,hH,hH,mask-1.png,mask-3.png,h,1,0.5817192001268268,h,1,0.20551239978522062,0.047514500096440315,0.04752290016040206,0.1015344001352787,0.10254610003903508,0.30376419983804226
RSVPLG03,cs,20260424-102746,1.0.2,20251105-084826,830,Experiment,Both,1,Automatic,warmup,4,20260424-102901,global,global,750,H,S,E,A,H-E.png,S-A.png,hH,sS,mask-4.png,mask-2.png,h,1,0.506682800129056,s,1,0.14634419977664948,0.04868709994480014,0.04960989998653531,0.10091019980609417,0.1017785002477467,0.7415807996876538
RSVPLG03,cs,20260424-102746,1.0.2,20251105-084826,830,Experiment,Both,1,Automatic,main,5,20260424-102906,local,global,300,H,H,E,A,E-H.png,H-A.png,hH,hH,mask-2.png,mask-3.png,h,1,0.6901925997808576,h,1,0.20141540002077818,0.048823700286448,0.0478261997923255,0.1019820999354124,0.1010457999072969,0.30295700021088123
RSVPLG03,cs,20260424-102746,1.0.2,20251105-084826,830,Experiment,Both,1,Automatic,main,6,20260424-102910,local,local,750,S,S,E,A,E-S.png,A-S.png,sS,sS,mask-1.png,mask-3.png,s,1,0.4417762001976371,s,1,0.19248700002208352,0.048673300072550774,0.047694799955934286,0.10186190018430352,0.10093719977885485,0.7422930002212524
RSVPLG03,cs,20260424-102746,1.0.2,20251105-084826,830,Experiment,Both,1,Automatic,main,7,20260424-102915,global,global,750,S,H,E,E,S-E.png,H-E.png,sS,hH,mask-1.png,mask-2.png,s,1,0.412570099812001,h,1,0.19694829965010285,0.04750820016488433,0.049532999750226736,0.10252249985933304,0.10159089975059032,0.7417390001937747
RSVPLG03,cs,20260424-102746,1.0.2,20251105-084826,830,Experiment,Both,1,Automatic,main,8,20260424-102920,global,global,300,H,S,A,A,H-A.png,S-A.png,hH,sS,mask-2.png,mask-1.png,h,1,0.5020066001452506,h,0,0.119724300224334,0.047626900020986795,0.046518499962985516,0.09910240024328232,0.10142949968576431,0.3037281003780663
RSVPLG03,cs,20260424-102746,1.0.2,20251105-084826,830,Experiment,Both,1,Automatic,main,9,20260424-102924,global,local,300,H,H,E,E,H-E.png,E-H.png,hH,hH,mask-2.png,mask-1.png,h,1,0.6824382999911904,h,1,0.25967409973964095,0.0475878999568522,0.04857959970831871,0.10062270006164908,0.10258900001645088,0.30349660012871027
RSVPLG03,cs,20260424-102746,1.0.2,20251105-084826,830,Experiment,Both,1,Automatic,main,10,20260424-102929,local,global,750,H,S,E,E,E-H.png,S-E.png,hH,sS,mask-2.png,mask-1.png,h,1,0.46542049990966916,s,1,0.19424890028312802,0.04949739994481206,0.04943350004032254,0.10132100014016032,0.10146480007097125,0.741928800009191
RSVPLG03,cs,20260424-102746,1.0.2,20251105-084826,830,Experiment,Both,1,Automatic,main,11,20260424-102934,local,global,750,H,S,A,A,A-H.png,S-A.png,hH,sS,mask-1.png,mask-2.png,h,1,0.37452790001407266,s,1,0.15097690001130104,0.04654530016705394,0.04883280023932457,0.10107490001246333,0.10094889998435974,0.7411385998129845
RSVPLG03,cs,20260424-102746,1.0.2,20251105-084826,830,Experiment,Both,1,Automatic,main,12,20260424-102938,global,global,750,H,S,E,A,H-E.png,S-A.png,hH,sS,mask-3.png,mask-4.png,h,1,0.4615033003501594,s,1,0.1687984000891447,0.04766779998317361,0.0475360001437366,0.1016369997523725,0.10063049988821149,0.7419822998344898
RSVPLG03,cs,20260424-102746,1.0.2,20251105-084826,830,Experiment,Both,1,Automatic,main,13,20260424-102943,local,local,300,S,H,A,E,A-S.png,E-H.png,sS,hH,mask-4.png,mask-3.png,s,1,0.5457069999538362,h,1,0.1548990998417139,0.04870139993727207,0.04853509971871972,0.10176829993724823,0.10058389976620674,0.30406130012124777
RSVPLG03,cs,20260424-102746,1.0.2,20251105-084826,830,Experiment,Both,1,Automatic,main,14,20260424-102947,global,global,750,S,S,A,E,S-A.png,S-E.png,sS,sS,mask-4.png,mask-1.png,s,1,0.4376013004221022,s,1,0.15689139999449253,0.04754530033096671,0.047610700130462646,0.1007400001399219,0.10183369973674417,0.7422970002517104
RSVPLG03,cs,20260424-102746,1.0.2,20251105-084826,830,Experiment,Both,1,Automatic,main,15,20260424-102952,local,global,750,S,S,A,E,A-S.png,S-E.png,sS,sS,mask-3.png,mask-2.png,h,0,0.4496456999331713,s,1,0.135183600243181,0.047697899863123894,0.0477122999727726,0.09989439975470304,0.10093860002234578,0.7410391997545958
RSVPLG03,cs,20260424-102746,1.0.2,20251105-084826,830,Experiment,Both,1,Automatic,main,16,20260424-102957,local,local,300,H,H,A,A,A-H.png,A-H.png,hH,hH,mask-1.png,mask-3.png,h,1,0.5453054998070002,h,1,0.5694665997289121,0.04754139995202422,0.04950019996613264,0.10043939994648099,0.10252529988065362,0.3034928999841213
RSVPLG03,cs,20260424-102746,1.0.2,20251105-084826,830,Experiment,Both,1,Automatic,main,17,20260424-103001,local,local,300,H,S,E,A,E-H.png,A-S.png,hH,sS,mask-2.png,mask-2.png,h,1,0.6046132002957165,h,0,0.9366264999844134,0.04857640014961362,0.04788379976525903,0.10060149990022182,0.10071379970759153,0.3045362001284957
RSVPLG03,cs,20260424-102746,1.0.2,20251105-084826,830,Experiment,Both,1,Automatic,main,18,20260424-103006,global,global,300,H,S,E,E,H-E.png,S-E.png,hH,sS,mask-3.png,mask-4.png,h,1,0.4629306001588702,s,1,0.12447400018572807,0.04951699962839484,0.04951100004836917,0.10156179964542389,0.10155330039560795,0.30384069960564375
RSVPLG03,cs,20260424-102746,1.0.2,20251105-084826,830,Experiment,Both,1,Automatic,main,19,20260424-103011,global,local,300,S,H,A,E,S-A.png,E-H.png,sS,hH,mask-3.png,mask-2.png,s,1,0.5389670999720693,h,1,0.4774176999926567,0.04751800000667572,0.049508700147271156,0.10063260002061725,0.10251570027321577,0.3029161999002099
RSVPLG03,cs,20260424-102746,1.0.2,20251105-084826,830,Experiment,Both,1,Automatic,main,20,20260424-103015,global,local,300,H,S,A,E,H-A.png,E-S.png,hH,sS,mask-3.png,mask-1.png,h,1,0.6439408003352582,h,0,0.2447383999824524,0.04750469978898764,0.0474935001693666,0.10157829988747835,0.10056610032916069,0.3039543996565044
RSVPLG03,cs,20260424-102746,1.0.2,20251105-084826,830,Experiment,Both,1,Automatic,main,21,20260424-103020,global,local,750,H,S,E,A,H-E.png,A-S.png,hH,sS,mask-4.png,mask-2.png,s,0,0.5643605999648571,h,0,0.1405189000070095,0.048477400094270706,0.04775959998369217,0.10078079998493195,0.10174780013039708,0.7426668000407517
RSVPLG03,cs,20260424-102746,1.0.2,20251105-084826,830,Experiment,Both,1,Automatic,main,22,20260424-103025,local,local,300,H,H,E,A,E-H.png,A-H.png,hH,hH,mask-4.png,mask-3.png,s,0,1.7114201998338103,h,1,0.020014199893921614,0.04817940015345812,0.04754200018942356,0.10217810003086925,0.1015262003056705,0.30443189991638064
RSVPLG03,cs,20260424-102746,1.0.2,20251105-084826,830,Experiment,Both,1,Automatic,main,23,20260424-103030,local,local,300,S,S,E,A,E-S.png,A-S.png,sS,sS,mask-4.png,mask-2.png,s,1,1.0515267997980118,h,0,0.2604148001410067,0.047782099805772305,0.04837480001151562,0.10150980018079281,0.10043590003624558,0.30378799978643656
RSVPLG03,cs,20260424-102746,1.0.2,20251105-084826,830,Experiment,Both,1,Automatic,main,24,20260424-103035,local,local,750,H,S,E,A,E-H.png,A-S.png,hH,sS,mask-4.png,mask-2.png,h,1,0.36819070018827915,s,1,0.11716980021446943,0.047559600323438644,0.049310799688100815,0.10075030010193586,0.10051669972017407,0.7424731003120542
RSVPLG03,cs,20260424-102746,1.0.2,20251105-084826,830,Experiment,Both,1,Automatic,main,25,20260424-103040,global,local,300,H,H,E,A,H-E.png,A-H.png,hH,hH,mask-4.png,mask-4.png,h,1,0.4808455999009311,h,1,0.12078560004010797,0.047527399845421314,0.04952519992366433,0.10147819994017482,0.10154519975185394,0.3029934000223875
RSVPLG03,cs,20260424-102746,1.0.2,20251105-084826,830,Experiment,Both,1,Automatic,main,26,20260424-103057,local,local,300,H,H,E,E,E-H.png,E-H.png,hH,hH,mask-2.png,mask-2.png,h,1,0.36532830027863383,h,1,0.07545230025425553,0.04848130000755191,0.04900150001049042,0.10151629988104105,0.10215679975226521,0.30374829983338714
RSVPLG03,cs,20260424-102746,1.0.2,20251105-084826,830,Experiment,Both,1,Automatic,main,27,20260424-103101,local,global,750,H,H,A,A,A-H.png,H-A.png,hH,hH,mask-2.png,mask-3.png,h,1,0.4049105001613498,h,1,0.10200809966772795,0.0475235003978014,0.047803500201553106,0.10157880000770092,0.10134820034727454,0.7417663000524044
RSVPLG03,cs,20260424-102746,1.0.2,20251105-084826,830,Experiment,Both,1,Automatic,main,28,20260424-103105,global,global,750,S,S,A,A,S-A.png,S-A.png,sS,sS,mask-2.png,mask-2.png,s,1,0.500622299965471,s,1,0.12079290021210909,0.05061040027067065,0.04772359970957041,0.10362910013645887,0.10054419981315732,0.7449628002941608
RSVPLG03,cs,20260424-102746,1.0.2,20251105-084826,830,Experiment,Both,1,Automatic,main,29,20260424-103110,local,local,300,S,H,A,E,A-S.png,E-H.png,sS,hH,mask-1.png,mask-4.png,s,1,0.8530621998943388,s,0,0.19336500018835068,0.047691000159829855,0.04768020007759333,0.10087630013003945,0.1018686001189053,0.30355049995705485
RSVPLG03,cs,20260424-102746,1.0.2,20251105-084826,830,Experiment,Both,1,Automatic,main,30,20260424-103115,global,global,300,H,S,A,A,H-A.png,S-A.png,hH,sS,mask-4.png,mask-1.png,h,1,0.3908766000531614,h,0,0.08650110010057688,0.04753109999001026,0.04989770008251071,0.10154279973357916,0.10242500016465783,0.30280299996957183
RSVPLG03,cs,20260424-102746,1.0.2,20251105-084826,830,Experiment,Both,1,Automatic,main,31,20260424-103119,local,global,750,H,H,A,A,A-H.png,H-A.png,hH,hH,mask-4.png,mask-3.png,h,1,0.43396929977461696,h,1,0.10681769996881485,0.04688100004568696,0.0484349001199007,0.10018109995871782,0.10099120019003749,0.7420737999491394
RSVPLG03,cs,20260424-102746,1.0.2,20251105-084826,830,Experiment,Both,1,Automatic,main,32,20260424-103124,local,global,300,H,H,E,E,E-H.png,H-E.png,hH,hH,mask-3.png,mask-2.png,h,1,0.6900620996020734,s,0,0.12643489986658096,0.047181000001728535,0.04672580026090145,0.1006819000467658,0.09998570010066032,0.3045275998301804
RSVPLG03,cs,20260424-102746,1.0.2,20251105-084826,830,Experiment,Both,1,Automatic,main,33,20260424-103128,global,local,300,H,H,A,E,H-A.png,E-H.png,hH,hH,mask-1.png,mask-1.png,h,1,0.3926346995867789,h,1,0.13618479995056987,0.04769850010052323,0.04669790016487241,0.1010988000780344,0.1010843999683857,0.30491500021889806
RSVPLG03,cs,20260424-102746,1.0.2,20251105-084826,830,Experiment,Both,1,Automatic,main,34,20260424-103132,global,local,750,H,H,A,A,H-A.png,A-H.png,hH,hH,mask-3.png,mask-2.png,h,1,0.2925937999971211,h,1,0.11484730010852218,0.04752219980582595,0.04831800004467368,0.10052419966086745,0.10217730002477765,0.7418322996236384
RSVPLG03,cs,20260424-102746,1.0.2,20251105-084826,830,Experiment,Both,1,Automatic,main,35,20260424-103137,global,global,750,S,S,E,A,S-E.png,S-A.png,sS,sS,mask-1.png,mask-3.png,s,1,0.4113672003149986,h,0,0.03943239990621805,0.04655349999666214,0.047528999857604504,0.09964019991457462,0.1015663999132812,0.7421042998321354
RSVPLG03,cs,20260424-102746,1.0.2,20251105-084826,830,Experiment,Both,1,Automatic,main,36,20260424-103141,global,local,750,H,S,E,E,H-E.png,E-S.png,hH,sS,mask-2.png,mask-4.png,h,1,0.3902910999022424,s,1,0.12477470003068447,0.04752900032326579,0.04762169998139143,0.10149490041658282,0.1007715999148786,0.7415201002731919
RSVPLG03,cs,20260424-102746,1.0.2,20251105-084826,830,Experiment,Both,1,Automatic,main,37,20260424-103146,global,global,750,S,H,A,E,S-A.png,H-E.png,sS,hH,mask-4.png,mask-1.png,s,1,0.3306053001433611,h,1,0.10663599986582994,0.04758399957790971,0.04656659997999668,0.09977509966120124,0.10056810034438968,0.742570299655199
RSVPLG03,cs,20260424-102746,1.0.2,20251105-084826,830,Experiment,Both,1,Automatic,main,38,20260424-103150,local,local,750,S,S,E,E,E-S.png,E-S.png,sS,sS,mask-1.png,mask-1.png,s,1,0.6897233002819121,s,1,0.10331449983641505,0.04754390008747578,0.0495151998475194,0.10058230021968484,0.10152749996632338,0.7407113001681864
RSVPLG03,cs,20260424-102746,1.0.2,20251105-084826,830,Experiment,Both,1,Automatic,main,39,20260424-103155,global,global,300,S,H,E,E,S-E.png,H-E.png,sS,hH,mask-1.png,mask-2.png,s,1,0.5117257996462286,h,1,0.04320379998534918,0.046504400204867125,0.046611899975687265,0.09950739983469248,0.10072900028899312,0.30382589995861053
RSVPLG03,cs,20260424-102746,1.0.2,20251105-084826,830,Experiment,Both,1,Automatic,main,40,20260424-103159,global,global,300,H,S,E,A,H-E.png,S-A.png,hH,sS,mask-1.png,mask-2.png,h,1,0.5070430999621749,s,1,0.14992670016363263,0.04767159977927804,0.04860249999910593,0.10190279968082905,0.10080719972029328,0.3035418000072241
RSVPLG03,cs,20260424-102746,1.0.2,20251105-084826,830,Experiment,Both,1,Automatic,main,41,20260424-103204,global,local,750,H,H,A,E,H-A.png,E-H.png,hH,hH,mask-1.png,mask-1.png,h,1,0.2758081997744739,h,1,0.1061549000442028,0.04760710010305047,0.047716899774968624,0.10202219989150763,0.1010215999558568,0.7425755001604557
RSVPLG03,cs,20260424-102746,1.0.2,20251105-084826,830,Experiment,Both,1,Automatic,main,42,20260424-103208,local,local,300,S,H,A,A,A-S.png,A-H.png,sS,hH,mask-2.png,mask-1.png,h,0,0.2728158002719283,h,1,0.13780369982123375,0.04662730032578111,0.04846120020374656,0.10120279993861914,0.10213640006259084,0.3029962000437081
RSVPLG03,cs,20260424-102746,1.0.2,20251105-084826,830,Experiment,Both,1,Automatic,main,43,20260424-103212,global,global,300,H,S,E,E,H-E.png,S-E.png,hH,sS,mask-1.png,mask-2.png,h,1,0.3240106999874115,s,1,0.1050844001583755,0.04851790005341172,0.047522499691694975,0.10152800008654594,0.10153549956157804,0.3037812002003193
RSVPLG03,cs,20260424-102746,1.0.2,20251105-084826,830,Experiment,Both,1,Automatic,main,44,20260424-103216,local,global,750,S,H,A,E,A-S.png,H-E.png,sS,hH,mask-3.png,mask-3.png,h,0,0.4523980002850294,h,1,0.1077203000895679,0.04715480003505945,0.048506699968129396,0.10119369998574257,0.10224439995363355,0.7413937002420425
RSVPLG03,cs,20260424-102746,1.0.2,20251105-084826,830,Experiment,Both,1,Automatic,main,45,20260424-103221,global,local,750,S,H,E,A,S-E.png,A-H.png,sS,hH,mask-3.png,mask-4.png,s,1,0.3910387000069022,h,1,0.022448199801146984,0.047601299826055765,0.04635259974747896,0.10056659998372197,0.1001448999159038,0.7429571002721786
RSVPLG03,cs,20260424-102746,1.0.2,20251105-084826,830,Experiment,Both,1,Automatic,main,46,20260424-103226,global,global,750,H,H,E,E,H-E.png,H-E.png,hH,hH,mask-3.png,mask-2.png,h,1,0.4636033996939659,h,1,0.09236769983544946,0.04766210028901696,0.04924809979274869,0.10086859995499253,0.10235349973663688,0.7418272001668811
RSVPLG03,cs,20260424-102746,1.0.2,20251105-084826,830,Experiment,Both,1,Automatic,main,47,20260424-103230,local,local,750,H,H,E,E,E-H.png,E-H.png,hH,hH,mask-2.png,mask-3.png,h,1,0.299796000123024,h,1,0.12396090012043715,0.04714810010045767,0.04951540008187294,0.10224519995972514,0.10255309985950589,0.7416463000699878
RSVPLG03,cs,20260424-102746,1.0.2,20251105-084826,830,Experiment,Both,1,Automatic,main,48,20260424-103235,local,global,300,H,S,E,E,E-H.png,S-E.png,hH,sS,mask-1.png,mask-1.png,h,1,0.6306692999787629,s,1,0.07521060016006231,0.04862080002203584,0.04757379973307252,0.10275139985606074,0.09958209982141852,0.3053422002121806
RSVPLG03,cs,20260424-102746,1.0.2,20251105-084826,830,Experiment,Both,1,Automatic,main,49,20260424-103239,global,local,750,S,H,A,A,S-A.png,A-H.png,sS,hH,mask-1.png,mask-2.png,s,1,0.36570890014991164,h,1,0.05401700036600232,0.04782490013167262,0.04979280009865761,0.10102519998326898,0.10305189993232489,0.7419271999970078
RSVPLG03,cs,20260424-102746,1.0.2,20251105-084826,830,Experiment,Both,1,Automatic,main,50,20260424-103244,local,global,300,H,S,E,A,E-H.png,S-A.png,hH,sS,mask-4.png,mask-3.png,h,1,0.3602926000021398,h,0,0.11533710034564137,0.047585600055754185,0.0481237000785768,0.10156089998781681,0.09991350024938583,0.3041497999802232
RSVPLG03,cs,20260424-102746,1.0.2,20251105-084826,830,Experiment,Both,1,Automatic,main,51,20260424-103255,local,local,750,S,H,E,E,E-S.png,E-H.png,sS,hH,mask-3.png,mask-1.png,s,1,0.40468130027875304,h,1,0.07112489966675639,0.04752709995955229,0.04867479996755719,0.10053719999268651,0.10070839989930391,0.7424302999861538
RSVPLG03,cs,20260424-102746,1.0.2,20251105-084826,830,Experiment,Both,1,Automatic,main,52,20260424-103300,local,local,750,S,S,E,A,E-S.png,A-S.png,sS,sS,mask-1.png,mask-2.png,s,1,0.42022010032087564,s,1,0.09212119970470667,0.04860100010409951,0.04750659968703985,0.10067539988085628,0.10060619981959462,0.7424861001782119
RSVPLG03,cs,20260424-102746,1.0.2,20251105-084826,830,Experiment,Both,1,Automatic,main,53,20260424-103305,global,local,300,S,S,E,E,S-E.png,E-S.png,sS,sS,mask-4.png,mask-4.png,s,1,0.5307430997490883,h,0,0.03680570004507899,0.048524000216275454,0.04749840032309294,0.10259720031172037,0.10059350030496716,0.3042079000733793
RSVPLG03,cs,20260424-102746,1.0.2,20251105-084826,830,Experiment,Both,1,Automatic,main,54,20260424-103309,global,global,300,S,H,E,A,S-E.png,H-A.png,sS,hH,mask-2.png,mask-3.png,s,1,0.39739950001239777,h,1,0.04344950011000037,0.04878060007467866,0.04619589960202575,0.10285210004076362,0.10050129983574152,0.3057085000909865
RSVPLG03,cs,20260424-102746,1.0.2,20251105-084826,830,Experiment,Both,1,Automatic,main,55,20260424-103313,local,local,750,H,S,A,A,A-H.png,A-S.png,hH,sS,mask-3.png,mask-4.png,h,1,0.4971415000036359,s,1,0.08623120002448559,0.04758090013638139,0.04975639982149005,0.10077490005642176,0.10219279956072569,0.741293900180608
RSVPLG03,cs,20260424-102746,1.0.2,20251105-084826,830,Experiment,Both,1,Automatic,main,56,20260424-103318,global,local,300,S,H,E,A,S-E.png,A-H.png,sS,hH,mask-2.png,mask-3.png,s,1,0.4385973000898957,h,1,0.02531230030581355,0.04770610015839338,0.047544300090521574,0.10165810026228428,0.10050219995900989,0.30398930003866553
RSVPLG03,cs,20260424-102746,1.0.2,20251105-084826,830,Experiment,Both,1,Automatic,main,57,20260424-103322,local,global,300,H,S,E,E,E-H.png,S-E.png,hH,sS,mask-2.png,mask-3.png,s,0,0.5731489001773298,h,0,0.02915600035339594,0.04760110005736351,0.049521599896252155,0.10157620022073388,0.10253649996593595,0.3026772001758218
RSVPLG03,cs,20260424-102746,1.0.2,20251105-084826,830,Experiment,Both,1,Automatic,main,58,20260424-103326,local,local,750,H,S,A,E,A-H.png,E-S.png,hH,sS,mask-4.png,mask-1.png,h,1,0.3734061000868678,h,0,0.2840788997709751,0.04753109999001026,0.04757900023832917,0.0995821999385953,0.10160650033503771,0.7412994997575879
RSVPLG03,cs,20260424-102746,1.0.2,20251105-084826,830,Experiment,Both,1,Automatic,main,59,20260424-103331,global,global,750,S,H,A,E,S-A.png,H-E.png,sS,hH,mask-3.png,mask-2.png,s,1,0.33108749985694885,h,1,0.05223829997703433,0.04771690024062991,0.04705459997057915,0.10190950008109212,0.10035380022600293,0.7432335000485182
RSVPLG03,cs,20260424-102746,1.0.2,20251105-084826,830,Experiment,Both,1,Automatic,main,60,20260424-103335,local,global,300,S,S,A,E,A-S.png,S-E.png,sS,sS,mask-2.png,mask-3.png,s,1,0.5672377003356814,h,0,0.00595569983124733,0.046610099729150534,0.04669260000810027,0.10069409990683198,0.09992100019007921,0.30339849973097444
RSVPLG03,cs,20260424-102746,1.0.2,20251105-084826,830,Experiment,Both,1,Automatic,main,61,20260424-103340,local,global,750,H,S,A,A,A-H.png,S-A.png,hH,sS,mask-3.png,mask-1.png,h,1,0.43892400013282895,s,1,0.07607350032776594,0.047557400073856115,0.047721399925649166,0.10075230011716485,0.1022788998670876,0.7420558002777398
RSVPLG03,cs,20260424-102746,1.0.2,20251105-084826,830,Experiment,Both,1,Automatic,main,62,20260424-103344,global,global,300,S,H,A,A,S-A.png,H-A.png,sS,hH,mask-3.png,mask-4.png,s,1,0.408460000064224,h,1,0.00827960018068552,0.04653560044243932,0.04770210012793541,0.09965280024334788,0.10088260006159544,0.3024567002430558
RSVPLG03,cs,20260424-102746,1.0.2,20251105-084826,830,Experiment,Both,1,Automatic,main,63,20260424-103348,global,global,300,H,H,E,E,H-E.png,H-E.png,hH,hH,mask-1.png,mask-4.png,h,1,0.4653925998136401,s,0,0.06981300003826618,0.04763490008190274,0.04870839975774288,0.1018982999958098,0.10000019986182451,0.30415660003200173
RSVPLG03,cs,20260424-102746,1.0.2,20251105-084826,830,Experiment,Both,1,Automatic,main,64,20260424-103353,local,local,300,H,S,E,E,E-H.png,E-S.png,hH,sS,mask-2.png,mask-4.png,h,1,0.5294230999425054,s,1,0.05879639973863959,0.047529200091958046,0.046622300054877996,0.10156030021607876,0.09971610037609935,0.30453399987891316
RSVPLG03,cs,20260424-102746,1.0.2,20251105-084826,830,Experiment,Both,1,Automatic,main,65,20260424-103357,local,global,750,H,S,E,E,E-H.png,S-E.png,hH,sS,mask-4.png,mask-3.png,h,1,0.3756078998558223,s,1,0.10261529963463545,0.048471199814230204,0.04701260011643171,0.10137390019372106,0.10104010021314025,0.7432376998476684
RSVPLG03,cs,20260424-102746,1.0.2,20251105-084826,830,Experiment,Both,1,Automatic,main,66,20260424-103401,global,global,300,S,S,E,E,S-E.png,S-E.png,sS,sS,mask-4.png,mask-2.png,s,1,0.37067680014297366,h,0,0.12926109973341227,0.04759299987927079,0.04961920017376542,0.10156559990718961,0.10162980016320944,0.303065599873662
RSVPLG03,cs,20260424-102746,1.0.2,20251105-084826,830,Experiment,Both,1,Automatic,main,67,20260424-103406,global,local,300,H,H,A,A,H-A.png,A-H.png,hH,hH,mask-2.png,mask-2.png,h,1,0.45984529983252287,s,0,0.29522900003939867,0.04841009993106127,0.048508900217711926,0.10050219995900989,0.10252430010586977,0.3027087999507785
RSVPLG03,cs,20260424-102746,1.0.2,20251105-084826,830,Experiment,Both,1,Automatic,main,68,20260424-103410,local,local,750,S,S,A,E,A-S.png,E-S.png,sS,sS,mask-3.png,mask-2.png,s,1,0.5119515000842512,h,0,0.044565200340002775,0.04850269993767142,0.04752869997173548,0.10151619976386428,0.1025694003328681,0.7423331998288631
RSVPLG03,cs,20260424-102746,1.0.2,20251105-084826,830,Experiment,Both,1,Automatic,main,69,20260424-103415,global,local,300,H,S,E,E,H-E.png,E-S.png,hH,sS,mask-2.png,mask-1.png,h,1,0.4890461997129023,s,1,0.31307270005345345,0.047830000054091215,0.04757840000092983,0.10192100005224347,0.10065820021554828,0.30530319968238473
RSVPLG03,cs,20260424-102746,1.0.2,20251105-084826,830,Experiment,Both,1,Automatic,main,70,20260424-103419,local,global,750,H,S,A,A,A-H.png,S-A.png,hH,sS,mask-4.png,mask-2.png,h,1,0.46790749998763204,s,1,0.08655539993196726,0.04766090027987957,0.049585599917918444,0.10196480015292764,0.10275280009955168,0.7409092001616955
RSVPLG03,cs,20260424-102746,1.0.2,20251105-084826,830,Experiment,Both,1,Automatic,main,71,20260424-103424,local,global,300,H,S,E,A,E-H.png,S-A.png,hH,sS,mask-4.png,mask-1.png,h,1,0.6936436998657882,s,1,0.019839299842715263,0.04886480001732707,0.04775339970365167,0.10107149975374341,0.10194919956848025,0.30365000013262033
RSVPLG03,cs,20260424-102746,1.0.2,20251105-084826,830,Experiment,Both,1,Automatic,main,72,20260424-103428,global,global,750,S,S,A,E,S-A.png,S-E.png,sS,sS,mask-1.png,mask-2.png,s,1,0.6161668002605438,s,1,0.08663000026717782,0.04755950020626187,0.047646500170230865,0.09961240040138364,0.1016338998451829,0.7416197001002729
RSVPLG03,cs,20260424-102746,1.0.2,20251105-084826,830,Experiment,Both,1,Automatic,main,73,20260424-103433,global,global,750,S,S,A,A,S-A.png,S-A.png,sS,sS,mask-1.png,mask-3.png,s,1,0.500415500253439,s,1,0.07490669982507825,0.04853620007634163,0.049533499870449305,0.10154159972444177,0.10151970013976097,0.7423137999139726
RSVPLG03,cs,20260424-102746,1.0.2,20251105-084826,830,Experiment,Both,1,Automatic,main,74,20260424-103438,local,local,750,S,H,E,E,E-S.png,E-H.png,sS,hH,mask-4.png,mask-4.png,s,1,0.6959985001012683,s,0,0.054899399634450674,0.048724299762398005,0.048593999817967415,0.1008075000718236,0.10160499997437,0.7420797999948263
RSVPLG03,cs,20260424-102746,1.0.2,20251105-084826,830,Experiment,Both,1,Automatic,main,75,20260424-103442,local,local,300,S,H,A,E,A-S.png,E-H.png,sS,hH,mask-4.png,mask-3.png,h,0,0.4229240999557078,s,0,0.6903138002380729,0.04890989977866411,0.04778619995340705,0.10104310000315309,0.09988170024007559,0.3046562997624278
RSVPLG03,cs,20260424-102746,1.0.2,20251105-084826,830,Experiment,Both,1,Automatic,main,76,20260424-103452,local,local,750,H,S,E,E,E-H.png,E-S.png,hH,sS,mask-3.png,mask-2.png,h,1,0.5435993997380137,s,1,0.00963070010766387,0.049721499904990196,0.04771960014477372,0.10198390018194914,0.09989310009405017,0.7435727999545634
RSVPLG03,cs,20260424-102746,1.0.2,20251105-084826,830,Experiment,Both,1,Automatic,main,77,20260424-103457,local,local,300,S,S,A,A,A-S.png,A-S.png,sS,sS,mask-3.png,mask-2.png,s,1,0.3418025001883507,h,0,0.008986699860543013,0.04768620012328029,0.04854980017989874,0.10199949983507395,0.10158770019188523,0.30366900004446507
RSVPLG03,cs,20260424-102746,1.0.2,20251105-084826,830,Experiment,Both,1,Automatic,main,78,20260424-103501,global,global,750,S,S,A,E,S-A.png,S-E.png,sS,sS,mask-2.png,mask-3.png,s,1,0.421327400021255,s,1,0.08010240038856864,0.04954349994659424,0.04954080004245043,0.10256480006501079,0.10257240012288094,0.7423176998272538
RSVPLG03,cs,20260424-102746,1.0.2,20251105-084826,830,Experiment,Both,1,Automatic,main,79,20260424-103506,global,global,750,S,H,A,A,S-A.png,H-A.png,sS,hH,mask-2.png,mask-4.png,s,1,0.48987710010260344,h,1,0.05749960010871291,0.047535200137645006,0.04759729979559779,0.10155449993908405,0.10063989972695708,0.7432605000212789
RSVPLG03,cs,20260424-102746,1.0.2,20251105-084826,830,Experiment,Both,1,Automatic,main,80,20260424-103510,local,global,750,H,H,A,E,A-H.png,H-E.png,hH,hH,mask-1.png,mask-4.png,h,1,0.4898733999580145,h,1,0.05783089995384216,0.04869200009852648,0.04775149980559945,0.10183870000764728,0.10100270016118884,0.7427260000258684
RSVPLG03,cs,20260424-102746,1.0.2,20251105-084826,830,Experiment,Both,1,Automatic,main,81,20260424-103515,global,global,300,S,S,E,A,S-E.png,S-A.png,sS,sS,mask-1.png,mask-2.png,s,1,0.5390787003561854,h,0,0.06862059980630875,0.047674200031906366,0.04768950026482344,0.10114349983632565,0.10186870023608208,0.30387029983103275
RSVPLG03,cs,20260424-102746,1.0.2,20251105-084826,830,Experiment,Both,1,Automatic,main,82,20260424-103519,global,local,300,H,S,A,E,H-A.png,E-S.png,hH,sS,mask-2.png,mask-1.png,h,1,1.2853582999669015,s,1,0.20123639982193708,0.048715699929744005,0.047889300156384706,0.10211620014160872,0.10222849994897842,0.3033513999544084
RSVPLG03,cs,20260424-102746,1.0.2,20251105-084826,830,Experiment,Both,1,Automatic,main,83,20260424-103525,global,local,300,S,S,A,E,S-A.png,E-S.png,sS,sS,mask-2.png,mask-3.png,s,1,0.5749059002846479,h,0,0.022728899959474802,0.0471117002889514,0.047706699930131435,0.10151079995557666,0.10190200014039874,0.3033635001629591
RSVPLG03,cs,20260424-102746,1.0.2,20251105-084826,830,Experiment,Both,1,Automatic,main,84,20260424-103529,global,global,300,S,H,E,E,S-E.png,H-E.png,sS,hH,mask-1.png,mask-2.png,s,1,0.5691362996585667,h,1,0.07669450016692281,0.047594300005584955,0.04715560004115105,0.10222420003265142,0.10073120007291436,0.3040585000999272
RSVPLG03,cs,20260424-102746,1.0.2,20251105-084826,830,Experiment,Both,1,Automatic,main,85,20260424-103533,local,global,300,H,H,E,A,E-H.png,H-A.png,hH,hH,mask-1.png,mask-3.png,h,1,0.37388710025697947,s,0,0.05495590018108487,0.04912310000509024,0.048569600097835064,0.10220659989863634,0.10064070019870996,0.3034349996596575
RSVPLG03,cs,20260424-102746,1.0.2,20251105-084826,830,Experiment,Both,1,Automatic,main,86,20260424-103537,global,local,750,S,H,E,E,S-E.png,E-H.png,sS,hH,mask-3.png,mask-2.png,s,1,1.177349700126797,h,1,0.03498520003631711,0.04953099973499775,0.04753270000219345,0.10254989983513951,0.0996909998357296,0.7438153000548482
RSVPLG03,cs,20260424-102746,1.0.2,20251105-084826,830,Experiment,Both,1,Automatic,main,87,20260424-103543,global,local,750,S,S,A,A,S-A.png,A-S.png,sS,sS,mask-2.png,mask-1.png,s,1,0.5130095002241433,h,0,0.039217700250446796,0.04715779982507229,0.04955560015514493,0.10116329975426197,0.10260380012914538,0.7417097999714315
RSVPLG03,cs,20260424-102746,1.0.2,20251105-084826,830,Experiment,Both,1,Automatic,main,88,20260424-103547,local,global,300,H,S,A,E,A-H.png,S-E.png,hH,sS,mask-4.png,mask-1.png,h,1,0.47142070019617677,s,1,0.01570700015872717,0.04852870013564825,0.04770019976422191,0.10157070029526949,0.09994809981435537,0.30418700026348233
RSVPLG03,cs,20260424-102746,1.0.2,20251105-084826,830,Experiment,Both,1,Automatic,main,89,20260424-103551,local,global,300,H,H,A,A,A-H.png,H-A.png,hH,hH,mask-1.png,mask-1.png,h,1,0.6109024002216756,h,1,0.21326630003750324,0.047702299896627665,0.04770530015230179,0.10194530012086034,0.10190690029412508,0.30430429987609386
RSVPLG03,cs,20260424-102746,1.0.2,20251105-084826,830,Experiment,Both,1,Automatic,main,90,20260424-103556,global,local,750,H,S,E,A,H-E.png,A-S.png,hH,sS,mask-1.png,mask-1.png,h,1,0.4242604998871684,s,1,0.02225210005417466,0.04856220027431846,0.049525999929755926,0.10159400012344122,0.10138709982857108,0.7411568001843989
RSVPLG03,cs,20260424-102746,1.0.2,20251105-084826,830,Experiment,Both,1,Automatic,main,91,20260424-103601,local,global,300,H,S,E,E,E-H.png,S-E.png,hH,sS,mask-3.png,mask-4.png,h,1,0.8240664000622928,s,1,0.10836420021951199,0.048632499761879444,0.04860199987888336,0.10167839983478189,0.10163210006430745,0.3045630999840796
RSVPLG03,cs,20260424-102746,1.0.2,20251105-084826,830,Experiment,Both,1,Automatic,main,92,20260424-103605,global,local,750,S,H,A,A,S-A.png,A-H.png,sS,hH,mask-2.png,mask-1.png,s,1,0.3476279997266829,h,1,0.02674200013279915,0.046724900137633085,0.046799799893051386,0.10159790003672242,0.10188130009919405,0.7422331999987364
RSVPLG03,cs,20260424-102746,1.0.2,20251105-084826,830,Experiment,Both,1,Automatic,main,93,20260424-103610,local,global,750,S,S,E,E,E-S.png,S-E.png,sS,sS,mask-1.png,mask-3.png,s,1,0.4871096001006663,h,0,0.03510199999436736,0.04753099987283349,0.047523700166493654,0.10156749980524182,0.10256699984893203,0.7416626997292042
RSVPLG03,cs,20260424-102746,1.0.2,20251105-084826,830,Experiment,Both,1,Automatic,main,94,20260424-103614,global,local,750,H,H,E,A,H-E.png,A-H.png,hH,hH,mask-3.png,mask-1.png,h,1,0.5054831998422742,s,0,0.05538799986243248,0.04681210033595562,0.04743649996817112,0.10190750006586313,0.1001031999476254,0.743435500189662
RSVPLG03,cs,20260424-102746,1.0.2,20251105-084826,830,Experiment,Both,1,Automatic,main,95,20260424-103619,local,local,750,H,S,E,A,E-H.png,A-S.png,hH,sS,mask-1.png,mask-4.png,h,1,0.7730368999764323,h,0,0.11632629996165633,0.04875349998474121,0.04930590000003576,0.10071370005607605,0.1023666001856327,0.7424752996303141
RSVPLG03,cs,20260424-102746,1.0.2,20251105-084826,830,Experiment,Both,1,Automatic,main,96,20260424-103624,local,global,300,H,H,A,E,A-H.png,H-E.png,hH,hH,mask-1.png,mask-3.png,h,1,0.7544129998423159,s,0,0.14144100015982985,0.04754259996116161,0.048527900129556656,0.09965809993445873,0.10155980009585619,0.3018674999475479
RSVPLG03,cs,20260424-102746,1.0.2,20251105-084826,830,Experiment,Both,1,Automatic,main,97,20260424-103628,local,global,750,H,S,E,E,E-H.png,S-E.png,hH,sS,mask-2.png,mask-1.png,s,0,0.5104463999159634,s,1,0.058797100093215704,0.04769869986921549,0.048736399970948696,0.09993579983711243,0.10196439968422055,0.7409469000995159
RSVPLG03,cs,20260424-102746,1.0.2,20251105-084826,830,Experiment,Both,1,Automatic,main,98,20260424-103633,local,local,300,S,H,E,A,E-S.png,A-H.png,sS,hH,mask-1.png,mask-3.png,s,1,0.47392560029402375,h,1,0.02287149988114834,0.04777330020442605,0.047685999888926744,0.10193709982559085,0.10189880011603236,0.3040805999189615
RSVPLG03,cs,20260424-102746,1.0.2,20251105-084826,830,Experiment,Both,1,Automatic,main,99,20260424-103637,global,local,750,S,H,E,E,S-E.png,E-H.png,sS,hH,mask-3.png,mask-1.png,s,1,0.5126392003148794,h,1,0.04395930003374815,0.04967009974643588,0.04868539981544018,0.10175859974697232,0.101772699970752,0.7426376999355853
RSVPLG03,cs,20260424-102746,1.0.2,20251105-084826,830,Experiment,Both,1,Automatic,main,100,20260424-103642,global,local,300,H,H,E,E,H-E.png,E-H.png,hH,hH,mask-3.png,mask-3.png,h,1,0.3678215001709759,h,1,0.10650969995185733,0.047489400021731853,0.04950390011072159,0.10050520021468401,0.10151980025693774,0.302808600012213
RSVPLG03,cs,20260424-103737,1.0.2,20251105-084826,830,Experiment,Both,1,Automatic,warmup,1,20260424-103827,global,local,750,H,S,E,E,H-E.png,E-S.png,hH,sS,mask-1.png,mask-4.png,h,1,0.2007554997690022,s,1,0.008886799681931734,0.045194999780505896,0.04869089974090457,0.09843189967796206,0.09989789966493845,0.7489334000274539
RSVPLG03,cs,20260424-103737,1.0.2,20251105-084826,830,Experiment,Both,1,Automatic,warmup,2,20260424-103831,global,global,750,H,H,E,A,H-E.png,H-A.png,hH,hH,mask-1.png,mask-4.png,h,1,0.5313959997147322,h,1,0.052323199808597565,0.04871089989319444,0.04752140026539564,0.10006129974499345,0.09953980008140206,0.7519029998220503
RSVPLG03,cs,20260424-103737,1.0.2,20251105-084826,830,Experiment,Both,1,Automatic,warmup,3,20260424-103836,local,global,750,H,H,E,A,E-H.png,H-A.png,hH,hH,mask-4.png,mask-1.png,h,1,0.6547545003704727,h,1,0.053854099940508604,0.04671409958973527,0.047611599788069725,0.09991739969700575,0.09981179982423782,0.7498241998255253
RSVPLG03,cs,20260424-103737,1.0.2,20251105-084826,830,Experiment,Both,1,Automatic,warmup,4,20260424-103841,local,local,750,H,H,A,A,A-H.png,A-H.png,hH,hH,mask-3.png,mask-3.png,h,1,0.23514749994501472,h,1,0.07083799969404936,0.04670269973576069,0.048673299606889486,0.09955309983342886,0.09988819994032383,0.7501372001133859
RSVPLG03,cs,20260424-103737,1.0.2,20251105-084826,830,Experiment,Both,1,Automatic,main,5,20260424-103845,local,local,300,H,H,E,E,E-H.png,E-H.png,hH,hH,mask-1.png,mask-2.png,h,1,0.5651122000999749,s,0,0.15655249962583184,0.047475999686867,0.048687299713492393,0.09930050000548363,0.10087649989873171,0.3000580999068916
RSVPLG03,cs,20260424-103737,1.0.2,20251105-084826,830,Experiment,Both,1,Automatic,main,6,20260424-103850,local,local,750,S,S,A,E,A-S.png,E-S.png,sS,sS,mask-4.png,mask-1.png,h,0,0.4208100000396371,h,0,0.05105909984558821,0.04652850003913045,0.04750319989398122,0.09960489999502897,0.10154470009729266,0.7492309999652207
RSVPLG03,cs,20260424-103737,1.0.2,20251105-084826,830,Experiment,Both,1,Automatic,main,7,20260424-103854,global,local,300,H,H,E,E,H-E.png,E-H.png,hH,hH,mask-1.png,mask-2.png,s,0,0.9773201998323202,h,1,0.03756630001589656,0.04753919970244169,0.047524199821054935,0.09960669977590442,0.09957539988681674,0.30024729995056987
RSVPLG03,cs,20260424-103737,1.0.2,20251105-084826,830,Experiment,Both,1,Automatic,main,8,20260424-103859,global,global,300,S,H,E,A,S-E.png,H-A.png,sS,hH,mask-2.png,mask-2.png,s,1,0.34699170012027025,h,1,0.005529300309717655,0.048176399897783995,0.04791309963911772,0.10024760011583567,0.09965439978986979,0.2997655002400279
RSVPLG03,cs,20260424-103737,1.0.2,20251105-084826,830,Experiment,Both,1,Automatic,main,9,20260424-103903,local,global,750,H,H,E,E,E-H.png,H-E.png,hH,hH,mask-3.png,mask-1.png,s,0,0.43740819999948144,h,1,1.4517106004059315,0.047521600034087896,0.04651880031451583,0.09930090000852942,0.09951309999451041,0.7510108998976648
RSVPLG03,cs,20260424-103737,1.0.2,20251105-084826,830,Experiment,Both,1,Automatic,main,10,20260424-103909,global,local,750,H,S,E,A,H-E.png,A-S.png,hH,sS,mask-1.png,mask-2.png,s,0,0.5924925999715924,h,0,0.07121799979358912,0.04766590008512139,0.047706599812954664,0.09877320006489754,0.10006640013307333,0.7496996000409126
RSVPLG03,cs,20260424-103737,1.0.2,20251105-084826,830,Experiment,Both,1,Automatic,main,11,20260424-103914,global,local,750,H,S,E,E,H-E.png,E-S.png,hH,sS,mask-3.png,mask-4.png,h,1,0.3823492000810802,s,1,0.10874659987166524,0.047113200183957815,0.047200700268149376,0.10012880014255643,0.10020220000296831,0.7497693998739123
RSVPLG03,cs,20260424-103737,1.0.2,20251105-084826,830,Experiment,Both,1,Automatic,main,12,20260424-103918,local,global,300,H,H,E,A,E-H.png,H-A.png,hH,hH,mask-1.png,mask-3.png,h,1,0.4141860003583133,h,1,0.12444530008360744,0.04752720007672906,0.04852079972624779,0.10054749995470047,0.10054259980097413,0.2997635002247989
RSVPLG03,cs,20260424-103737,1.0.2,20251105-084826,830,Experiment,Both,1,Automatic,main,13,20260424-103923,global,global,300,H,S,A,A,H-A.png,S-A.png,hH,sS,mask-1.png,mask-1.png,h,1,0.3820363995619118,s,1,0.11931729968637228,0.047521600034087896,0.04751099972054362,0.10053130006417632,0.09947869973257184,0.3007974000647664
RSVPLG03,cs,20260424-103737,1.0.2,20251105-084826,830,Experiment,Both,1,Automatic,main,14,20260424-103927,local,local,750,H,H,E,E,E-H.png,E-H.png,hH,hH,mask-2.png,mask-4.png,h,1,0.6541274003684521,s,0,0.07623849995434284,0.04752779984846711,0.04778899997472763,0.09879200020805001,0.09901539981365204,0.7495686002075672
RSVPLG03,cs,20260424-103737,1.0.2,20251105-084826,830,Experiment,Both,1,Automatic,main,15,20260424-103932,global,global,750,H,S,A,E,H-A.png,S-E.png,hH,sS,mask-4.png,mask-2.png,h,1,0.3779206997714937,s,1,0.09116069972515106,0.0476584997959435,0.04773870017379522,0.10005200002342463,0.10074200015515089,0.7502419999800622
RSVPLG03,cs,20260424-103737,1.0.2,20251105-084826,830,Experiment,Both,1,Automatic,main,16,20260424-103937,local,global,300,S,H,E,A,E-S.png,H-A.png,sS,hH,mask-1.png,mask-1.png,s,1,0.40821769973263144,h,1,0.13044280000030994,0.04753040010109544,0.04850019980221987,0.09876429988071322,0.09971159975975752,0.29917380027472973
RSVPLG03,cs,20260424-103737,1.0.2,20251105-084826,830,Experiment,Both,1,Automatic,main,17,20260424-103941,local,local,300,H,H,E,A,E-H.png,A-H.png,hH,hH,mask-1.png,mask-2.png,h,1,0.49496869975700974,h,1,0.6202493999153376,0.047586699947714806,0.047529800329357386,0.10075319977477193,0.1007052999921143,0.30023639975115657
RSVPLG03,cs,20260424-103737,1.0.2,20251105-084826,830,Experiment,Both,1,Automatic,main,18,20260424-103946,local,local,750,S,S,A,E,A-S.png,E-S.png,sS,sS,mask-4.png,mask-3.png,h,0,0.520140000153333,h,0,0.10265380004420877,0.04772359970957041,0.04774449998512864,0.09932819986715913,0.10085770022124052,0.750439599622041
RSVPLG03,cs,20260424-103737,1.0.2,20251105-084826,830,Experiment,Both,1,Automatic,main,19,20260424-103951,global,global,300,S,S,E,E,S-E.png,S-E.png,sS,sS,mask-2.png,mask-4.png,s,1,0.42929730005562305,h,0,0.1692125997506082,0.047621899750083685,0.047559999860823154,0.09895160002633929,0.1002985998056829,0.2994029000401497
RSVPLG03,cs,20260424-103737,1.0.2,20251105-084826,830,Experiment,Both,1,Automatic,main,20,20260424-103955,local,local,750,H,H,A,E,A-H.png,E-H.png,hH,hH,mask-3.png,mask-2.png,h,1,0.4911326002329588,s,0,0.0703596998937428,0.048374699894338846,0.046535699628293514,0.10041939979419112,0.09961649961769581,0.7513602999970317
RSVPLG03,cs,20260424-103737,1.0.2,20251105-084826,830,Experiment,Both,1,Automatic,main,21,20260424-104000,global,global,750,H,H,A,E,H-A.png,H-E.png,hH,hH,mask-2.png,mask-4.png,h,1,0.505744700320065,h,1,0.13655930012464523,0.04848590027540922,0.04752699984237552,0.1003816002048552,0.09952440019696951,0.7515941001474857
RSVPLG03,cs,20260424-103737,1.0.2,20251105-084826,830,Experiment,Both,1,Automatic,main,22,20260424-104005,local,local,750,H,H,E,E,E-H.png,E-H.png,hH,hH,mask-4.png,mask-2.png,h,1,0.4048904003575444,h,1,0.13642390025779605,0.04649610025808215,0.0474240998737514,0.09958329983055592,0.10045999987050891,0.749867900274694
RSVPLG03,cs,20260424-103737,1.0.2,20251105-084826,830,Experiment,Both,1,Automatic,main,23,20260424-104010,global,local,300,H,S,A,A,H-A.png,A-S.png,hH,sS,mask-2.png,mask-1.png,h,1,0.32553069991990924,s,1,0.15022430010139942,0.04570190003141761,0.04763949988409877,0.09890880016610026,0.10060709994286299,0.29959260020405054
RSVPLG03,cs,20260424-103737,1.0.2,20251105-084826,830,Experiment,Both,1,Automatic,main,24,20260424-104014,global,local,300,H,H,A,A,H-A.png,A-H.png,hH,hH,mask-4.png,mask-4.png,h,1,0.34894979977980256,h,1,0.09073950024321675,0.04752499982714653,0.04751679999753833,0.10057420004159212,0.09953600028529763,0.3008547998033464
RSVPLG03,cs,20260424-103737,1.0.2,20251105-084826,830,Experiment,Both,1,Automatic,main,25,20260424-104018,global,global,300,H,H,E,E,H-E.png,H-E.png,hH,hH,mask-2.png,mask-3.png,h,1,0.3984795999713242,s,0,0.2279496998526156,0.048748199827969074,0.04775859974324703,0.09999629994854331,0.1000025998800993,0.30091230012476444
RSVPLG03,cs,20260424-103737,1.0.2,20251105-084826,830,Experiment,Both,1,Automatic,main,26,20260424-104056,global,local,300,H,S,A,E,H-A.png,E-S.png,hH,sS,mask-1.png,mask-3.png,h,1,0.3830534000881016,s,1,0.6139823002740741,0.04649159964174032,0.04648360004648566,0.09960029972717166,0.09858620027080178,0.30001649959012866
RSVPLG03,cs,20260424-103737,1.0.2,20251105-084826,830,Experiment,Both,1,Automatic,main,27,20260424-104101,local,global,300,H,S,A,E,A-H.png,S-E.png,hH,sS,mask-3.png,mask-4.png,h,1,0.42499749967828393,s,1,0.035655600018799305,0.04727650014683604,0.0474740001372993,0.09917089994996786,0.09934259997680783,0.3001278000883758
RSVPLG03,cs,20260424-103737,1.0.2,20251105-084826,830,Experiment,Both,1,Automatic,main,28,20260424-104105,local,local,750,S,H,E,E,E-S.png,E-H.png,sS,hH,mask-1.png,mask-4.png,s,1,0.34348509972915053,h,1,0.0699704997241497,0.04761860007420182,0.04860959993675351,0.09864980028942227,0.10063070012256503,0.7490602000616491
RSVPLG03,cs,20260424-103737,1.0.2,20251105-084826,830,Experiment,Both,1,Automatic,main,29,20260424-104110,global,global,750,S,S,A,A,S-A.png,S-A.png,sS,sS,mask-1.png,mask-3.png,s,1,0.4098145002499223,s,1,0.11733639985322952,0.0475059999153018,0.04859260004013777,0.10051649995148182,0.09950939984992146,0.7505135000683367
RSVPLG03,cs,20260424-103737,1.0.2,20251105-084826,830,Experiment,Both,1,Automatic,main,30,20260424-104115,global,local,300,S,S,A,A,S-A.png,A-S.png,sS,sS,mask-2.png,mask-4.png,s,1,0.44707380002364516,s,1,0.08789009973406792,0.046926799695938826,0.047697899863123894,0.10013859998434782,0.09990340005606413,0.29977509984746575
RSVPLG03,cs,20260424-103737,1.0.2,20251105-084826,830,Experiment,Both,1,Automatic,main,31,20260424-104119,global,local,750,H,S,A,E,H-A.png,E-S.png,hH,sS,mask-4.png,mask-3.png,h,1,0.26651200000196695,s,1,0.12174979969859123,0.045795599929988384,0.04769399994984269,0.09889939986169338,0.09994670003652573,0.7501960997469723
RSVPLG03,cs,20260424-103737,1.0.2,20251105-084826,830,Experiment,Both,1,Automatic,main,32,20260424-104124,global,global,750,H,S,E,E,H-E.png,S-E.png,hH,sS,mask-1.png,mask-4.png,h,1,0.3974874000996351,s,1,0.07420039968565106,0.04667349997907877,0.04771499987691641,0.10015820013359189,0.10098129976540804,0.7490609004162252
RSVPLG03,cs,20260424-103737,1.0.2,20251105-084826,830,Experiment,Both,1,Automatic,main,33,20260424-104128,global,global,750,H,S,E,A,H-E.png,S-A.png,hH,sS,mask-2.png,mask-3.png,h,1,0.2845757002942264,s,1,0.06842010002583265,0.04867469985038042,0.04766419995576143,0.0999331995844841,0.09984990023076534,0.7510964996181428
RSVPLG03,cs,20260424-103737,1.0.2,20251105-084826,830,Experiment,Both,1,Automatic,main,34,20260424-104133,local,global,300,S,S,E,A,E-S.png,S-A.png,sS,sS,mask-4.png,mask-1.png,s,1,0.3862657002173364,s,1,0.10753559973090887,0.04771560011431575,0.04758200002834201,0.09932970022782683,0.10063620004802942,0.2997572999447584
RSVPLG03,cs,20260424-103737,1.0.2,20251105-084826,830,Experiment,Both,1,Automatic,main,35,20260424-104137,local,global,750,S,H,E,A,E-S.png,H-A.png,sS,hH,mask-3.png,mask-3.png,s,1,0.42334030009806156,h,1,0.1708045001141727,0.046516799833625555,0.04762039985507727,0.09970739996060729,0.10184089979156852,0.7499752999283373
RSVPLG03,cs,20260424-103737,1.0.2,20251105-084826,830,Experiment,Both,1,Automatic,main,36,20260424-104142,local,global,300,H,S,E,A,E-H.png,S-A.png,hH,sS,mask-2.png,mask-2.png,h,1,0.6224770001135767,h,0,0.10137600032612681,0.045710899867117405,0.0477271000854671,0.09996759984642267,0.09982019988819957,0.2998422998934984
RSVPLG03,cs,20260424-103737,1.0.2,20251105-084826,830,Experiment,Both,1,Automatic,main,37,20260424-104147,global,global,750,S,S,E,E,S-E.png,S-E.png,sS,sS,mask-3.png,mask-2.png,s,1,0.26732039963826537,s,1,0.10606699995696545,0.04769660020247102,0.046720999758690596,0.09814710030332208,0.09991619968786836,0.7499470002949238
RSVPLG03,cs,20260424-103737,1.0.2,20251105-084826,830,Experiment,Both,1,Automatic,main,38,20260424-104151,global,local,750,S,H,A,A,S-A.png,A-H.png,sS,hH,mask-2.png,mask-2.png,s,1,0.3279156000353396,h,1,0.13387349992990494,0.04671050002798438,0.04864860000088811,0.09991890005767345,0.10087569989264011,0.7502557002007961
RSVPLG03,cs,20260424-103737,1.0.2,20251105-084826,830,Experiment,Both,1,Automatic,main,39,20260424-104156,local,local,750,S,S,A,A,A-S.png,A-S.png,sS,sS,mask-4.png,mask-3.png,h,0,0.2525988998822868,s,1,0.17079170001670718,0.04717490030452609,0.04878099961206317,0.0993478000164032,0.0999479996971786,0.7504927003756166
RSVPLG03,cs,20260424-103737,1.0.2,20251105-084826,830,Experiment,Both,1,Automatic,main,40,20260424-104200,global,local,300,H,H,E,E,H-E.png,E-H.png,hH,hH,mask-1.png,mask-4.png,h,1,0.4514363999478519,h,1,0.1565455999225378,0.047607199754565954,0.04763519996777177,0.09984899964183569,0.10008830018341541,0.29953019972890615
RSVPLG03,cs,20260424-103737,1.0.2,20251105-084826,830,Experiment,Both,1,Automatic,main,41,20260424-104205,global,local,750,H,S,E,E,H-E.png,E-S.png,hH,sS,mask-2.png,mask-2.png,h,1,0.3515313998796046,s,1,0.06949970033019781,0.04669320024549961,0.047720400150865316,0.10090750036761165,0.10083840042352676,0.7503468999639153
RSVPLG03,cs,20260424-103737,1.0.2,20251105-084826,830,Experiment,Both,1,Automatic,main,42,20260424-104209,local,global,750,S,S,A,E,A-S.png,S-E.png,sS,sS,mask-2.png,mask-4.png,h,0,0.3082543001510203,s,1,0.09041130030527711,0.04673699988052249,0.046661300119012594,0.09956589993089437,0.10092419991269708,0.7502641999162734
RSVPLG03,cs,20260424-103737,1.0.2,20251105-084826,830,Experiment,Both,1,Automatic,main,43,20260424-104214,global,local,750,H,H,A,E,H-A.png,E-H.png,hH,hH,mask-4.png,mask-2.png,h,1,0.39673769986256957,h,1,0.12360719963908195,0.04665130004286766,0.0478214998729527,0.09887700015679002,0.09905479988083243,0.750318800099194
RSVPLG03,cs,20260424-103737,1.0.2,20251105-084826,830,Experiment,Both,1,Automatic,main,44,20260424-104219,local,global,750,H,S,A,E,A-H.png,S-E.png,hH,sS,mask-2.png,mask-2.png,h,1,0.31982209999114275,s,1,0.07082009967416525,0.04873419972136617,0.047528000082820654,0.09993999963626266,0.09875450003892183,0.751919399946928
RSVPLG03,cs,20260424-103737,1.0.2,20251105-084826,830,Experiment,Both,1,Automatic,main,45,20260424-104223,local,global,750,H,S,E,E,E-H.png,S-E.png,hH,sS,mask-3.png,mask-2.png,s,0,0.3357116002589464,s,1,0.12317580031231046,0.04846840025857091,0.047673000022768974,0.09999880008399487,0.09980319999158382,0.7504439000040293
RSVPLG03,cs,20260424-103737,1.0.2,20251105-084826,830,Experiment,Both,1,Automatic,main,46,20260424-104228,local,local,300,S,H,A,A,A-S.png,A-H.png,sS,hH,mask-1.png,mask-1.png,s,1,0.38880550023168325,h,1,0.17044720007106662,0.047738599590957165,0.04873950034379959,0.0989733999595046,0.10094500007107854,0.2992538996040821
RSVPLG03,cs,20260424-103737,1.0.2,20251105-084826,830,Experiment,Both,1,Automatic,main,47,20260424-104232,global,global,750,H,S,E,E,H-E.png,S-E.png,hH,sS,mask-1.png,mask-3.png,s,0,0.5230978997424245,s,1,0.15190239995718002,0.047759799752384424,0.04768089996650815,0.10180060006678104,0.10078499978408217,0.7511379001662135
RSVPLG03,cs,20260424-103737,1.0.2,20251105-084826,830,Experiment,Both,1,Automatic,main,48,20260424-104237,global,global,300,S,H,E,A,S-E.png,H-A.png,sS,hH,mask-1.png,mask-2.png,s,1,0.38705840008333325,h,1,0.07462329976260662,0.04605840006843209,0.046723300125449896,0.09937739977613091,0.09898870019242167,0.30051569966599345
RSVPLG03,cs,20260424-103737,1.0.2,20251105-084826,830,Experiment,Both,1,Automatic,main,49,20260424-104241,global,global,300,H,H,A,A,H-A.png,H-A.png,hH,hH,mask-4.png,mask-4.png,h,1,0.33614900009706616,h,1,0.11850180011242628,0.047333700116723776,0.04666129965335131,0.09952120017260313,0.09981909999623895,0.2999972002580762
RSVPLG03,cs,20260424-103737,1.0.2,20251105-084826,830,Experiment,Both,1,Automatic,main,50,20260424-104245,global,global,750,S,H,E,E,S-E.png,H-E.png,sS,hH,mask-4.png,mask-3.png,s,1,0.36291269958019257,h,1,0.13663449976593256,0.04692560015246272,0.04757379973307252,0.0990077001042664,0.09979290002956986,0.7495073000900447
RSVPLG03,cs,20260424-103737,1.0.2,20251105-084826,830,Experiment,Both,1,Automatic,main,51,20260424-104254,local,local,300,S,H,A,A,A-S.png,A-H.png,sS,hH,mask-3.png,mask-1.png,s,1,0.32182310009375215,h,1,0.4822277002967894,0.04767320025712252,0.046726500149816275,0.09974580025300384,0.10007460042834282,0.2995322998613119
RSVPLG03,cs,20260424-103737,1.0.2,20251105-084826,830,Experiment,Both,1,Automatic,main,52,20260424-104258,local,local,750,S,H,A,A,A-S.png,A-H.png,sS,hH,mask-1.png,mask-3.png,h,0,0.30238609993830323,h,1,0.09626269992440939,0.04753390001133084,0.04752340028062463,0.10039439983665943,0.09956330014392734,0.7502667997032404
RSVPLG03,cs,20260424-103737,1.0.2,20251105-084826,830,Experiment,Both,1,Automatic,main,53,20260424-104303,global,global,300,H,H,E,A,H-E.png,H-A.png,hH,hH,mask-4.png,mask-2.png,h,1,0.46220630034804344,h,1,0.06866230024024844,0.045777800027281046,0.04739419976249337,0.09985720040276647,0.10041139973327518,0.30013470025733113
RSVPLG03,cs,20260424-103737,1.0.2,20251105-084826,830,Experiment,Both,1,Automatic,main,54,20260424-104307,local,local,300,H,H,E,E,E-H.png,E-H.png,hH,hH,mask-2.png,mask-4.png,s,0,0.5796161997132003,h,1,0.19594629993662238,0.0485024000518024,0.04755859961733222,0.10058289999142289,0.09976110002025962,0.3010130003094673
RSVPLG03,cs,20260424-103737,1.0.2,20251105-084826,830,Experiment,Both,1,Automatic,main,55,20260424-104312,global,global,300,H,H,E,A,H-E.png,H-A.png,hH,hH,mask-3.png,mask-2.png,h,1,0.412387500051409,h,1,0.24620980024337769,0.04816800029948354,0.04768479987978935,0.10145170008763671,0.09989319974556565,0.30209150025621057
RSVPLG03,cs,20260424-103737,1.0.2,20251105-084826,830,Experiment,Both,1,Automatic,main,56,20260424-104316,global,local,300,H,S,A,A,H-A.png,A-S.png,hH,sS,mask-1.png,mask-3.png,h,1,0.496318600140512,h,0,0.12677760003134608,0.04749750019982457,0.04745930014178157,0.10069209989160299,0.10147080011665821,0.29947749990969896
RSVPLG03,cs,20260424-103737,1.0.2,20251105-084826,830,Experiment,Both,1,Automatic,main,57,20260424-104320,local,global,750,H,H,A,A,A-H.png,H-A.png,hH,hH,mask-4.png,mask-4.png,h,1,0.2915664999745786,h,1,0.12169240042567253,0.04751100018620491,0.04869409976527095,0.10156230023130774,0.10087439976632595,0.7509147003293037
RSVPLG03,cs,20260424-103737,1.0.2,20251105-084826,830,Experiment,Both,1,Automatic,main,58,20260424-104325,global,global,750,S,H,E,A,S-E.png,H-A.png,sS,hH,mask-1.png,mask-1.png,s,1,0.655916300136596,h,1,0.09898790018633008,0.04765899991616607,0.04769330006092787,0.10144149977713823,0.09937250008806586,0.7512750998139381
RSVPLG03,cs,20260424-103737,1.0.2,20251105-084826,830,Experiment,Both,1,Automatic,main,59,20260424-104330,local,local,300,H,S,E,E,E-H.png,E-S.png,hH,sS,mask-2.png,mask-1.png,h,1,0.4851254001259804,h,0,0.14846620010212064,0.0475165001116693,0.04648360004648566,0.09955590032041073,0.0993290999904275,0.30131909996271133
RSVPLG03,cs,20260424-103737,1.0.2,20251105-084826,830,Experiment,Both,1,Automatic,main,60,20260424-104334,global,global,750,S,H,A,E,S-A.png,H-E.png,sS,hH,mask-4.png,mask-4.png,s,1,0.42839800007641315,h,1,0.15051680011674762,0.04768100008368492,0.047619199845939875,0.09970769984647632,0.09981259983032942,0.7503603999502957
RSVPLG03,cs,20260424-103737,1.0.2,20251105-084826,830,Experiment,Both,1,Automatic,main,61,20260424-104339,local,local,750,S,H,A,A,A-S.png,A-H.png,sS,hH,mask-3.png,mask-3.png,s,1,0.5586475003510714,h,1,0.13987459987401962,0.047658400144428015,0.047683299984782934,0.10184769984334707,0.09988670004531741,0.7514829998835921
RSVPLG03,cs,20260424-103737,1.0.2,20251105-084826,830,Experiment,Both,1,Automatic,main,62,20260424-104344,global,local,300,H,S,A,E,H-A.png,E-S.png,hH,sS,mask-2.png,mask-1.png,h,1,0.3366831000894308,s,1,0.23061669990420341,0.04769610008224845,0.04566439986228943,0.09990429971367121,0.09805819997563958,0.3004928999580443
RSVPLG03,cs,20260424-103737,1.0.2,20251105-084826,830,Experiment,Both,1,Automatic,main,63,20260424-104348,global,global,300,H,S,E,A,H-E.png,S-A.png,hH,sS,mask-1.png,mask-3.png,h,1,0.3308981996960938,s,1,0.05965160019695759,0.04864329984411597,0.047538300044834614,0.0996488998644054,0.09997439989820123,0.3014499000273645
RSVPLG03,cs,20260424-103737,1.0.2,20251105-084826,830,Experiment,Both,1,Automatic,main,64,20260424-104352,local,global,750,H,S,E,E,E-H.png,S-E.png,hH,sS,mask-2.png,mask-3.png,h,1,0.335411099717021,h,0,0.13589029991999269,0.04705190006643534,0.04756380012258887,0.10115810018032789,0.09964640019461513,0.7516077999025583
RSVPLG03,cs,20260424-103737,1.0.2,20251105-084826,830,Experiment,Both,1,Automatic,main,65,20260424-104357,global,local,750,S,H,E,E,S-E.png,E-H.png,sS,hH,mask-1.png,mask-1.png,s,1,0.1390712996944785,h,1,0.05533599993214011,0.04886850016191602,0.04640260012820363,0.1009166999720037,0.09988950006663799,0.7519915997982025
RSVPLG03,cs,20260424-103737,1.0.2,20251105-084826,830,Experiment,Both,1,Automatic,main,66,20260424-104401,local,global,750,S,S,A,A,A-S.png,S-A.png,sS,sS,mask-2.png,mask-1.png,h,0,0.2775296000763774,s,1,0.048645100090652704,0.048410100396722555,0.04763449961319566,0.1006207000464201,0.10106579959392548,0.7507888004183769
RSVPLG03,cs,20260424-103737,1.0.2,20251105-084826,830,Experiment,Both,1,Automatic,main,67,20260424-104406,local,local,300,S,S,A,A,A-S.png,A-S.png,sS,sS,mask-1.png,mask-1.png,h,0,0.3770161997526884,s,1,0.0890039000660181,0.04713599989190698,0.04720029979944229,0.10023520002141595,0.10019200015813112,0.2999652000144124
RSVPLG03,cs,20260424-103737,1.0.2,20251105-084826,830,Experiment,Both,1,Automatic,main,68,20260424-104410,local,local,750,S,S,E,A,E-S.png,A-S.png,sS,sS,mask-2.png,mask-3.png,s,1,0.16210589976981282,h,0,0.11917489999905229,0.0475169001147151,0.04730800027027726,0.10054189991205931,0.09860730031505227,0.7514026998542249
RSVPLG03,cs,20260424-103737,1.0.2,20251105-084826,830,Experiment,Both,1,Automatic,main,69,20260424-104415,local,local,300,H,S,E,A,E-H.png,A-S.png,hH,sS,mask-4.png,mask-3.png,h,1,0.33220400009304285,s,1,0.060697500128299,0.04741040011867881,0.04947290010750294,0.10040049999952316,0.10110650025308132,0.29871129989624023
RSVPLG03,cs,20260424-103737,1.0.2,20251105-084826,830,Experiment,Both,1,Automatic,main,70,20260424-104419,local,local,300,S,S,A,E,A-S.png,E-S.png,sS,sS,mask-3.png,mask-3.png,h,0,0.47625890001654625,h,0,0.11511129979044199,0.047646500170230865,0.047550900373607874,0.09966190019622445,0.10060490015894175,0.299934399779886
RSVPLG03,cs,20260424-103737,1.0.2,20251105-084826,830,Experiment,Both,1,Automatic,main,71,20260424-104423,local,global,750,S,S,E,A,E-S.png,S-A.png,sS,sS,mask-2.png,mask-1.png,s,1,0.10781070031225681,s,1,0.2555265002883971,0.047511900309473276,0.047492800280451775,0.09952040016651154,0.1014927001670003,0.7494324999861419
RSVPLG03,cs,20260424-103737,1.0.2,20251105-084826,830,Experiment,Both,1,Automatic,main,72,20260424-104428,local,global,750,H,H,E,A,E-H.png,H-A.png,hH,hH,mask-2.png,mask-1.png,h,1,0.6677214000374079,h,1,0.1049709003418684,0.04850770020857453,0.04748799977824092,0.10050200019031763,0.099471400026232,0.7508986000902951
RSVPLG03,cs,20260424-103737,1.0.2,20251105-084826,830,Experiment,Both,1,Automatic,main,73,20260424-104432,global,global,300,S,H,A,E,S-A.png,H-E.png,sS,hH,mask-3.png,mask-3.png,s,1,0.2832994000054896,h,1,0.14883009996265173,0.04770129965618253,0.047524099703878164,0.09992090007290244,0.10051489993929863,0.29960200004279613
RSVPLG03,cs,20260424-103737,1.0.2,20251105-084826,830,Experiment,Both,1,Automatic,main,74,20260424-104437,global,global,300,S,H,E,E,S-E.png,H-E.png,sS,hH,mask-2.png,mask-4.png,s,1,0.47026959992945194,h,1,0.13340810034424067,0.04751550033688545,0.04858009982854128,0.09950290014967322,0.10064009996131063,0.2992867003194988
RSVPLG03,cs,20260424-103737,1.0.2,20251105-084826,830,Experiment,Both,1,Automatic,main,75,20260424-104441,global,local,750,H,H,E,E,H-E.png,E-H.png,hH,hH,mask-3.png,mask-4.png,h,1,0.46145479986444116,h,1,0.15033420035615563,0.046834500040858984,0.0478916997089982,0.09977269964292645,0.10092550003901124,0.7492289999499917
RSVPLG03,cs,20260424-103737,1.0.2,20251105-084826,830,Experiment,Both,1,Automatic,main,76,20260424-104450,global,local,750,S,H,A,A,S-A.png,A-H.png,sS,hH,mask-3.png,mask-2.png,s,1,0.3152227997779846,h,1,0.10227249981835485,0.04771400010213256,0.04770200001075864,0.0988845000974834,0.09988859994336963,0.7502343002706766
RSVPLG03,cs,20260424-103737,1.0.2,20251105-084826,830,Experiment,Both,1,Automatic,main,77,20260424-104454,global,local,300,S,H,A,E,S-A.png,E-H.png,sS,hH,mask-3.png,mask-3.png,s,1,0.42916519986465573,s,0,0.15383749967440963,0.04930799966678023,0.04574480000883341,0.10148669965565205,0.09993520006537437,0.30212089978158474
RSVPLG03,cs,20260424-103737,1.0.2,20251105-084826,830,Experiment,Both,1,Automatic,main,78,20260424-104458,global,global,300,H,S,A,A,H-A.png,S-A.png,hH,sS,mask-3.png,mask-1.png,h,1,0.4642793000675738,h,0,0.17508779978379607,0.04769890010356903,0.04770880006253719,0.09993800008669496,0.09990600030869246,0.29956729989498854
RSVPLG03,cs,20260424-103737,1.0.2,20251105-084826,830,Experiment,Both,1,Automatic,main,79,20260424-104503,global,local,300,S,H,E,A,S-E.png,A-H.png,sS,hH,mask-2.png,mask-1.png,s,1,0.17719310009852052,h,1,0.07781590009108186,0.04872590024024248,0.0467459000647068,0.09999149991199374,0.099836400244385,0.3013871000148356
RSVPLG03,cs,20260424-103737,1.0.2,20251105-084826,830,Experiment,Both,1,Automatic,main,80,20260424-104507,local,global,300,S,S,E,A,E-S.png,S-A.png,sS,sS,mask-4.png,mask-2.png,s,1,0.2938596997410059,h,0,0.11903010029345751,0.04849610012024641,0.04750820016488433,0.10050690034404397,0.10049970028921962,0.2997775999829173
RSVPLG03,cs,20260424-103737,1.0.2,20251105-084826,830,Experiment,Both,1,Automatic,main,81,20260424-104511,local,global,300,H,S,E,E,E-H.png,S-E.png,hH,sS,mask-1.png,mask-1.png,h,1,0.3740714001469314,s,1,0.058403899893164635,0.04868520004674792,0.04729789961129427,0.09954280033707619,0.10106419958174229,0.3001078004017472
RSVPLG03,cs,20260424-103737,1.0.2,20251105-084826,830,Experiment,Both,1,Automatic,main,82,20260424-104515,global,local,300,S,S,A,E,S-A.png,E-S.png,sS,sS,mask-1.png,mask-1.png,s,1,0.2414347999729216,h,0,0.2040156996808946,0.04753720015287399,0.046907899901270866,0.0995767000131309,0.10002190014347434,0.29988270020112395
RSVPLG03,cs,20260424-103737,1.0.2,20251105-084826,830,Experiment,Both,1,Automatic,main,83,20260424-104519,local,local,300,S,H,E,A,E-S.png,A-H.png,sS,hH,mask-4.png,mask-1.png,s,1,0.4126711003482342,h,1,0.15536910016089678,0.047508399933576584,0.04750650003552437,0.09975099982693791,0.09891809988766909,0.3009893000125885
RSVPLG03,cs,20260424-103737,1.0.2,20251105-084826,830,Experiment,Both,1,Automatic,main,84,20260424-104524,local,global,300,S,S,A,A,A-S.png,S-A.png,sS,sS,mask-1.png,mask-4.png,s,1,0.4220739998854697,s,1,0.34748269990086555,0.04751259973272681,0.045686899684369564,0.10051049990579486,0.10076609998941422,0.3008278999477625
RSVPLG03,cs,20260424-103737,1.0.2,20251105-084826,830,Experiment,Both,1,Automatic,main,85,20260424-104528,local,global,300,S,S,A,A,A-S.png,S-A.png,sS,sS,mask-4.png,mask-4.png,h,0,0.41564409993588924,s,1,0.10831210017204285,0.04772380040958524,0.048723400104790926,0.0998220001347363,0.10091850021854043,0.2985082999803126
RSVPLG03,cs,20260424-103737,1.0.2,20251105-084826,830,Experiment,Both,1,Automatic,main,86,20260424-104532,global,local,300,S,H,A,A,S-A.png,A-H.png,sS,hH,mask-3.png,mask-2.png,s,1,0.27173970034345984,h,1,0.11954089999198914,0.04669900005683303,0.04569610022008419,0.09990799985826015,0.0997319002635777,0.30060929991304874
RSVPLG03,cs,20260424-103737,1.0.2,20251105-084826,830,Experiment,Both,1,Automatic,main,87,20260424-104537,local,local,750,S,H,E,A,E-S.png,A-H.png,sS,hH,mask-4.png,mask-1.png,s,1,0.32126620039343834,h,1,0.14056169986724854,0.04828860005363822,0.04767620004713535,0.10137110017240047,0.09996800031512976,0.7516319998539984
RSVPLG03,cs,20260424-103737,1.0.2,20251105-084826,830,Experiment,Both,1,Automatic,main,88,20260424-104541,local,global,300,S,H,E,A,E-S.png,H-A.png,sS,hH,mask-3.png,mask-3.png,s,1,0.34312660014256835,h,1,0.06655929982662201,0.047396100126206875,0.045765699818730354,0.1002822001464665,0.09986589988693595,0.30034360010176897
RSVPLG03,cs,20260424-103737,1.0.2,20251105-084826,830,Experiment,Both,1,Automatic,main,89,20260424-104545,global,global,750,H,H,A,E,H-A.png,H-E.png,hH,hH,mask-3.png,mask-2.png,h,1,0.35482640005648136,h,1,0.10567419975996017,0.047617200296372175,0.04756850004196167,0.1007481999695301,0.09956980030983686,0.7507976000197232
RSVPLG03,cs,20260424-103737,1.0.2,20251105-084826,830,Experiment,Both,1,Automatic,main,90,20260424-104550,global,local,750,H,S,A,E,H-A.png,E-S.png,hH,sS,mask-4.png,mask-2.png,h,1,0.37707530008628964,h,0,0.1623500999994576,0.0465505002066493,0.046567900106310844,0.0978604000993073,0.09896830003708601,0.7503642998635769
RSVPLG03,cs,20260424-103737,1.0.2,20251105-084826,830,Experiment,Both,1,Automatic,main,91,20260424-104555,global,local,750,S,H,E,A,S-E.png,A-H.png,sS,hH,mask-4.png,mask-2.png,s,1,0.25194779969751835,h,1,0.05728020006790757,0.04751410009339452,0.0488213999196887,0.09958910010755062,0.10091880010440946,0.7493139998987317
RSVPLG03,cs,20260424-103737,1.0.2,20251105-084826,830,Experiment,Both,1,Automatic,main,92,20260424-104559,global,local,750,H,H,A,A,H-A.png,A-H.png,hH,hH,mask-3.png,mask-2.png,h,1,0.15378420008346438,h,1,0.13827349990606308,0.04667619988322258,0.047301100101321936,0.0988723998889327,0.10029829991981387,0.750436999835074
RSVPLG03,cs,20260424-103737,1.0.2,20251105-084826,830,Experiment,Both,1,Automatic,main,93,20260424-104604,local,local,300,S,S,E,E,E-S.png,E-S.png,sS,sS,mask-1.png,mask-2.png,s,1,0.32686749985441566,h,0,0.09383240016177297,0.04868240002542734,0.047476999927312136,0.10071719996631145,0.09969029994681478,0.30131480004638433
RSVPLG03,cs,20260424-103737,1.0.2,20251105-084826,830,Experiment,Both,1,Automatic,main,94,20260424-104608,local,global,300,S,H,E,E,E-S.png,H-E.png,sS,hH,mask-3.png,mask-2.png,s,1,0.4039782998152077,h,1,0.1389733999967575,0.048792799934744835,0.047649099957197905,0.10199970006942749,0.1003294000402093,0.3007947998121381
RSVPLG03,cs,20260424-103737,1.0.2,20251105-084826,830,Experiment,Both,1,Automatic,main,95,20260424-104612,local,global,750,H,H,A,A,A-H.png,H-A.png,hH,hH,mask-2.png,mask-2.png,h,1,0.2561929998919368,h,1,0.15168200014159083,0.048566299956291914,0.04665610007941723,0.10058780014514923,0.09975480008870363,0.7516415002755821
RSVPLG03,cs,20260424-103737,1.0.2,20251105-084826,830,Experiment,Both,1,Automatic,main,96,20260424-104617,local,global,750,S,H,A,E,A-S.png,H-E.png,sS,hH,mask-1.png,mask-1.png,s,1,0.6439172001555562,h,1,0.11493510007858276,0.04737789975479245,0.04752609971910715,0.10025619994848967,0.10053549986332655,0.7499993001110852
RSVPLG03,cs,20260424-103737,1.0.2,20251105-084826,830,Experiment,Both,1,Automatic,main,97,20260424-104621,local,global,300,S,S,A,E,A-S.png,S-E.png,sS,sS,mask-3.png,mask-2.png,h,0,0.4094517999328673,s,1,0.1022359998896718,0.04655229998752475,0.04740179982036352,0.09958319971337914,0.09928799979388714,0.29983050003647804
RSVPLG03,cs,20260424-103737,1.0.2,20251105-084826,830,Experiment,Both,1,Automatic,main,98,20260424-104626,local,local,750,H,H,A,A,A-H.png,A-H.png,hH,hH,mask-1.png,mask-3.png,h,1,0.20685190008953214,h,1,0.1493579000234604,0.04787770006805658,0.04723770031705499,0.10097459983080626,0.09979319991543889,0.7503921999596059
RSVPLG03,cs,20260424-103737,1.0.2,20251105-084826,830,Experiment,Both,1,Automatic,main,99,20260424-104630,global,global,750,H,S,A,A,H-A.png,S-A.png,hH,sS,mask-1.png,mask-3.png,h,1,0.2503553000278771,h,0,0.15701500000432134,0.04657939961180091,0.04755549971014261,0.1006000000052154,0.10057229967787862,0.7511195000261068
RSVPLG03,cs,20260424-103737,1.0.2,20251105-084826,830,Experiment,Both,1,Automatic,main,100,20260424-104635,local,local,300,H,H,E,A,E-H.png,A-H.png,hH,hH,mask-1.png,mask-1.png,h,1,0.425545500125736,h,1,0.14817459974437952,0.046531999949365854,0.04754990013316274,0.09955610008910298,0.09877200005576015,0.29983199993148446
