exp,exp_initials,runtime,ver,modtime,sub,blocktype,targets,cuetype,mode,trialtype,trial,trialtime,t1_level,t2_level,t2_lag,t1,t2,distractor1,distractor2,stimfile1,stimfile2,t1_corr,t2_corr,maskfile1,maskfile2,t1_resp,t1_acc,t1_rt,t2_resp,t2_acc,t2_rt,t1_dur,t2_dur,t1mask_soa,t2mask_soa,t1t2_soa
RSVPLG03,JM,20251020-101458,1.0.1,20251020-085245,704,Introduction,T1,1,Automatic,main,1,20251020-101546,local,global,750,S,S,A,E,A-S.png,S-E.png,sS,sS,mask-1.png,mask-4.png,s,1,4.647777199978009,none,-5,0,0.09460070007480681,0.09865160007029772,0.19592640013433993,0.20126660005189478,0.7484381999820471
RSVPLG03,JM,20251020-101458,1.0.1,20251020-085245,704,Introduction,T1,1,Automatic,main,2,20251020-101555,global,global,750,S,H,E,A,S-E.png,H-A.png,sS,hH,mask-2.png,mask-1.png,h,0,2.937563000014052,none,-5,0,0.09748329990543425,0.09770929999649525,0.2013298999518156,0.19964180001989007,0.7524772000033408
RSVPLG03,JM,20251020-101458,1.0.1,20251020-085245,704,Introduction,T1,1,Automatic,main,3,20251020-101602,global,local,750,S,S,A,A,S-A.png,A-S.png,sS,sS,mask-4.png,mask-3.png,s,1,0.9737801998853683,none,-5,0,0.09764149994589388,0.09738239995203912,0.20134549983777106,0.201516899978742,0.7519829999655485
RSVPLG03,JM,20251020-101458,1.0.1,20251020-085245,704,Introduction,T1,1,Automatic,main,4,20251020-101607,local,local,750,H,S,E,A,E-H.png,A-S.png,hH,sS,mask-4.png,mask-2.png,h,1,5.474358499981463,none,-5,0,0.09765240014530718,0.0971420998685062,0.20062140002846718,0.2009202998597175,0.7516255001537502
RSVPLG03,JM,20251020-101458,1.0.1,20251020-085245,704,Introduction,T1,1,Automatic,main,5,20251020-101616,global,local,750,S,H,A,E,S-A.png,E-H.png,sS,hH,mask-1.png,mask-1.png,h,0,0.7669803998433053,none,-5,0,0.0973187000490725,0.09797800006344914,0.19921440002508461,0.20178390014916658,0.7511460999958217
RSVPLG03,JM,20251020-101458,1.0.1,20251020-085245,704,Introduction,T1,1,Automatic,main,6,20251020-101621,local,local,750,S,H,A,A,A-S.png,A-H.png,sS,hH,mask-4.png,mask-1.png,s,1,1.0327568999491632,none,-5,0,0.09619509987533092,0.09750179992988706,0.2006043998990208,0.19937569997273386,0.7522565999533981
RSVPLG03,JM,20251020-101458,1.0.1,20251020-085245,704,Introduction,T1,1,Automatic,main,7,20251020-101627,global,global,750,S,H,A,A,S-A.png,H-A.png,sS,hH,mask-1.png,mask-3.png,s,1,1.4319953999947757,none,-5,0,0.09841249999590218,0.09738159994594753,0.19916300009936094,0.19914439995773137,0.752438300056383
RSVPLG03,JM,20251020-101458,1.0.1,20251020-085245,704,Introduction,T1,1,Automatic,main,8,20251020-101632,local,global,750,S,H,A,E,A-S.png,H-E.png,sS,hH,mask-4.png,mask-1.png,s,1,0.47489940002560616,none,-5,0,0.09871829999610782,0.09754189988598228,0.20094859995879233,0.2013119999319315,0.7526477000210434
RSVPLG03,JM,20251020-101458,1.0.1,20251020-085245,704,Introduction,T1,1,Automatic,main,9,20251020-101637,local,global,750,H,H,E,E,E-H.png,H-E.png,hH,hH,mask-1.png,mask-3.png,h,1,0.41257769986987114,none,-5,0,0.09746680012904108,0.09800889994949102,0.20051620015874505,0.2012062999419868,0.7522225000429899
RSVPLG03,JM,20251020-101458,1.0.1,20251020-085245,704,Introduction,T1,1,Automatic,main,10,20251020-101642,global,global,750,H,S,A,A,H-A.png,S-A.png,hH,sS,mask-2.png,mask-3.png,s,0,1.4735115999355912,none,-5,0,0.09748470014892519,0.09759370004758239,0.2005304000340402,0.2014723001047969,0.752299000043422
RSVPLG03,JM,20251020-101458,1.0.1,20251020-085245,704,Introduction,T1,1,Automatic,main,11,20251020-101647,global,local,750,H,H,E,A,H-E.png,A-H.png,hH,hH,mask-2.png,mask-3.png,h,1,0.931944299954921,none,-5,0,0.0984678000677377,0.09708119998686016,0.19999100011773407,0.20000879978761077,0.752430000109598
RSVPLG03,JM,20251020-101458,1.0.1,20251020-085245,704,Introduction,T1,1,Automatic,main,12,20251020-101652,local,global,750,S,S,A,A,A-S.png,S-A.png,sS,sS,mask-2.png,mask-2.png,s,1,0.3926375999581069,none,-5,0,0.09852540004067123,0.09724800009280443,0.2000740000512451,0.19999320013448596,0.7518575999420136
RSVPLG03,JM,20251020-101458,1.0.1,20251020-085245,704,Introduction,T1,1,Automatic,main,13,20251020-101657,global,global,750,H,H,E,A,H-E.png,H-A.png,hH,hH,mask-1.png,mask-3.png,h,1,1.0581632999237627,none,-5,0,0.09737320011481643,0.09639229997992516,0.2002459999639541,0.19894660008139908,0.7516572000458837
RSVPLG03,JM,20251020-101458,1.0.1,20251020-085245,704,Introduction,T1,1,Automatic,main,14,20251020-101702,local,local,750,H,H,E,E,E-H.png,E-H.png,hH,hH,mask-3.png,mask-4.png,h,1,0.3956641999538988,none,-5,0,0.09723909990862012,0.0975425997748971,0.20123280002735555,0.20065599982626736,0.751969400094822
RSVPLG03,JM,20251020-101458,1.0.1,20251020-085245,704,Introduction,T1,1,Automatic,main,15,20251020-101707,local,local,750,S,H,E,E,E-S.png,E-H.png,sS,hH,mask-1.png,mask-1.png,s,1,1.6841728000435978,none,-5,0,0.09840549994260073,0.09736989997327328,0.19995400006882846,0.19862030004151165,0.7536245000083
RSVPLG03,JM,20251020-101458,1.0.1,20251020-085245,704,Introduction,T1,1,Automatic,main,16,20251020-101712,global,local,750,S,S,A,A,S-A.png,A-S.png,sS,sS,mask-4.png,mask-3.png,s,1,1.028197699924931,none,-5,0,0.09842299995943904,0.09762299992144108,0.20148649998009205,0.1991623998619616,0.7537438999861479
RSVPLG03,JM,20251020-101818,1.0.1,20251020-085245,704,Practice,T1,1,Automatic,main,1,20251020-101850,local,local,300,H,H,A,E,A-H.png,E-H.png,hH,hH,mask-3.png,mask-3.png,h,1,1.0385567001067102,none,-5,0,0.040879799984395504,0.046681700041517615,0.09464999986812472,0.09959300002083182,0.29495129990391433
RSVPLG03,JM,20251020-101818,1.0.1,20251020-085245,704,Practice,T1,1,Automatic,main,2,20251020-101855,global,local,750,H,H,A,A,H-A.png,A-H.png,hH,hH,mask-3.png,mask-4.png,h,1,0.9445378999225795,none,-5,0,0.04888280015438795,0.04695439990609884,0.09935849998146296,0.10113450000062585,0.7517854000907391
RSVPLG03,JM,20251020-101818,1.0.1,20251020-085245,704,Practice,T1,1,Automatic,main,3,20251020-101900,local,global,750,S,S,A,A,A-S.png,S-A.png,sS,sS,mask-4.png,mask-2.png,s,1,1.6728749999310821,none,-5,0,0.047734100138768554,0.0476927999407053,0.0999972999561578,0.09996469994075596,0.7503981001209468
RSVPLG03,JM,20251020-101818,1.0.1,20251020-085245,704,Practice,T1,1,Automatic,main,4,20251020-101905,local,local,750,H,S,A,E,A-H.png,E-S.png,hH,sS,mask-1.png,mask-3.png,h,1,0.5276087999809533,none,-5,0,0.04570579994469881,0.0478019998408854,0.09970059990882874,0.0999779999256134,0.7498208000324667
RSVPLG03,JM,20251020-101818,1.0.1,20251020-085245,704,Practice,T1,1,Automatic,main,5,20251020-101910,local,global,300,H,S,A,E,A-H.png,S-E.png,hH,sS,mask-2.png,mask-4.png,h,1,0.8089560000225902,none,-5,0,0.04768990003503859,0.04769859998486936,0.09983600000850856,0.09994999994523823,0.2994391000829637
RSVPLG03,JM,20251020-101818,1.0.1,20251020-085245,704,Practice,T1,1,Automatic,main,6,20251020-101914,local,global,300,S,S,A,A,A-S.png,S-A.png,sS,sS,mask-4.png,mask-2.png,s,1,0.9669965000357479,none,-5,0,0.04757869988679886,0.04851339990273118,0.10065410006791353,0.10055759991519153,0.29988850001245737
RSVPLG03,JM,20251020-101818,1.0.1,20251020-085245,704,Practice,T1,1,Automatic,main,7,20251020-101919,global,global,750,S,H,A,E,S-A.png,H-E.png,sS,hH,mask-1.png,mask-1.png,h,0,1.1070101999212056,none,-5,0,0.04847829998470843,0.048798599978908896,0.10178560018539429,0.10002679983153939,0.7518741001840681
RSVPLG03,JM,20251020-101818,1.0.1,20251020-085245,704,Practice,T1,1,Automatic,main,8,20251020-101924,local,local,750,S,H,E,A,E-S.png,A-H.png,sS,hH,mask-1.png,mask-4.png,s,1,0.38179010013118386,none,-5,0,0.048856900073587894,0.0476931999437511,0.10105310007929802,0.10187170002609491,0.7514567000325769
RSVPLG03,JM,20251020-101818,1.0.1,20251020-085245,704,Practice,T1,1,Automatic,main,9,20251020-101928,global,local,300,S,H,E,E,S-E.png,E-H.png,sS,hH,mask-2.png,mask-3.png,h,0,0.9381264999974519,none,-5,0,0.04721900005824864,0.047148099867627025,0.1002863000612706,0.09946759999729693,0.29997580009512603
RSVPLG03,JM,20251020-101818,1.0.1,20251020-085245,704,Practice,T1,1,Automatic,main,10,20251020-101933,global,global,300,S,H,A,A,S-A.png,H-A.png,sS,hH,mask-4.png,mask-4.png,s,1,3.019377199932933,none,-5,0,0.04750730004161596,0.04748140019364655,0.09955959999933839,0.10049089998938143,0.29985249997116625
RSVPLG03,JM,20251020-101818,1.0.1,20251020-085245,704,Practice,T1,1,Automatic,main,11,20251020-101939,global,global,750,S,S,E,A,S-E.png,S-A.png,sS,sS,mask-4.png,mask-1.png,s,1,0.9093806999735534,none,-5,0,0.04728890000842512,0.04940659995190799,0.09869159990921617,0.10047229984775186,0.7498683000449091
RSVPLG03,JM,20251020-101818,1.0.1,20251020-085245,704,Practice,T1,1,Automatic,main,12,20251020-101944,local,global,750,S,S,A,A,A-S.png,S-A.png,sS,sS,mask-1.png,mask-2.png,s,1,0.26455919980071485,none,-5,0,0.04774129996076226,0.048678499879315495,0.09990600007586181,0.10111569985747337,0.7507180999964476
RSVPLG03,JM,20251020-101818,1.0.1,20251020-085245,704,Practice,T1,1,Automatic,main,13,20251020-101948,global,local,750,S,H,A,A,S-A.png,A-H.png,sS,hH,mask-1.png,mask-2.png,h,0,0.7660346999764442,none,-5,0,0.04745239997282624,0.047590200090780854,0.09939219988882542,0.10039940010756254,0.750860899919644
RSVPLG03,JM,20251020-101818,1.0.1,20251020-085245,704,Practice,T1,1,Automatic,main,14,20251020-101953,global,global,300,H,S,E,E,H-E.png,S-E.png,hH,sS,mask-3.png,mask-1.png,h,1,3.207515399903059,none,-5,0,0.04750689980573952,0.046683199936524034,0.10048079979605973,0.09983609989285469,0.3008302999660373
RSVPLG03,JM,20251020-101818,1.0.1,20251020-085245,704,Practice,T1,1,Automatic,main,15,20251020-102000,local,local,300,S,S,A,E,A-S.png,E-S.png,sS,sS,mask-3.png,mask-2.png,s,1,0.8226717999204993,none,-5,0,0.04843560000881553,0.04849880002439022,0.10050279996357858,0.10052919993177056,0.2995098000392318
RSVPLG03,JM,20251020-101818,1.0.1,20251020-085245,704,Practice,T1,1,Automatic,main,16,20251020-102004,global,local,300,S,S,A,A,S-A.png,A-S.png,sS,sS,mask-4.png,mask-2.png,s,1,0.7920921999029815,none,-5,0,0.04688209993764758,0.04660380003042519,0.0991067998111248,0.0986782000400126,0.3004264999181032
RSVPLG03,JM,20251020-102031,1.0.1,20251020-085245,704,Introduction,Both,1,Automatic,main,1,20251020-102057,global,local,750,H,H,A,E,H-A.png,E-H.png,hH,hH,mask-4.png,mask-3.png,h,1,1.8263344001024961,h,1,3.924723799806088,0.09152720007114112,0.09662450011819601,0.19355809991247952,0.19814140000380576,0.7436007999349385
RSVPLG03,JM,20251020-102031,1.0.1,20251020-085245,704,Introduction,Both,1,Automatic,main,2,20251020-102107,local,global,750,H,H,A,A,A-H.png,H-A.png,hH,hH,mask-4.png,mask-2.png,h,1,1.6437234999611974,s,0,1.0986564999911934,0.09656769991852343,0.09856639988720417,0.1996170999482274,0.19983349996618927,0.7478591999970376
RSVPLG03,JM,20251020-102031,1.0.1,20251020-085245,704,Introduction,Both,1,Automatic,main,3,20251020-102114,local,global,750,H,S,A,E,A-H.png,S-E.png,hH,sS,mask-3.png,mask-4.png,h,1,1.2984415998216718,h,0,0.4222746999002993,0.09676110022701323,0.09970910008996725,0.19980010017752647,0.20070180017501116,0.7476782000157982
RSVPLG03,JM,20251020-102031,1.0.1,20251020-085245,704,Introduction,Both,1,Automatic,main,4,20251020-102119,local,local,750,S,S,E,A,E-S.png,A-S.png,sS,sS,mask-1.png,mask-2.png,s,1,1.549543600063771,s,1,0.47858029999770224,0.09754260000772774,0.09638750017620623,0.20030449982732534,0.19843010022304952,0.7494996997993439
RSVPLG03,JM,20251020-102031,1.0.1,20251020-085245,704,Introduction,Both,1,Automatic,main,5,20251020-102126,local,global,750,S,S,E,E,E-S.png,S-E.png,sS,sS,mask-1.png,mask-3.png,s,1,1.080232399981469,s,1,0.3574808998964727,0.09741300018504262,0.0975378998555243,0.19919390021823347,0.19967340002767742,0.749472200172022
RSVPLG03,JM,20251020-102031,1.0.1,20251020-085245,704,Introduction,Both,1,Automatic,main,6,20251020-102131,local,local,750,H,S,A,A,A-H.png,A-S.png,hH,sS,mask-2.png,mask-1.png,h,1,1.7182521999347955,s,1,0.40870969998650253,0.09736330015584826,0.09639930003322661,0.20026170019991696,0.19943400006741285,0.7500289001036435
RSVPLG03,JM,20251020-102031,1.0.1,20251020-085245,704,Introduction,Both,1,Automatic,main,7,20251020-102138,global,global,750,H,S,A,E,H-A.png,S-E.png,hH,sS,mask-2.png,mask-3.png,s,0,3.2282404000870883,s,1,0.15647219982929528,0.09741050004959106,0.0978356001432985,0.1992883998900652,0.20070930011570454,0.7482713998761028
RSVPLG03,JM,20251020-102031,1.0.1,20251020-085245,704,Introduction,Both,1,Automatic,main,8,20251020-102145,global,local,750,H,S,A,A,H-A.png,A-S.png,hH,sS,mask-2.png,mask-3.png,h,1,1.4995417001191527,s,1,0.2846073000691831,0.09740890003740788,0.09636240010149777,0.19941869983449578,0.19862639997154474,0.7502188999205828
RSVPLG03,JM,20251020-102031,1.0.1,20251020-085245,704,Introduction,Both,1,Automatic,main,9,20251020-102151,global,local,750,H,H,E,A,H-E.png,A-H.png,hH,hH,mask-4.png,mask-2.png,s,0,1.0342671999242157,h,1,0.5184667999856174,0.0975538999773562,0.09729439998045564,0.20062260003760457,0.20045879995450377,0.749179600039497
RSVPLG03,JM,20251020-102031,1.0.1,20251020-085245,704,Introduction,Both,1,Automatic,main,10,20251020-102157,local,global,750,S,S,A,A,A-S.png,S-A.png,sS,sS,mask-3.png,mask-2.png,s,1,0.9451160000171512,h,0,0.41967429989017546,0.09740259987302125,0.09736000001430511,0.20027469983324409,0.19910280010662973,0.7498216999229044
RSVPLG03,JM,20251020-102031,1.0.1,20251020-085245,704,Introduction,Both,1,Automatic,main,11,20251020-102203,global,global,750,H,H,A,E,H-A.png,H-E.png,hH,hH,mask-3.png,mask-2.png,s,0,1.205501299817115,h,1,0.3471127999946475,0.09836539998650551,0.09763360000215471,0.2002043998800218,0.19900609995238483,0.7488420000299811
RSVPLG03,JM,20251020-102031,1.0.1,20251020-085245,704,Introduction,Both,1,Automatic,main,12,20251020-102208,local,local,750,H,H,A,A,A-H.png,A-H.png,hH,hH,mask-3.png,mask-4.png,h,1,1.8859850999433547,h,1,0.12152160005643964,0.09736889996565878,0.09755189996212721,0.20023069996386766,0.1995713000651449,0.7497568000108004
RSVPLG03,JM,20251020-102031,1.0.1,20251020-085245,704,Introduction,Both,1,Automatic,main,13,20251020-102215,global,local,750,S,H,A,E,S-A.png,E-H.png,sS,hH,mask-2.png,mask-1.png,h,0,3.17914370005019,h,1,0.3654185999184847,0.09857590007595718,0.09855450014583766,0.2006322001107037,0.20061830012127757,0.7488309999462217
RSVPLG03,JM,20251020-102031,1.0.1,20251020-085245,704,Introduction,Both,1,Automatic,main,14,20251020-102222,local,local,750,H,H,E,A,E-H.png,A-H.png,hH,hH,mask-2.png,mask-3.png,h,1,0.7036403000820428,h,1,0.33273929986171424,0.09747999999672174,0.09557160013355315,0.20050180004909635,0.19968380010686815,0.7505361998919398
RSVPLG03,JM,20251020-102031,1.0.1,20251020-085245,704,Introduction,Both,1,Automatic,main,15,20251020-102228,global,global,750,H,S,A,A,H-A.png,S-A.png,hH,sS,mask-4.png,mask-2.png,h,1,1.7702021999284625,h,0,0.13012580014765263,0.09519710019230843,0.09745240001939237,0.19837410002946854,0.20050429995171726,0.7477307000663131
RSVPLG03,JM,20251020-102031,1.0.1,20251020-085245,704,Introduction,Both,1,Automatic,main,16,20251020-102234,global,global,750,H,H,E,E,H-E.png,H-E.png,hH,hH,mask-2.png,mask-1.png,s,0,3.454777699895203,h,1,1.1267681000754237,0.09755860012955964,0.09660489996895194,0.2015414999332279,0.19981359993107617,0.7491280001122504
RSVPLG03,JM,20251020-102301,1.0.1,20251020-085245,704,Practice,Both,1,Automatic,main,1,20251020-102326,global,global,300,S,H,A,E,S-A.png,H-E.png,sS,hH,mask-2.png,mask-2.png,s,1,1.8188320000190288,h,1,0.3399286000058055,0.04288659989833832,0.047728899866342545,0.09640159993432462,0.09997979993931949,0.29803579999133945
RSVPLG03,JM,20251020-102301,1.0.1,20251020-085245,704,Practice,Both,1,Automatic,main,2,20251020-102332,global,local,300,H,H,E,E,H-E.png,E-H.png,hH,hH,mask-3.png,mask-2.png,s,0,2.280104200122878,h,1,0.09919199999421835,0.04743669996969402,0.04937410005368292,0.10033260006457567,0.10229150019586086,0.3003064999356866
RSVPLG03,JM,20251020-102301,1.0.1,20251020-085245,704,Practice,Both,1,Automatic,main,3,20251020-102338,local,local,300,H,S,A,A,A-H.png,A-S.png,hH,sS,mask-1.png,mask-4.png,h,1,0.9190818001516163,s,1,0.18247180012986064,0.04772199993021786,0.047047500032931566,0.09902089997194707,0.10029660002328455,0.30057860002852976
RSVPLG03,JM,20251020-102301,1.0.1,20251020-085245,704,Practice,Both,1,Automatic,main,4,20251020-102343,local,local,750,S,S,A,A,A-S.png,A-S.png,sS,sS,mask-3.png,mask-4.png,s,1,0.6229418001603335,h,0,0.3379204999655485,0.04794390010647476,0.04767200001515448,0.10018560010939837,0.0998972998932004,0.7544888001866639
RSVPLG03,JM,20251020-102301,1.0.1,20251020-085245,704,Practice,Both,1,Automatic,main,5,20251020-102348,local,local,300,S,H,A,E,A-S.png,E-H.png,sS,hH,mask-4.png,mask-3.png,s,1,0.9160873999353498,s,0,0.0925978000741452,0.04799510003067553,0.04752729996107519,0.10012039984576404,0.09958799998275936,0.3019069000147283
RSVPLG03,JM,20251020-102301,1.0.1,20251020-085245,704,Practice,Both,1,Automatic,main,6,20251020-102353,local,global,300,H,H,E,A,E-H.png,H-A.png,hH,hH,mask-2.png,mask-2.png,s,0,0.9959269999526441,h,1,0.1880506998859346,0.047576399985700846,0.04692939994856715,0.10073129995726049,0.10000999993644655,0.3012178000062704
RSVPLG03,JM,20251020-102301,1.0.1,20251020-085245,704,Practice,Both,1,Automatic,main,7,20251020-102357,local,global,750,H,H,A,E,A-H.png,H-E.png,hH,hH,mask-4.png,mask-3.png,h,1,0.6218288999516517,s,0,0.11896159988828003,0.04757729987613857,0.04856260004453361,0.10061770002357662,0.10159830003976822,0.7522801999002695
RSVPLG03,JM,20251020-102301,1.0.1,20251020-085245,704,Practice,Both,1,Automatic,main,8,20251020-102402,local,local,750,H,H,E,A,E-H.png,A-H.png,hH,hH,mask-4.png,mask-1.png,h,1,1.5159794001374394,h,1,0.05499099986627698,0.04716639989055693,0.04851570003665984,0.10039860010147095,0.10060540004633367,0.7535154998768121
RSVPLG03,JM,20251020-102301,1.0.1,20251020-085245,704,Practice,Both,1,Automatic,main,9,20251020-102408,global,local,300,H,H,E,E,H-E.png,E-H.png,hH,hH,mask-3.png,mask-4.png,h,1,1.9018590999767184,s,0,0.06996380002237856,0.04755749995820224,0.04965569986961782,0.10087700001895428,0.10175289981998503,0.30014250008389354
RSVPLG03,JM,20251020-102301,1.0.1,20251020-085245,704,Practice,Both,1,Automatic,main,10,20251020-102414,global,global,750,S,S,A,A,S-A.png,S-A.png,sS,sS,mask-3.png,mask-3.png,h,0,1.0604153000749648,h,0,0.10823729983530939,0.04802159988321364,0.04671550006605685,0.10017400002107024,0.1004993999376893,0.7544106999412179
RSVPLG03,JM,20251020-102301,1.0.1,20251020-085245,704,Practice,Both,1,Automatic,main,11,20251020-102419,global,global,300,H,S,E,E,H-E.png,S-E.png,hH,sS,mask-1.png,mask-1.png,s,0,1.4813105999492109,h,0,0.05608629994094372,0.0478261997923255,0.048539499985054135,0.09978959988802671,0.10152959986589849,0.3010380999185145
RSVPLG03,JM,20251020-102301,1.0.1,20251020-085245,704,Practice,Both,1,Automatic,main,12,20251020-102424,global,local,750,S,S,E,A,S-E.png,A-S.png,sS,sS,mask-1.png,mask-1.png,h,0,1.608950300142169,s,1,0.20499060000292957,0.04649089998565614,0.047621400095522404,0.0990276001393795,0.10064180009067059,0.7528176999185234
RSVPLG03,JM,20251020-102301,1.0.1,20251020-085245,704,Practice,Both,1,Automatic,main,13,20251020-102430,global,global,750,S,S,E,A,S-E.png,S-A.png,sS,sS,mask-2.png,mask-2.png,s,1,2.555097799981013,h,0,0.44264949997887015,0.04859270015731454,0.04855650011450052,0.09959410014562309,0.10144350002519786,0.7525224999990314
RSVPLG03,JM,20251020-102301,1.0.1,20251020-085245,704,Practice,Both,1,Automatic,main,14,20251020-102437,local,global,750,S,S,E,E,E-S.png,S-E.png,sS,sS,mask-1.png,mask-2.png,s,1,0.9557785999495536,h,0,0.48936089989729226,0.04657779983244836,0.048473200062289834,0.10070479987189174,0.1006867999676615,0.7531483999919146
RSVPLG03,JM,20251020-102301,1.0.1,20251020-085245,704,Practice,Both,1,Automatic,main,15,20251020-102443,global,local,750,S,H,E,A,S-E.png,A-H.png,sS,hH,mask-1.png,mask-3.png,s,1,0.9557459000498056,h,1,0.509018300101161,0.04866360011510551,0.04765160009264946,0.10090550011955202,0.09971620002761483,0.753212200012058
RSVPLG03,JM,20251020-102301,1.0.1,20251020-085245,704,Practice,Both,1,Automatic,main,16,20251020-102448,local,global,300,S,S,E,E,E-S.png,S-E.png,sS,sS,mask-4.png,mask-2.png,s,1,1.1889029000885785,h,0,0.44097180012613535,0.04756280011497438,0.04753910005092621,0.10044319997541606,0.10053950012661517,0.3018090999685228
RSVPLG03,JM,20251020-102519,1.0.1,20251020-085245,704,Practice,T1,1,Automatic,main,1,20251020-102539,local,global,750,S,S,A,A,A-S.png,S-A.png,sS,sS,mask-2.png,mask-2.png,s,1,1.776962900068611,none,-5,0,0.04807449993677437,0.04765900014899671,0.10105840000323951,0.10103390016593039,0.750923799816519
RSVPLG03,JM,20251020-102519,1.0.1,20251020-085245,704,Practice,T1,1,Automatic,main,2,20251020-102545,local,local,300,H,H,E,A,E-H.png,A-H.png,hH,hH,mask-4.png,mask-4.png,h,1,0.9871855999808758,none,-5,0,0.048537899972870946,0.0477318000048399,0.1011469999793917,0.0999035001732409,0.3008510998915881
RSVPLG03,JM,20251020-102519,1.0.1,20251020-085245,704,Practice,T1,1,Automatic,main,3,20251020-102549,global,global,300,S,H,E,E,S-E.png,H-E.png,sS,hH,mask-4.png,mask-2.png,h,0,2.394574999809265,none,-5,0,0.047502500005066395,0.048217999981716275,0.10051740007475019,0.10028699995018542,0.30005390010774136
RSVPLG03,JM,20251020-102519,1.0.1,20251020-085245,704,Practice,T1,1,Automatic,main,4,20251020-102555,global,global,300,H,S,A,E,H-A.png,S-E.png,hH,sS,mask-3.png,mask-4.png,s,0,0.7818678000476211,none,-5,0,0.04759929981082678,0.046622099820524454,0.1005857998970896,0.09965420002117753,0.301182399969548
RSVPLG03,JM,20251020-102519,1.0.1,20251020-085245,704,Practice,T1,1,Automatic,main,5,20251020-102600,local,local,750,H,H,E,E,E-H.png,E-H.png,hH,hH,mask-1.png,mask-2.png,h,1,0.09906759997829795,none,-5,0,0.04571620002388954,0.04827819997444749,0.09989929990842938,0.10014500003308058,0.7485026000067592
RSVPLG03,JM,20251020-102519,1.0.1,20251020-085245,704,Practice,T1,1,Automatic,main,6,20251020-102604,local,global,750,S,H,E,E,E-S.png,H-E.png,sS,hH,mask-1.png,mask-2.png,s,1,0.4867970999330282,none,-5,0,0.048486500047147274,0.04771739989519119,0.09977920004166663,0.1001314998138696,0.7502278001047671
RSVPLG03,JM,20251020-102519,1.0.1,20251020-085245,704,Practice,T1,1,Automatic,main,7,20251020-102608,global,local,300,S,S,E,A,S-E.png,A-S.png,sS,sS,mask-3.png,mask-4.png,s,1,0.7687873998656869,none,-5,0,0.04755769995972514,0.04737760010175407,0.09956429991871119,0.10113650001585484,0.2988189999014139
RSVPLG03,JM,20251020-102519,1.0.1,20251020-085245,704,Practice,T1,1,Automatic,main,8,20251020-102612,local,local,750,H,H,A,A,A-H.png,A-H.png,hH,hH,mask-2.png,mask-1.png,h,1,1.2942788999062032,none,-5,0,0.047638599993661046,0.04751099995337427,0.0996874999254942,0.09952479996718466,0.7498200999107212
RSVPLG03,JM,20251020-102519,1.0.1,20251020-085245,704,Practice,T1,1,Automatic,main,9,20251020-102618,global,global,750,S,S,E,A,S-E.png,S-A.png,sS,sS,mask-4.png,mask-3.png,s,1,0.9466647000517696,none,-5,0,0.04760130005888641,0.04658660013228655,0.10052550002001226,0.10075550014153123,0.7505343998782337
RSVPLG03,JM,20251020-102519,1.0.1,20251020-085245,704,Practice,T1,1,Automatic,main,10,20251020-102623,global,local,750,H,H,A,E,H-A.png,E-H.png,hH,hH,mask-4.png,mask-4.png,s,0,0.8267614000942558,none,-5,0,0.04773580003529787,0.048836000030860305,0.09988690004684031,0.10107959993183613,0.7482738001272082
RSVPLG03,JM,20251020-102519,1.0.1,20251020-085245,704,Practice,T1,1,Automatic,main,11,20251020-102627,global,global,750,H,H,E,A,H-E.png,H-A.png,hH,hH,mask-4.png,mask-2.png,h,1,1.1473500998690724,none,-5,0,0.04867329983972013,0.04806059994734824,0.10182599979452789,0.10111590009182692,0.7506100998725742
RSVPLG03,JM,20251020-102519,1.0.1,20251020-085245,704,Practice,T1,1,Automatic,main,12,20251020-102632,local,global,300,H,S,E,A,E-H.png,S-A.png,hH,sS,mask-2.png,mask-3.png,h,1,0.6090524999890476,none,-5,0,0.0477163998875767,0.047598599921911955,0.09846909996122122,0.0997964998241514,0.29951400007121265
RSVPLG03,JM,20251020-102519,1.0.1,20251020-085245,704,Practice,T1,1,Automatic,main,13,20251020-102637,global,local,750,H,S,A,A,H-A.png,A-S.png,hH,sS,mask-3.png,mask-2.png,s,0,0.7608441999182105,none,-5,0,0.047673899913206697,0.047682100208476186,0.09976119990460575,0.09899520012550056,0.7504210998304188
RSVPLG03,JM,20251020-102519,1.0.1,20251020-085245,704,Practice,T1,1,Automatic,main,14,20251020-102641,global,local,300,H,S,E,E,H-E.png,E-S.png,hH,sS,mask-2.png,mask-4.png,s,0,0.7680126999039203,none,-5,0,0.0476687999907881,0.04871619981713593,0.10175050003454089,0.10089769982732832,0.3000119000207633
RSVPLG03,JM,20251020-102519,1.0.1,20251020-085245,704,Practice,T1,1,Automatic,main,15,20251020-102646,local,global,300,S,S,A,E,A-S.png,S-E.png,sS,sS,mask-4.png,mask-4.png,s,1,2.291807899950072,none,-5,0,0.04650860000401735,0.04652850003913045,0.09950949996709824,0.09953709994442761,0.2997641998808831
RSVPLG03,JM,20251020-102519,1.0.1,20251020-085245,704,Practice,T1,1,Automatic,main,16,20251020-102651,local,local,300,H,S,E,A,E-H.png,A-S.png,hH,sS,mask-1.png,mask-4.png,h,1,0.4409489000681788,none,-5,0,0.047695300076156855,0.046693299897015095,0.09995769988745451,0.09991590003482997,0.2995696000289172
RSVPLG03,JM,20251020-102929,1.0.1,20251020-085245,704,Experiment,Both,1,Automatic,warmup,1,20251020-103010,global,local,300,H,H,A,A,H-A.png,A-H.png,hH,hH,mask-1.png,mask-1.png,h,1,2.514724000124261,s,0,1.527528899954632,0.04625859996303916,0.0475252999458462,0.09918280015699565,0.10071359993889928,0.29845430003479123
RSVPLG03,JM,20251020-102929,1.0.1,20251020-085245,704,Experiment,Both,1,Automatic,warmup,2,20251020-103017,local,global,300,S,S,E,A,E-S.png,S-A.png,sS,sS,mask-1.png,mask-2.png,s,1,1.218676800141111,s,1,0.16775259980931878,0.047534900018945336,0.04695770004764199,0.09847430000081658,0.10027800011448562,0.2989872000180185
RSVPLG03,JM,20251020-102929,1.0.1,20251020-085245,704,Experiment,Both,1,Automatic,warmup,3,20251020-103022,global,global,300,S,H,E,A,S-E.png,H-A.png,sS,hH,mask-1.png,mask-2.png,s,1,1.5681549001019448,h,1,0.10637309984304011,0.04775350005365908,0.048669900046661496,0.09964879998005927,0.10187530005350709,0.29882490006275475
RSVPLG03,JM,20251020-102929,1.0.1,20251020-085245,704,Experiment,Both,1,Automatic,warmup,4,20251020-103028,local,global,750,H,S,E,A,E-H.png,S-A.png,hH,sS,mask-2.png,mask-4.png,h,1,0.6200513001531363,s,1,0.02238010009750724,0.04677930008620024,0.04853440006263554,0.09938860009424388,0.10087780002504587,0.7502482000272721
RSVPLG03,JM,20251020-102929,1.0.1,20251020-085245,704,Experiment,Both,1,Automatic,warmup,5,20251020-103033,global,global,750,H,H,A,E,H-A.png,H-E.png,hH,hH,mask-3.png,mask-1.png,h,1,0.925572199979797,s,0,0.7103609999176115,0.04742820002138615,0.0475173001177609,0.0996004999615252,0.09961879998445511,0.7502377000637352
RSVPLG03,JM,20251020-102929,1.0.1,20251020-085245,704,Experiment,Both,1,Automatic,main,6,20251020-103039,global,local,750,S,S,E,E,S-E.png,E-S.png,sS,sS,mask-1.png,mask-1.png,h,0,0.6059177999850363,s,1,0.6859192999545485,0.048615199979394674,0.047584799816831946,0.09962010011076927,0.09960039984434843,0.7517578001134098
RSVPLG03,JM,20251020-102929,1.0.1,20251020-085245,704,Experiment,Both,1,Automatic,main,7,20251020-103043,global,global,300,H,S,E,E,H-E.png,S-E.png,hH,sS,mask-4.png,mask-1.png,h,1,0.8586655999533832,h,0,0.3847192998509854,0.04857509979046881,0.0495490999892354,0.10006729979068041,0.1016391001176089,0.30000299983657897
RSVPLG03,JM,20251020-102929,1.0.1,20251020-085245,704,Experiment,Both,1,Automatic,main,8,20251020-103048,local,global,750,H,S,A,A,A-H.png,S-A.png,hH,sS,mask-4.png,mask-2.png,h,1,0.8301746000070125,s,1,0.05948599986732006,0.04750510002486408,0.04752110014669597,0.1003436001483351,0.1014143000356853,0.7498614999931306
RSVPLG03,JM,20251020-102929,1.0.1,20251020-085245,704,Experiment,Both,1,Automatic,main,9,20251020-103053,local,global,750,S,H,A,E,A-S.png,H-E.png,sS,hH,mask-3.png,mask-1.png,s,1,0.9572586000431329,s,0,0.08128969999961555,0.04747809981927276,0.046492099994793534,0.10049319989047945,0.09852080000564456,0.7515018999110907
RSVPLG03,JM,20251020-102929,1.0.1,20251020-085245,704,Experiment,Both,1,Automatic,main,10,20251020-103058,global,local,300,H,H,A,A,H-A.png,A-H.png,hH,hH,mask-1.png,mask-4.png,s,0,1.093792799860239,h,1,0.028205999871715903,0.04765570000745356,0.047651899978518486,0.09968390013091266,0.09909439994953573,0.3004220000002533
RSVPLG03,JM,20251020-102929,1.0.1,20251020-085245,704,Experiment,Both,1,Automatic,main,11,20251020-103103,global,global,750,S,H,A,E,S-A.png,H-E.png,sS,hH,mask-2.png,mask-2.png,h,0,0.8672346998937428,s,0,0.8060708998236805,0.048566099954769015,0.04962380020879209,0.09945000009611249,0.10167710017412901,0.7496394999325275
RSVPLG03,JM,20251020-102929,1.0.1,20251020-085245,704,Experiment,Both,1,Automatic,main,12,20251020-103109,local,global,300,H,H,A,E,A-H.png,H-E.png,hH,hH,mask-3.png,mask-2.png,s,0,1.086032500024885,h,1,0.04100370011292398,0.047233100049197674,0.04799899994395673,0.09884290001355112,0.10167360003106296,0.2987279000226408
RSVPLG03,JM,20251020-102929,1.0.1,20251020-085245,704,Experiment,Both,1,Automatic,main,13,20251020-103114,local,global,300,S,H,A,A,A-S.png,H-A.png,sS,hH,mask-2.png,mask-1.png,s,1,0.40580209996551275,h,1,0.49648219998925924,0.04727500001899898,0.048639100044965744,0.09981589997187257,0.10117859998717904,0.30009929998777807
RSVPLG03,JM,20251020-102929,1.0.1,20251020-085245,704,Experiment,Both,1,Automatic,main,14,20251020-103118,local,local,300,S,S,A,A,A-S.png,A-S.png,sS,sS,mask-4.png,mask-3.png,s,1,0.8577552000060678,s,1,0.07683449983596802,0.04687370010651648,0.046469700057059526,0.09985650004819036,0.09925520000979304,0.3015310000628233
RSVPLG03,JM,20251020-102929,1.0.1,20251020-085245,704,Experiment,Both,1,Automatic,main,15,20251020-103123,local,local,750,H,S,E,A,E-H.png,A-S.png,hH,sS,mask-4.png,mask-2.png,s,0,0.7965665999799967,s,1,0.07179790013469756,0.04572930000722408,0.04669109988026321,0.09809290012344718,0.09989700000733137,0.7501980001106858
RSVPLG03,JM,20251020-102929,1.0.1,20251020-085245,704,Experiment,Both,1,Automatic,main,16,20251020-103128,global,local,750,S,S,A,A,S-A.png,A-S.png,sS,sS,mask-3.png,mask-3.png,h,0,0.8533119999337941,s,1,0.050034299958497286,0.04656679998151958,0.047696700086817145,0.09903899999335408,0.09990409994497895,0.7502317000180483
RSVPLG03,JM,20251020-102929,1.0.1,20251020-085245,704,Experiment,Both,1,Automatic,main,17,20251020-103133,local,local,750,S,H,A,E,A-S.png,E-H.png,sS,hH,mask-4.png,mask-1.png,s,1,0.7715023001655936,h,1,0.06279779993928969,0.046648900024592876,0.0463765999302268,0.09984290017746389,0.09946330008096993,0.7499085001181811
RSVPLG03,JM,20251020-102929,1.0.1,20251020-085245,704,Experiment,Both,1,Automatic,main,18,20251020-103138,local,local,750,H,S,A,E,A-H.png,E-S.png,hH,sS,mask-1.png,mask-1.png,h,1,0.5716681000776589,s,1,0.09906699997372925,0.0476543998811394,0.04654920008033514,0.09989419998601079,0.09972800011746585,0.7510672998614609
RSVPLG03,JM,20251020-102929,1.0.1,20251020-085245,704,Experiment,Both,1,Automatic,main,19,20251020-103142,local,local,300,S,H,E,A,E-S.png,A-H.png,sS,hH,mask-4.png,mask-4.png,s,1,0.912155699916184,s,0,0.08942910004407167,0.04866049997508526,0.047693700063973665,0.10087229986675084,0.10085889999754727,0.300499799894169
RSVPLG03,JM,20251020-102929,1.0.1,20251020-085245,704,Experiment,Both,1,Automatic,main,20,20251020-103147,global,local,750,S,H,E,E,S-E.png,E-H.png,sS,hH,mask-3.png,mask-2.png,h,0,1.4044488000217825,h,1,0.07599269994534552,0.04653320019133389,0.04646119987592101,0.09970670007169247,0.09962749993428588,0.7502080001868308
RSVPLG03,JM,20251020-102929,1.0.1,20251020-085245,704,Experiment,Both,1,Automatic,main,21,20251020-103153,local,local,750,H,S,E,A,E-H.png,A-S.png,hH,sS,mask-3.png,mask-2.png,h,1,0.6359709999524057,s,1,0.09171169996261597,0.04575380007736385,0.04772100015543401,0.09795740013942122,0.09989960002712905,0.7496958000119776
RSVPLG03,JM,20251020-102929,1.0.1,20251020-085245,704,Experiment,Both,1,Automatic,main,22,20251020-103157,global,global,300,S,S,A,A,S-A.png,S-A.png,sS,sS,mask-1.png,mask-3.png,h,0,1.1563425997737795,s,1,0.09396830014884472,0.04768099985085428,0.046779700089246035,0.09993539983406663,0.09995639999397099,0.300766299944371
RSVPLG03,JM,20251020-102929,1.0.1,20251020-085245,704,Experiment,Both,1,Automatic,main,23,20251020-103202,local,local,750,H,H,E,A,E-H.png,A-H.png,hH,hH,mask-3.png,mask-3.png,h,1,0.9217882999219,h,1,0.10100280004553497,0.0473541000392288,0.046594500076025724,0.1001850999891758,0.09977150009945035,0.7506389999762177
RSVPLG03,JM,20251020-102929,1.0.1,20251020-085245,704,Experiment,Both,1,Automatic,main,24,20251020-103207,global,global,750,S,S,A,E,S-A.png,S-E.png,sS,sS,mask-3.png,mask-2.png,s,1,1.4928324001375586,h,0,0.07058070017956197,0.04771610000170767,0.047568699810653925,0.09995800000615418,0.09978019981645048,0.7514883000403643
RSVPLG03,JM,20251020-102929,1.0.1,20251020-085245,704,Experiment,Both,1,Automatic,main,25,20251020-103213,local,local,750,H,S,E,E,E-H.png,E-S.png,hH,sS,mask-2.png,mask-4.png,h,1,0.8005346001591533,s,1,0.0762741002254188,0.04750630003400147,0.04844100004993379,0.10050940001383424,0.09943639999255538,0.7503939000889659
RSVPLG03,JM,20251020-102929,1.0.1,20251020-085245,704,Experiment,Both,1,Automatic,main,26,20251020-103220,global,global,300,S,H,E,A,S-E.png,H-A.png,sS,hH,mask-3.png,mask-1.png,s,1,1.264705599984154,h,1,0.03374360012821853,0.04749920009635389,0.046544000040739775,0.0988414001185447,0.09961290005594492,0.30043160007335246
RSVPLG03,JM,20251020-102929,1.0.1,20251020-085245,704,Experiment,Both,1,Automatic,main,27,20251020-103225,local,global,300,H,H,E,E,E-H.png,H-E.png,hH,hH,mask-4.png,mask-1.png,h,1,0.8927460999693722,s,0,0.09231089986860752,0.04846309986896813,0.04755149991251528,0.10143649997189641,0.09940210008062422,0.3010595999658108
RSVPLG03,JM,20251020-102929,1.0.1,20251020-085245,704,Experiment,Both,1,Automatic,main,28,20251020-103230,local,global,750,S,H,A,E,A-S.png,H-E.png,sS,hH,mask-4.png,mask-1.png,s,1,1.144995299866423,h,1,0.040169799933210015,0.047615400049835443,0.04751159995794296,0.09963880013674498,0.10063560004346073,0.7496384000405669
RSVPLG03,JM,20251020-102929,1.0.1,20251020-085245,704,Experiment,Both,1,Automatic,main,29,20251020-103235,local,local,300,S,S,A,A,A-S.png,A-S.png,sS,sS,mask-2.png,mask-2.png,s,1,0.7256687998306006,s,1,0.07472530007362366,0.04717889986932278,0.047274500131607056,0.10027059982530773,0.10034399991855025,0.2999137998558581
RSVPLG03,JM,20251020-102929,1.0.1,20251020-085245,704,Experiment,Both,1,Automatic,main,30,20251020-103239,global,local,300,S,S,A,E,S-A.png,E-S.png,sS,sS,mask-2.png,mask-3.png,h,0,1.797994100023061,s,1,0.044566999888047576,0.04746489995159209,0.04654160002246499,0.10038989991880953,0.09952299995347857,0.30071439989842474
RSVPLG03,JM,20251020-102929,1.0.1,20251020-085245,704,Experiment,Both,1,Automatic,main,31,20251020-103245,local,local,750,H,H,E,A,E-H.png,A-H.png,hH,hH,mask-3.png,mask-4.png,h,1,0.7344510001130402,h,1,0.09238929999992251,0.047542500076815486,0.04752520006150007,0.10054800007492304,0.10066019999794662,0.7498693000525236
RSVPLG03,JM,20251020-102929,1.0.1,20251020-085245,704,Experiment,Both,1,Automatic,main,32,20251020-103250,local,local,750,S,S,E,A,E-S.png,A-S.png,sS,sS,mask-2.png,mask-1.png,s,1,0.7301028000656515,s,1,0.056623500073328614,0.04767550015822053,0.047671299893409014,0.10086250002495944,0.09976319991983473,0.750381600111723
RSVPLG03,JM,20251020-102929,1.0.1,20251020-085245,704,Experiment,Both,1,Automatic,main,33,20251020-103255,local,local,750,S,H,E,E,E-S.png,E-H.png,sS,hH,mask-3.png,mask-3.png,s,1,0.6479978999122977,h,1,0.024602799909189343,0.047716200118884444,0.04771850001998246,0.09991999994963408,0.09990609996020794,0.7502477001398802
RSVPLG03,JM,20251020-102929,1.0.1,20251020-085245,704,Experiment,Both,1,Automatic,main,34,20251020-103259,local,local,300,H,S,E,E,E-H.png,E-S.png,hH,sS,mask-2.png,mask-1.png,h,1,0.9901037001982331,s,1,0.18906389991752803,0.04769750009290874,0.04743579984642565,0.0997647000476718,0.09980409988202155,0.30034360010176897
RSVPLG03,JM,20251020-102929,1.0.1,20251020-085245,704,Experiment,Both,1,Automatic,main,35,20251020-103304,global,global,750,S,S,E,E,S-E.png,S-E.png,sS,sS,mask-4.png,mask-1.png,s,1,1.5877768998034298,s,1,0.0545710998121649,0.047613499918952584,0.04649590002372861,0.09864620002917945,0.09962609992362559,0.7502828999422491
RSVPLG03,JM,20251020-102929,1.0.1,20251020-085245,704,Experiment,Both,1,Automatic,main,36,20251020-103310,local,local,300,S,S,E,A,E-S.png,A-S.png,sS,sS,mask-1.png,mask-2.png,s,1,0.9642529000993818,s,1,0.060333500150591135,0.04761849995702505,0.047513400204479694,0.10061149997636676,0.10050739999860525,0.2998662998434156
RSVPLG03,JM,20251020-102929,1.0.1,20251020-085245,704,Experiment,Both,1,Automatic,main,37,20251020-103315,local,global,300,S,H,E,E,E-S.png,H-E.png,sS,hH,mask-2.png,mask-1.png,s,1,1.1021912000142038,h,1,0.041916799964383245,0.047396899899467826,0.047371799824759364,0.10028669983148575,0.10024329996667802,0.30027120001614094
RSVPLG03,JM,20251020-102929,1.0.1,20251020-085245,704,Experiment,Both,1,Automatic,main,38,20251020-103319,global,local,300,H,H,E,A,H-E.png,A-H.png,hH,hH,mask-4.png,mask-4.png,s,0,1.311032900121063,h,1,0.11702820006757975,0.047523099929094315,0.04880010010674596,0.10033369995653629,0.09998980001546443,0.300048999954015
RSVPLG03,JM,20251020-102929,1.0.1,20251020-085245,704,Experiment,Both,1,Automatic,main,39,20251020-103324,global,global,300,S,S,A,A,S-A.png,S-A.png,sS,sS,mask-2.png,mask-2.png,s,1,1.1486976000014693,h,0,0.020159699954092503,0.047734899912029505,0.0477545999456197,0.09890619991347194,0.10096279997378588,0.2995664000045508
RSVPLG03,JM,20251020-102929,1.0.1,20251020-085245,704,Experiment,Both,1,Automatic,main,40,20251020-103329,global,local,750,H,S,E,A,H-E.png,A-S.png,hH,sS,mask-3.png,mask-1.png,s,0,0.9775988000910729,s,1,0.038717899937182665,0.04766799998469651,0.0465635999571532,0.10016839997842908,0.09946800000034273,0.7510245000012219
RSVPLG03,JM,20251020-102929,1.0.1,20251020-085245,704,Experiment,Both,1,Automatic,main,41,20251020-103334,local,global,300,S,H,E,A,E-S.png,H-A.png,sS,hH,mask-2.png,mask-2.png,s,1,1.0612965999171138,h,1,0.025370300048962235,0.047478900058194995,0.04753870004788041,0.09968580002896488,0.1005430999211967,0.2997755999676883
RSVPLG03,JM,20251020-102929,1.0.1,20251020-085245,704,Experiment,Both,1,Automatic,main,42,20251020-103339,local,global,300,H,S,A,E,A-H.png,S-E.png,hH,sS,mask-3.png,mask-1.png,h,1,0.9528475000988692,s,1,0.060124400071799755,0.046549499966204166,0.04762719990685582,0.09877669997513294,0.10009449999779463,0.3003603999968618
RSVPLG03,JM,20251020-102929,1.0.1,20251020-085245,704,Experiment,Both,1,Automatic,main,43,20251020-103344,global,global,750,S,H,E,E,S-E.png,H-E.png,sS,hH,mask-2.png,mask-4.png,h,0,1.591109300032258,h,1,0.059657499892637134,0.047631099820137024,0.04664089996367693,0.09885609988123178,0.0998058000113815,0.7507788999937475
RSVPLG03,JM,20251020-102929,1.0.1,20251020-085245,704,Experiment,Both,1,Automatic,main,44,20251020-103349,global,local,300,H,S,A,E,H-A.png,E-S.png,hH,sS,mask-2.png,mask-4.png,h,1,1.2529730999376625,s,1,0.022820699959993362,0.04676649998873472,0.047728100093081594,0.09879829990677536,0.099911900004372,0.29939479986205697
RSVPLG03,JM,20251020-102929,1.0.1,20251020-085245,704,Experiment,Both,1,Automatic,main,45,20251020-103354,global,global,750,S,H,E,E,S-E.png,H-E.png,sS,hH,mask-2.png,mask-4.png,s,1,1.2685506001580507,h,1,0.01226320001296699,0.04667340009473264,0.047653800109401345,0.09986419999040663,0.09919320000335574,0.7501542000100017
RSVPLG03,JM,20251020-102929,1.0.1,20251020-085245,704,Experiment,Both,1,Automatic,main,46,20251020-103400,global,global,300,H,H,A,A,H-A.png,H-A.png,hH,hH,mask-4.png,mask-1.png,h,1,1.4795174000319093,s,0,0.06153429998084903,0.04771650000475347,0.04772519995458424,0.09994590003043413,0.09893360012210906,0.3007463999092579
RSVPLG03,JM,20251020-102929,1.0.1,20251020-085245,704,Experiment,Both,1,Automatic,main,47,20251020-103405,local,global,300,H,S,E,E,E-H.png,S-E.png,hH,sS,mask-1.png,mask-1.png,h,1,0.8902712999843061,s,1,0.06940290005877614,0.047588199842721224,0.0476071999873966,0.09865419985726476,0.09994319989345968,0.3002847000025213
RSVPLG03,JM,20251020-102929,1.0.1,20251020-085245,704,Experiment,Both,1,Automatic,main,48,20251020-103410,local,local,300,H,S,E,E,E-H.png,E-S.png,hH,sS,mask-4.png,mask-4.png,h,1,0.43468330008909106,s,1,0.04430279997177422,0.046491899993270636,0.04856700007803738,0.0996014999691397,0.09909239993430674,0.2992076000664383
RSVPLG03,JM,20251020-102929,1.0.1,20251020-085245,704,Experiment,Both,1,Automatic,main,49,20251020-103414,global,global,300,H,H,E,A,H-E.png,H-A.png,hH,hH,mask-4.png,mask-3.png,h,1,1.0660349999088794,s,0,0.06008060020394623,0.047486199997365475,0.047147100092843175,0.10137409996241331,0.10021610022522509,0.3018664999399334
RSVPLG03,JM,20251020-102929,1.0.1,20251020-085245,704,Experiment,Both,1,Automatic,main,50,20251020-103418,local,global,750,H,H,A,E,A-H.png,H-E.png,hH,hH,mask-1.png,mask-2.png,h,1,1.8951956999953836,s,0,0.058752199867740273,0.045689200051128864,0.04767250013537705,0.09968460001982749,0.09884260012768209,0.7504016999155283
RSVPLG03,JM,20251020-102929,1.0.1,20251020-085245,704,Experiment,Both,1,Automatic,main,51,20251020-103426,global,local,300,H,H,E,E,H-E.png,E-H.png,hH,hH,mask-3.png,mask-3.png,h,1,1.2973482001107186,s,0,0.07691850000992417,0.04648899985477328,0.04748840001411736,0.09850069996900856,0.100479899905622,0.29974960000254214
RSVPLG03,JM,20251020-102929,1.0.1,20251020-085245,704,Experiment,Both,1,Automatic,main,52,20251020-103431,global,global,750,H,S,A,E,H-A.png,S-E.png,hH,sS,mask-3.png,mask-3.png,h,1,1.0206033999565989,h,0,0.07280379999428988,0.04751289985142648,0.04868250014260411,0.09955679997801781,0.10012080008164048,0.7495324998162687
RSVPLG03,JM,20251020-102929,1.0.1,20251020-085245,704,Experiment,Both,1,Automatic,main,53,20251020-103436,local,global,300,H,S,A,A,A-H.png,S-A.png,hH,sS,mask-3.png,mask-4.png,h,1,0.6036878998856992,s,1,0.0795656000263989,0.04675199999473989,0.04654170013964176,0.09958919999189675,0.09869210002943873,0.3012602999806404
RSVPLG03,JM,20251020-102929,1.0.1,20251020-085245,704,Experiment,Both,1,Automatic,main,54,20251020-103440,global,global,300,H,H,A,E,H-A.png,H-E.png,hH,hH,mask-1.png,mask-3.png,h,1,0.8260714998468757,s,0,0.23382339999079704,0.04753719992004335,0.04684870014898479,0.09879560000263155,0.09969450021162629,0.2992208998184651
RSVPLG03,JM,20251020-102929,1.0.1,20251020-085245,704,Experiment,Both,1,Automatic,main,55,20251020-103445,local,global,750,H,S,E,A,E-H.png,S-A.png,hH,sS,mask-1.png,mask-4.png,h,1,1.3240236998535693,s,1,0.057146399980410933,0.04657730017788708,0.04654189990833402,0.09999590017832816,0.09965449990704656,0.7507558001670986
RSVPLG03,JM,20251020-102929,1.0.1,20251020-085245,704,Experiment,Both,1,Automatic,main,56,20251020-103451,global,local,750,S,S,E,E,S-E.png,E-S.png,sS,sS,mask-1.png,mask-4.png,h,0,0.5453268999699503,s,1,0.024772200034931302,0.04723979998379946,0.04915839992463589,0.10029400000348687,0.10178610007278621,0.7500072000548244
RSVPLG03,JM,20251020-102929,1.0.1,20251020-085245,704,Experiment,Both,1,Automatic,main,57,20251020-103455,global,local,300,H,H,E,A,H-E.png,A-H.png,hH,hH,mask-1.png,mask-1.png,h,1,0.5660965999122709,h,1,0.07925629988312721,0.04772110003978014,0.046235800022259355,0.09992590011097491,0.0989081000443548,0.29994660010561347
RSVPLG03,JM,20251020-102929,1.0.1,20251020-085245,704,Experiment,Both,1,Automatic,main,58,20251020-103500,local,local,300,H,S,E,A,E-H.png,A-S.png,hH,sS,mask-4.png,mask-4.png,h,1,0.4754995999392122,s,1,0.09054290014319122,0.04715520003810525,0.04768699989654124,0.1004109000787139,0.10006299987435341,0.300188000081107
RSVPLG03,JM,20251020-102929,1.0.1,20251020-085245,704,Experiment,Both,1,Automatic,main,59,20251020-103504,global,global,300,S,S,E,E,S-E.png,S-E.png,sS,sS,mask-2.png,mask-1.png,h,0,0.5147867000196129,s,1,0.09903819998726249,0.04579340014606714,0.0478519001044333,0.09941140003502369,0.09847000008448958,0.30027020000852644
RSVPLG03,JM,20251020-102929,1.0.1,20251020-085245,704,Experiment,Both,1,Automatic,main,60,20251020-103508,global,global,750,S,S,E,E,S-E.png,S-E.png,sS,sS,mask-1.png,mask-3.png,h,0,1.0835265000350773,s,1,0.08980389987118542,0.04697910021059215,0.04672509990632534,0.09956540004350245,0.10031219990924001,0.7507669001352042
RSVPLG03,JM,20251020-102929,1.0.1,20251020-085245,704,Experiment,Both,1,Automatic,main,61,20251020-103513,local,local,300,H,S,E,A,E-H.png,A-S.png,hH,sS,mask-2.png,mask-1.png,h,1,0.4949849999975413,s,1,0.05524890008382499,0.047729500103741884,0.04785860003903508,0.09967030002735555,0.10005260002799332,0.30117219989188015
RSVPLG03,JM,20251020-102929,1.0.1,20251020-085245,704,Experiment,Both,1,Automatic,main,62,20251020-103517,local,global,750,H,H,A,E,A-H.png,H-E.png,hH,hH,mask-3.png,mask-2.png,h,1,0.637115600053221,h,1,0.2170207998715341,0.047531899996101856,0.047514399979263544,0.10051040002144873,0.09854710008949041,0.7520475999917835
RSVPLG03,JM,20251020-102929,1.0.1,20251020-085245,704,Experiment,Both,1,Automatic,main,63,20251020-103522,global,global,300,S,S,A,A,S-A.png,S-A.png,sS,sS,mask-2.png,mask-1.png,h,0,0.5455346000380814,h,0,0.10529450001195073,0.04921679990366101,0.04636659985408187,0.09995239996351302,0.10024719987995923,0.30179679999127984
RSVPLG03,JM,20251020-102929,1.0.1,20251020-085245,704,Experiment,Both,1,Automatic,main,64,20251020-103527,global,global,300,S,S,A,E,S-A.png,S-E.png,sS,sS,mask-2.png,mask-1.png,h,0,0.505109699908644,s,1,0.03478219988755882,0.04849829990416765,0.048413600074127316,0.10050010005943477,0.09984409995377064,0.3000719000119716
RSVPLG03,JM,20251020-102929,1.0.1,20251020-085245,704,Experiment,Both,1,Automatic,main,65,20251020-103531,global,global,300,S,S,E,E,S-E.png,S-E.png,sS,sS,mask-3.png,mask-3.png,h,0,0.5996441999450326,h,0,0.09890200011432171,0.047687700018286705,0.04762579989619553,0.09971309988759458,0.10089539992623031,0.3002987001091242
RSVPLG03,JM,20251020-102929,1.0.1,20251020-085245,704,Experiment,Both,1,Automatic,main,66,20251020-103535,local,local,750,S,S,E,E,E-S.png,E-S.png,sS,sS,mask-3.png,mask-1.png,s,1,0.5284426999278367,s,1,0.053563399938866496,0.045878399861976504,0.047673000022768974,0.10018339985981584,0.10087860003113747,0.7495627999305725
RSVPLG03,JM,20251020-102929,1.0.1,20251020-085245,704,Experiment,Both,1,Automatic,main,67,20251020-103540,global,local,750,S,H,E,A,S-E.png,A-H.png,sS,hH,mask-1.png,mask-2.png,s,1,0.5896105000283569,h,1,0.0215769000351429,0.047835899982601404,0.04647679999470711,0.10103009990416467,0.09950189990922809,0.7524582999758422
RSVPLG03,JM,20251020-102929,1.0.1,20251020-085245,704,Experiment,Both,1,Automatic,main,68,20251020-103545,global,local,750,S,H,E,E,S-E.png,E-H.png,sS,hH,mask-1.png,mask-1.png,s,1,0.9433186000678688,h,1,0.025698899989947677,0.04710189998149872,0.048663900000974536,0.09990609996020794,0.10168109997175634,0.750256400089711
RSVPLG03,JM,20251020-102929,1.0.1,20251020-085245,704,Experiment,Both,1,Automatic,main,69,20251020-103550,global,local,750,H,S,A,A,H-A.png,A-S.png,hH,sS,mask-4.png,mask-3.png,h,1,1.7691321999300271,s,1,0.04439200018532574,0.04745760001242161,0.04673040006309748,0.10050219995900989,0.09980800002813339,0.7506975999567658
RSVPLG03,JM,20251020-102929,1.0.1,20251020-085245,704,Experiment,Both,1,Automatic,main,70,20251020-103556,global,global,750,S,H,E,A,S-E.png,H-A.png,sS,hH,mask-3.png,mask-3.png,s,1,0.8039314998313785,h,1,0.03940310003235936,0.04850360006093979,0.04761529993265867,0.1006020000204444,0.09982819994911551,0.7514557000249624
RSVPLG03,JM,20251020-102929,1.0.1,20251020-085245,704,Experiment,Both,1,Automatic,main,71,20251020-103601,global,global,750,S,S,A,E,S-A.png,S-E.png,sS,sS,mask-4.png,mask-3.png,s,1,0.6219844000879675,h,0,0.6793855000287294,0.045849400106817484,0.04662569984793663,0.09983980003744364,0.09973379992879927,0.7503093001432717
RSVPLG03,JM,20251020-102929,1.0.1,20251020-085245,704,Experiment,Both,1,Automatic,main,72,20251020-103606,global,local,300,H,S,A,A,H-A.png,A-S.png,hH,sS,mask-1.png,mask-4.png,h,1,0.8305707999970764,s,1,0.11960209999233484,0.047596200136467814,0.04774060007184744,0.10079020005650818,0.09994379989802837,0.3002359000965953
RSVPLG03,JM,20251020-102929,1.0.1,20251020-085245,704,Experiment,Both,1,Automatic,main,73,20251020-103611,global,global,300,S,H,E,E,S-E.png,H-E.png,sS,hH,mask-4.png,mask-3.png,h,0,0.6463418998755515,s,0,0.02097800001502037,0.04760539997369051,0.046198099851608276,0.0988739999011159,0.09913280000910163,0.3003845000639558
RSVPLG03,JM,20251020-102929,1.0.1,20251020-085245,704,Experiment,Both,1,Automatic,main,74,20251020-103615,local,local,300,H,H,E,E,E-H.png,E-H.png,hH,hH,mask-2.png,mask-4.png,h,1,0.6469670999795198,s,0,0.11980789992958307,0.047201599925756454,0.047634099842980504,0.10095519991591573,0.0987682999111712,0.30112359998747706
RSVPLG03,JM,20251020-102929,1.0.1,20251020-085245,704,Experiment,Both,1,Automatic,main,75,20251020-103620,global,global,300,H,H,E,E,H-E.png,H-E.png,hH,hH,mask-1.png,mask-2.png,h,1,0.44853839999996126,s,0,0.061588099924847484,0.04801480006426573,0.048228299943730235,0.09962980006821454,0.1007481999695301,0.29921820014715195
RSVPLG03,JM,20251020-102929,1.0.1,20251020-085245,704,Experiment,Both,1,Automatic,main,76,20251020-103635,local,local,300,H,S,A,E,A-H.png,E-S.png,hH,sS,mask-3.png,mask-4.png,h,1,0.8499775999225676,s,1,0.053677699994295835,0.0477936000097543,0.046291999984532595,0.09907160000875592,0.09907679981552064,0.30007580015808344
RSVPLG03,JM,20251020-102929,1.0.1,20251020-085245,704,Experiment,Both,1,Automatic,main,77,20251020-103640,global,local,750,H,H,A,A,H-A.png,A-H.png,hH,hH,mask-3.png,mask-1.png,h,1,0.46999839995987713,s,0,0.022955500055104494,0.0477116999682039,0.04560369998216629,0.09977920004166663,0.09815840004011989,0.7522504001390189
RSVPLG03,JM,20251020-102929,1.0.1,20251020-085245,704,Experiment,Both,1,Automatic,main,78,20251020-103645,local,global,750,H,H,E,A,E-H.png,H-A.png,hH,hH,mask-2.png,mask-4.png,h,1,0.5706323001068085,h,1,0.08845170005224645,0.04763219994492829,0.046835700049996376,0.09873369988054037,0.09885710012167692,0.7508906999137253
RSVPLG03,JM,20251020-102929,1.0.1,20251020-085245,704,Experiment,Both,1,Automatic,main,79,20251020-103649,global,local,750,H,S,A,E,H-A.png,E-S.png,hH,sS,mask-2.png,mask-1.png,h,1,0.35063200001604855,s,1,0.24575629993341863,0.0474929001647979,0.04658040008507669,0.10049790004268289,0.09916790015995502,0.7509337000083178
RSVPLG03,JM,20251020-102929,1.0.1,20251020-085245,704,Experiment,Both,1,Automatic,main,80,20251020-103654,local,local,300,S,H,E,E,E-S.png,E-H.png,sS,hH,mask-1.png,mask-4.png,s,1,0.583860999904573,h,1,0.126151799922809,0.045848799869418144,0.04567299992777407,0.10001339996233582,0.09885070007294416,0.3004040999803692
RSVPLG03,JM,20251020-102929,1.0.1,20251020-085245,704,Experiment,Both,1,Automatic,main,81,20251020-103659,global,local,750,H,S,A,E,H-A.png,E-S.png,hH,sS,mask-1.png,mask-4.png,h,1,0.4557275001425296,s,1,0.11889370018616319,0.04852349986322224,0.04913880000822246,0.0995155000127852,0.10173410014249384,0.7492819998878986
RSVPLG03,JM,20251020-102929,1.0.1,20251020-085245,704,Experiment,Both,1,Automatic,main,82,20251020-103703,global,global,750,H,S,A,A,H-A.png,S-A.png,hH,sS,mask-3.png,mask-2.png,h,1,0.5021690998692065,h,0,0.10745090013369918,0.04785350011661649,0.04749480006285012,0.09986730013042688,0.09945109998807311,0.7510842999909073
RSVPLG03,JM,20251020-102929,1.0.1,20251020-085245,704,Experiment,Both,1,Automatic,main,83,20251020-103708,local,global,750,S,H,A,E,A-S.png,H-E.png,sS,hH,mask-1.png,mask-4.png,s,1,1.4533563998993486,h,1,0.07385500008240342,0.04697569995187223,0.047656700015068054,0.10127949994057417,0.09984360006637871,0.750826699892059
RSVPLG03,JM,20251020-102929,1.0.1,20251020-085245,704,Experiment,Both,1,Automatic,main,84,20251020-103713,global,local,300,S,S,E,E,S-E.png,E-S.png,sS,sS,mask-3.png,mask-1.png,h,0,1.500113399932161,s,1,0.1374975999351591,0.046668400056660175,0.04668979998677969,0.09883989999070764,0.09890510002151132,0.3003650000318885
RSVPLG03,JM,20251020-102929,1.0.1,20251020-085245,704,Experiment,Both,1,Automatic,main,85,20251020-103719,global,local,300,S,H,A,A,S-A.png,A-H.png,sS,hH,mask-1.png,mask-4.png,h,0,0.7527793000917882,h,1,0.09999810019508004,0.04750849981792271,0.047221000073477626,0.09952339995652437,0.10023079998791218,0.3002501998562366
RSVPLG03,JM,20251020-102929,1.0.1,20251020-085245,704,Experiment,Both,1,Automatic,main,86,20251020-103723,local,global,300,S,H,E,A,E-S.png,H-A.png,sS,hH,mask-2.png,mask-4.png,s,1,0.6144703000318259,s,0,0.24637670000083745,0.047480300068855286,0.047619600081816316,0.0994758999440819,0.10060709994286299,0.29966909997165203
RSVPLG03,JM,20251020-102929,1.0.1,20251020-085245,704,Experiment,Both,1,Automatic,main,87,20251020-103728,global,local,300,H,S,E,E,H-E.png,E-S.png,hH,sS,mask-4.png,mask-2.png,h,1,0.9285887000150979,s,1,0.03812109981663525,0.04737409995868802,0.047428600024431944,0.09918159991502762,0.10040110000409186,0.29937559994868934
RSVPLG03,JM,20251020-102929,1.0.1,20251020-085245,704,Experiment,Both,1,Automatic,main,88,20251020-103732,global,local,750,H,H,E,E,H-E.png,E-H.png,hH,hH,mask-4.png,mask-1.png,h,1,0.665634399978444,h,1,0.08574169990606606,0.04753859993070364,0.04853300005197525,0.10074130003340542,0.10054430016316473,0.7502307998947799
RSVPLG03,JM,20251020-102929,1.0.1,20251020-085245,704,Experiment,Both,1,Automatic,main,89,20251020-103737,global,local,750,S,S,E,A,S-E.png,A-S.png,sS,sS,mask-4.png,mask-3.png,h,0,0.523144599981606,s,1,0.12249080021865666,0.04659769986756146,0.04754330008290708,0.09866579994559288,0.09950600005686283,0.7507840998005122
RSVPLG03,JM,20251020-102929,1.0.1,20251020-085245,704,Experiment,Both,1,Automatic,main,90,20251020-103742,local,global,300,S,H,A,E,A-S.png,H-E.png,sS,hH,mask-3.png,mask-4.png,s,1,0.515125900041312,h,1,0.07663809997029603,0.04675889993086457,0.046979299979284406,0.0999584998935461,0.10015120008029044,0.2998019999358803
RSVPLG03,JM,20251020-102929,1.0.1,20251020-085245,704,Experiment,Both,1,Automatic,main,91,20251020-103746,global,local,750,S,S,A,A,S-A.png,A-S.png,sS,sS,mask-1.png,mask-1.png,h,0,0.765485999872908,s,1,0.02526740008033812,0.048729300033301115,0.04770589992403984,0.09993069991469383,0.10092330002225935,0.7509190998971462
RSVPLG03,JM,20251020-102929,1.0.1,20251020-085245,704,Experiment,Both,1,Automatic,main,92,20251020-103751,local,local,300,H,S,A,E,A-H.png,E-S.png,hH,sS,mask-1.png,mask-1.png,h,1,0.4941563999745995,s,1,0.03733030008152127,0.04867019993253052,0.047661600168794394,0.1008347999304533,0.10084540001116693,0.300477699842304
RSVPLG03,JM,20251020-102929,1.0.1,20251020-085245,704,Experiment,Both,1,Automatic,main,93,20251020-103755,local,global,300,H,H,A,A,A-H.png,H-A.png,hH,hH,mask-3.png,mask-2.png,h,1,1.4169753999449313,h,1,0.087630599969998,0.04768000007607043,0.04775159992277622,0.09969959990121424,0.0997206000611186,0.30010899994522333
RSVPLG03,JM,20251020-102929,1.0.1,20251020-085245,704,Experiment,Both,1,Automatic,main,94,20251020-103800,local,global,750,H,H,A,E,A-H.png,H-E.png,hH,hH,mask-4.png,mask-1.png,h,1,0.7672743001021445,h,1,0.06960950000211596,0.04670000006444752,0.04778350004926324,0.09914959990419447,0.09972640010528266,0.7497646999545395
RSVPLG03,JM,20251020-102929,1.0.1,20251020-085245,704,Experiment,Both,1,Automatic,main,95,20251020-103805,local,global,300,S,H,E,E,E-S.png,H-E.png,sS,hH,mask-4.png,mask-3.png,s,1,0.6224793000146747,h,1,0.03615240007638931,0.04751589987426996,0.047508700052276254,0.10050669987685978,0.10150129999965429,0.29977609985508025
RSVPLG03,JM,20251020-102929,1.0.1,20251020-085245,704,Experiment,Both,1,Automatic,main,96,20251020-103809,global,global,750,H,S,E,A,H-E.png,S-A.png,hH,sS,mask-4.png,mask-2.png,h,1,0.7983146000187844,h,0,0.0842627000529319,0.046690099872648716,0.04753310000523925,0.09927319991402328,0.10054859984666109,0.7501982999965549
RSVPLG03,JM,20251020-102929,1.0.1,20251020-085245,704,Experiment,Both,1,Automatic,main,97,20251020-103814,global,global,750,H,H,E,E,H-E.png,H-E.png,hH,hH,mask-1.png,mask-3.png,h,1,0.5115275999996811,h,1,0.5515668999869376,0.046513799810782075,0.0475100998301059,0.10052059986628592,0.09952149982564151,0.7505143999587744
RSVPLG03,JM,20251020-102929,1.0.1,20251020-085245,704,Experiment,Both,1,Automatic,main,98,20251020-103820,global,global,300,S,H,E,A,S-E.png,H-A.png,sS,hH,mask-1.png,mask-2.png,h,0,0.5650723001454026,h,1,0.08971329987980425,0.04770600004121661,0.04771390021778643,0.09989410010166466,0.09989410010166466,0.29949859995394945
RSVPLG03,JM,20251020-102929,1.0.1,20251020-085245,704,Experiment,Both,1,Automatic,main,99,20251020-103824,global,local,300,H,S,A,A,H-A.png,A-S.png,hH,sS,mask-1.png,mask-4.png,h,1,0.9237963000778109,s,1,0.17234520008787513,0.0487319000530988,0.04650810011662543,0.10067910002544522,0.10050299996510148,0.3013861000072211
RSVPLG03,JM,20251020-102929,1.0.1,20251020-085245,704,Experiment,Both,1,Automatic,main,100,20251020-103829,local,local,750,S,H,E,E,E-S.png,E-H.png,sS,hH,mask-3.png,mask-3.png,s,1,0.5044285000767559,h,1,0.029599499888718128,0.047518600011244416,0.04751399997621775,0.0995336000341922,0.09955710009671748,0.7506377999670804
RSVPLG03,JM,20251020-102929,1.0.1,20251020-085245,704,Experiment,Both,1,Automatic,main,101,20251020-103836,local,global,750,H,S,A,A,A-H.png,S-A.png,hH,sS,mask-1.png,mask-1.png,h,1,0.6660301999654621,h,0,0.06946819997392595,0.04752820008434355,0.04699990013614297,0.10082469996996224,0.10032550012692809,0.7521090998779982
RSVPLG03,JM,20251020-102929,1.0.1,20251020-085245,704,Experiment,Both,1,Automatic,main,102,20251020-103840,local,local,750,S,S,A,A,A-S.png,A-S.png,sS,sS,mask-4.png,mask-1.png,s,1,0.38259799988009036,s,1,0.10714620002545416,0.04640359990298748,0.047593200113624334,0.0984574998728931,0.10168900014832616,0.7489024999085814
RSVPLG03,JM,20251020-102929,1.0.1,20251020-085245,704,Experiment,Both,1,Automatic,main,103,20251020-103845,local,global,300,H,H,E,E,E-H.png,H-E.png,hH,hH,mask-4.png,mask-1.png,h,1,0.43605070002377033,s,0,0.13365740003064275,0.04795570019632578,0.04640100011602044,0.09998310008086264,0.10006950004026294,0.3006949000991881
RSVPLG03,JM,20251020-102929,1.0.1,20251020-085245,704,Experiment,Both,1,Automatic,main,104,20251020-103849,local,global,750,S,H,E,A,E-S.png,H-A.png,sS,hH,mask-4.png,mask-2.png,s,1,0.47318440000526607,h,1,0.009560799924656749,0.04754129983484745,0.04961430002003908,0.09959160001017153,0.10064319986850023,0.7497811999637634
RSVPLG03,JM,20251020-102929,1.0.1,20251020-085245,704,Experiment,Both,1,Automatic,main,105,20251020-103854,global,local,300,S,H,E,E,S-E.png,E-H.png,sS,hH,mask-1.png,mask-3.png,h,0,0.9027923000976443,h,1,0.0831857998855412,0.04747390002012253,0.04830719996243715,0.1006361001636833,0.10030049993656576,0.2999796001240611
RSVPLG03,JM,20251020-102929,1.0.1,20251020-085245,704,Experiment,Both,1,Automatic,main,106,20251020-103858,global,global,750,S,H,E,E,S-E.png,H-E.png,sS,hH,mask-3.png,mask-1.png,s,1,1.103344300063327,h,1,0.027551400009542704,0.04850879986770451,0.047714499989524484,0.10154409985989332,0.09980990015901625,0.7514616998378187
RSVPLG03,JM,20251020-102929,1.0.1,20251020-085245,704,Experiment,Both,1,Automatic,main,107,20251020-103904,local,global,300,H,H,A,E,A-H.png,H-E.png,hH,hH,mask-4.png,mask-2.png,h,1,1.1837224999908358,h,1,0.12237029988318682,0.047508800169453025,0.04751110007055104,0.10056659998372197,0.0995145000051707,0.3008413000497967
RSVPLG03,JM,20251020-102929,1.0.1,20251020-085245,704,Experiment,Both,1,Automatic,main,108,20251020-103909,local,global,750,S,H,A,A,A-S.png,H-A.png,sS,hH,mask-1.png,mask-1.png,s,1,0.4867002998944372,h,1,0.04506829986348748,0.048480500001460314,0.0486067000310868,0.10146489995531738,0.10065599996596575,0.7506081000901759
RSVPLG03,JM,20251020-102929,1.0.1,20251020-085245,704,Experiment,Both,1,Automatic,main,109,20251020-103913,local,global,750,S,H,A,E,A-S.png,H-E.png,sS,hH,mask-3.png,mask-2.png,s,1,0.34968870016746223,h,1,0.0547259000595659,0.04749149992130697,0.04749280004762113,0.09946960001252592,0.10049870004877448,0.749903199961409
RSVPLG03,JM,20251020-102929,1.0.1,20251020-085245,704,Experiment,Both,1,Automatic,main,110,20251020-103918,local,global,750,S,S,A,A,A-S.png,S-A.png,sS,sS,mask-2.png,mask-1.png,s,1,0.41576260002329946,h,0,0.0606156000867486,0.04853040003217757,0.047530499985441566,0.09954460011795163,0.09882469987496734,0.7512608000542969
RSVPLG03,JM,20251020-102929,1.0.1,20251020-085245,704,Experiment,Both,1,Automatic,main,111,20251020-103923,global,local,300,H,H,E,E,H-E.png,E-H.png,hH,hH,mask-1.png,mask-3.png,h,1,0.839234699960798,s,0,0.16311260010115802,0.04668959998525679,0.04769730009138584,0.09987210016697645,0.10075669991783798,0.29961200011894107
RSVPLG03,JM,20251020-102929,1.0.1,20251020-085245,704,Experiment,Both,1,Automatic,main,112,20251020-103927,local,local,300,S,H,A,A,A-S.png,A-H.png,sS,hH,mask-1.png,mask-1.png,s,1,1.2008915999904275,h,1,0.10749930003657937,0.04855780000798404,0.04854350001551211,0.10055990004912019,0.10037019988521934,0.29910499998368323
RSVPLG03,JM,20251020-102929,1.0.1,20251020-085245,704,Experiment,Both,1,Automatic,main,113,20251020-103932,local,local,750,S,H,A,A,A-S.png,A-H.png,sS,hH,mask-1.png,mask-1.png,s,1,0.6560059001203626,h,1,0.12097529997117817,0.04754590010270476,0.047713200096040964,0.09981080004945397,0.09917870000936091,0.7504471000283957
RSVPLG03,JM,20251020-102929,1.0.1,20251020-085245,704,Experiment,Both,1,Automatic,main,114,20251020-103937,global,local,300,H,H,E,A,H-E.png,A-H.png,hH,hH,mask-3.png,mask-1.png,s,0,0.8235082998871803,h,1,0.020609700120985508,0.047703699907287955,0.046709599904716015,0.09888579999096692,0.09990409994497895,0.30045720003545284
RSVPLG03,JM,20251020-102929,1.0.1,20251020-085245,704,Experiment,Both,1,Automatic,main,115,20251020-103942,global,local,300,S,S,A,E,S-A.png,E-S.png,sS,sS,mask-1.png,mask-1.png,h,0,0.9164651001337916,s,1,0.07455520005896688,0.04868069989606738,0.04675609990954399,0.10069720004685223,0.0997927999123931,0.30108410003595054
RSVPLG03,JM,20251020-102929,1.0.1,20251020-085245,704,Experiment,Both,1,Automatic,main,116,20251020-103946,local,local,750,S,S,E,E,E-S.png,E-S.png,sS,sS,mask-3.png,mask-3.png,s,1,0.45913889980874956,s,1,0.10145359998568892,0.04668369982391596,0.04872120008803904,0.0988723998889327,0.1014112001284957,0.7483949998859316
RSVPLG03,JM,20251020-102929,1.0.1,20251020-085245,704,Experiment,Both,1,Automatic,main,117,20251020-103951,global,global,750,H,S,E,A,H-E.png,S-A.png,hH,sS,mask-1.png,mask-2.png,s,0,0.5241473999340087,h,0,0.055391599889844656,0.047299500089138746,0.04681859980337322,0.0993431000970304,0.09992539999075234,0.7503453001845628
RSVPLG03,JM,20251020-102929,1.0.1,20251020-085245,704,Experiment,Both,1,Automatic,main,118,20251020-103956,global,global,750,S,H,E,A,S-E.png,H-A.png,sS,hH,mask-2.png,mask-2.png,h,0,0.8690410000272095,h,1,0.0913064000196755,0.04764939984306693,0.04764979984611273,0.09980460000224411,0.0998161998577416,0.7503406000323594
RSVPLG03,JM,20251020-102929,1.0.1,20251020-085245,704,Experiment,Both,1,Automatic,main,119,20251020-104001,local,local,300,H,S,E,E,E-H.png,E-S.png,hH,sS,mask-4.png,mask-4.png,h,1,0.9649347001686692,s,1,0.2113375999033451,0.04859450017102063,0.04663349990732968,0.10169400018639863,0.09969239984638989,0.3022365001961589
RSVPLG03,JM,20251020-102929,1.0.1,20251020-085245,704,Experiment,Both,1,Automatic,main,120,20251020-104005,local,local,750,S,H,A,A,A-S.png,A-H.png,sS,hH,mask-1.png,mask-3.png,s,1,0.40356110013090074,h,1,0.06862120004370809,0.046631500124931335,0.048489199951291084,0.09982399991713464,0.10147099988535047,0.7497050000820309
RSVPLG03,JM,20251020-102929,1.0.1,20251020-085245,704,Experiment,Both,1,Automatic,main,121,20251020-104010,local,local,300,H,H,E,E,E-H.png,E-H.png,hH,hH,mask-3.png,mask-1.png,h,1,0.5208507999777794,h,1,0.10771550005301833,0.04733689990825951,0.04749070014804602,0.10032819979824126,0.09947370016016066,0.30054759979248047
RSVPLG03,JM,20251020-102929,1.0.1,20251020-085245,704,Experiment,Both,1,Automatic,main,122,20251020-104014,global,global,300,H,S,E,A,H-E.png,S-A.png,hH,sS,mask-3.png,mask-3.png,s,0,1.2630100999958813,h,0,0.06842610007151961,0.047630999935790896,0.04858519998379052,0.09962049988098443,0.10056310007348657,0.29933899990282953
RSVPLG03,JM,20251020-102929,1.0.1,20251020-085245,704,Experiment,Both,1,Automatic,main,123,20251020-104019,global,local,750,S,H,E,E,S-E.png,E-H.png,sS,hH,mask-1.png,mask-3.png,s,1,1.9793477000202984,s,0,0.2204026998952031,0.04757710010744631,0.04759400011971593,0.09934019995853305,0.09920030017383397,0.7501326999627054
RSVPLG03,JM,20251020-102929,1.0.1,20251020-085245,704,Experiment,Both,1,Automatic,main,124,20251020-104025,local,global,300,S,S,A,A,A-S.png,S-A.png,sS,sS,mask-3.png,mask-3.png,s,1,0.6512905000708997,h,0,0.058571399888023734,0.046601499896496534,0.04569579986855388,0.09978859988041222,0.09846619982272387,0.30011840001679957
RSVPLG03,JM,20251020-102929,1.0.1,20251020-085245,704,Experiment,Both,1,Automatic,main,125,20251020-104030,local,global,750,S,H,A,E,A-S.png,H-E.png,sS,hH,mask-1.png,mask-4.png,s,1,0.7889143000356853,s,0,0.10510150017216802,0.04740450019016862,0.047515799989923835,0.10034640016965568,0.09952879999764264,0.7506054001860321
RSVPLG03,JM,20251020-104140,1.0.1,20251020-085245,704,Experiment,T1,1,Automatic,warmup,1,20251020-104211,local,global,300,S,H,A,A,A-S.png,H-A.png,sS,hH,mask-1.png,mask-4.png,s,1,1.505656300112605,none,-5,0,0.04057820001617074,0.046491899993270636,0.09362790011800826,0.09947050013579428,0.2938965999055654
RSVPLG03,JM,20251020-104140,1.0.1,20251020-085245,704,Experiment,T1,1,Automatic,warmup,2,20251020-104216,global,local,750,S,H,A,E,S-A.png,E-H.png,sS,hH,mask-1.png,mask-1.png,s,1,0.8797985001001507,none,-5,0,0.04746180004440248,0.046384300105273724,0.09954490000382066,0.09947989997453988,0.7512806998565793
RSVPLG03,JM,20251020-104140,1.0.1,20251020-085245,704,Experiment,T1,1,Automatic,warmup,3,20251020-104221,global,global,300,H,S,E,E,H-E.png,S-E.png,hH,sS,mask-1.png,mask-2.png,s,0,0.4351349000353366,none,-5,0,0.04752700007520616,0.04752760007977486,0.09957620012573898,0.09958590008318424,0.2998802000656724
RSVPLG03,JM,20251020-104140,1.0.1,20251020-085245,704,Experiment,T1,1,Automatic,warmup,4,20251020-104225,global,global,750,S,H,E,A,S-E.png,H-A.png,sS,hH,mask-4.png,mask-1.png,s,1,1.3507956000976264,none,-5,0,0.047791199991479516,0.04758500005118549,0.10071479994803667,0.10069529991596937,0.7506740000098944
RSVPLG03,JM,20251020-104140,1.0.1,20251020-085245,704,Experiment,T1,1,Automatic,warmup,5,20251020-104230,local,local,750,S,H,A,E,A-S.png,E-H.png,sS,hH,mask-4.png,mask-1.png,h,0,1.178297699894756,none,-5,0,0.04699669987894595,0.04768839990720153,0.09923509997315705,0.1000873998273164,0.7504006000235677
RSVPLG03,JM,20251020-104140,1.0.1,20251020-085245,704,Experiment,T1,1,Automatic,main,6,20251020-104235,global,global,750,S,H,E,E,S-E.png,H-E.png,sS,hH,mask-1.png,mask-3.png,s,1,0.7508910000324249,none,-5,0,0.04688720009289682,0.04768509999848902,0.10018009995110333,0.09989379998296499,0.7502067000605166
RSVPLG03,JM,20251020-104140,1.0.1,20251020-085245,704,Experiment,T1,1,Automatic,main,7,20251020-104240,local,local,300,S,H,E,E,E-S.png,E-H.png,sS,hH,mask-3.png,mask-3.png,s,1,0.804594200104475,none,-5,0,0.04786289995536208,0.04748809989541769,0.10091000003740191,0.09966219984926283,0.30178360012359917
RSVPLG03,JM,20251020-104140,1.0.1,20251020-085245,704,Experiment,T1,1,Automatic,main,8,20251020-104244,global,local,750,S,H,A,E,S-A.png,E-H.png,sS,hH,mask-1.png,mask-1.png,h,0,0.6296214000321925,none,-5,0,0.047687599901109934,0.04770660004578531,0.09988250001333654,0.09973410004749894,0.7497965998481959
RSVPLG03,JM,20251020-104140,1.0.1,20251020-085245,704,Experiment,T1,1,Automatic,main,9,20251020-104249,local,global,750,H,S,E,A,E-H.png,S-A.png,hH,sS,mask-4.png,mask-4.png,h,1,0.2635755999945104,none,-5,0,0.04725870001129806,0.04861410008743405,0.09926880011335015,0.09969289996661246,0.7506510999519378
RSVPLG03,JM,20251020-104140,1.0.1,20251020-085245,704,Experiment,T1,1,Automatic,main,10,20251020-104253,global,global,750,H,S,A,A,H-A.png,S-A.png,hH,sS,mask-1.png,mask-1.png,h,1,0.7644988000392914,none,-5,0,0.04755380004644394,0.04778639995492995,0.09969369997270405,0.09987080004066229,0.7510995001066476
RSVPLG03,JM,20251020-104140,1.0.1,20251020-085245,704,Experiment,T1,1,Automatic,main,11,20251020-104258,global,global,750,H,S,E,E,H-E.png,S-E.png,hH,sS,mask-2.png,mask-2.png,s,0,0.9329483998008072,none,-5,0,0.0476073999889195,0.047512900084257126,0.09845739998854697,0.10057240002788603,0.749705399852246
RSVPLG03,JM,20251020-104140,1.0.1,20251020-085245,704,Experiment,T1,1,Automatic,main,12,20251020-104303,global,local,300,H,H,A,A,H-A.png,A-H.png,hH,hH,mask-1.png,mask-2.png,h,1,0.370678799925372,none,-5,0,0.04772370005957782,0.04831179999746382,0.09985080012120306,0.10045409994199872,0.2994470000267029
RSVPLG03,JM,20251020-104140,1.0.1,20251020-085245,704,Experiment,T1,1,Automatic,main,13,20251020-104307,global,local,300,S,S,E,E,S-E.png,E-S.png,sS,sS,mask-2.png,mask-4.png,h,0,0.42833540006540716,none,-5,0,0.04677979997359216,0.04753989982418716,0.09967989986762404,0.09953319979831576,0.30005740001797676
RSVPLG03,JM,20251020-104140,1.0.1,20251020-085245,704,Experiment,T1,1,Automatic,main,14,20251020-104311,local,global,750,H,S,E,A,E-H.png,S-A.png,hH,sS,mask-2.png,mask-2.png,h,1,0.560829000081867,none,-5,0,0.04752429993823171,0.04942940012551844,0.10058830003254116,0.10031270002946258,0.7499362998642027
RSVPLG03,JM,20251020-104140,1.0.1,20251020-085245,704,Experiment,T1,1,Automatic,main,15,20251020-104315,local,global,300,S,S,A,A,A-S.png,S-A.png,sS,sS,mask-2.png,mask-4.png,s,1,0.5927200000733137,none,-5,0,0.04752669995650649,0.04862670018337667,0.09852599981240928,0.10167290014214814,0.29900449980050325
RSVPLG03,JM,20251020-104140,1.0.1,20251020-085245,704,Experiment,T1,1,Automatic,main,16,20251020-104319,local,global,750,S,H,E,A,E-S.png,H-A.png,sS,hH,mask-3.png,mask-3.png,s,1,0.3276231000199914,none,-5,0,0.04574899980798364,0.04836989985778928,0.09990459983237088,0.1010931998025626,0.749541400000453
RSVPLG03,JM,20251020-104140,1.0.1,20251020-085245,704,Experiment,T1,1,Automatic,main,17,20251020-104324,global,global,300,H,S,E,A,H-E.png,S-A.png,hH,sS,mask-1.png,mask-2.png,s,0,0.8947205999866128,none,-5,0,0.04752540006302297,0.04643720015883446,0.09992849989794195,0.1000375000294298,0.30154929985292256
RSVPLG03,JM,20251020-104140,1.0.1,20251020-085245,704,Experiment,T1,1,Automatic,main,18,20251020-104328,local,global,750,S,S,A,A,A-S.png,S-A.png,sS,sS,mask-4.png,mask-1.png,s,1,0.41242259996943176,none,-5,0,0.046601600013673306,0.0468987999483943,0.09976480016484857,0.10071769985370338,0.7503596001770347
RSVPLG03,JM,20251020-104140,1.0.1,20251020-085245,704,Experiment,T1,1,Automatic,main,19,20251020-104333,global,local,300,S,S,A,A,S-A.png,A-S.png,sS,sS,mask-2.png,mask-1.png,h,0,0.3868648998904973,none,-5,0,0.046894799917936325,0.047760399989783764,0.09912579995580018,0.10101040010340512,0.29951609997078776
RSVPLG03,JM,20251020-104140,1.0.1,20251020-085245,704,Experiment,T1,1,Automatic,main,20,20251020-104337,global,global,300,S,S,A,A,S-A.png,S-A.png,sS,sS,mask-1.png,mask-3.png,h,0,0.42206700006499887,none,-5,0,0.04679169994778931,0.04664089996367693,0.09902299987152219,0.09989079996012151,0.299786499934271
RSVPLG03,JM,20251020-104140,1.0.1,20251020-085245,704,Experiment,T1,1,Automatic,main,21,20251020-104341,global,local,300,H,S,A,E,H-A.png,E-S.png,hH,sS,mask-2.png,mask-4.png,h,1,0.3486302997916937,none,-5,0,0.047508199932053685,0.045721299946308136,0.0995616998989135,0.09997320012189448,0.3000976999755949
RSVPLG03,JM,20251020-104140,1.0.1,20251020-085245,704,Experiment,T1,1,Automatic,main,22,20251020-104344,global,local,750,S,H,E,A,S-E.png,A-H.png,sS,hH,mask-2.png,mask-3.png,s,1,0.558619299903512,none,-5,0,0.04736820003017783,0.04825589992105961,0.1003717000130564,0.10115859983488917,0.7499156000558287
RSVPLG03,JM,20251020-104140,1.0.1,20251020-085245,704,Experiment,T1,1,Automatic,main,23,20251020-104349,local,local,300,S,S,A,A,A-S.png,A-S.png,sS,sS,mask-2.png,mask-2.png,s,1,0.4767580998595804,none,-5,0,0.04594599991105497,0.04761160002090037,0.09990639984607697,0.10063829994760454,0.30022530001588166
RSVPLG03,JM,20251020-104140,1.0.1,20251020-085245,704,Experiment,T1,1,Automatic,main,24,20251020-104353,local,global,300,H,S,E,A,E-H.png,S-A.png,hH,sS,mask-4.png,mask-3.png,h,1,0.5020817001350224,none,-5,0,0.04753730003722012,0.04753050021827221,0.09960740013048053,0.10102840000763535,0.29989559995010495
RSVPLG03,JM,20251020-104140,1.0.1,20251020-085245,704,Experiment,T1,1,Automatic,main,25,20251020-104357,global,global,300,H,S,A,E,H-A.png,S-E.png,hH,sS,mask-4.png,mask-1.png,h,1,0.913007800001651,none,-5,0,0.04765030019916594,0.04647929989732802,0.09965099999681115,0.10068450006656349,0.2997912000864744
RSVPLG03,JM,20251020-104140,1.0.1,20251020-085245,704,Experiment,T1,1,Automatic,main,26,20251020-104403,local,local,300,H,H,E,E,E-H.png,E-H.png,hH,hH,mask-3.png,mask-1.png,h,1,0.495826099999249,none,-5,0,0.0466347998008132,0.04761210014112294,0.09987099980935454,0.10060890018939972,0.2999999998137355
RSVPLG03,JM,20251020-104140,1.0.1,20251020-085245,704,Experiment,T1,1,Automatic,main,27,20251020-104407,global,global,300,S,H,A,E,S-A.png,H-E.png,sS,hH,mask-4.png,mask-3.png,h,0,0.6477682001423091,none,-5,0,0.04767560004256666,0.04765610001049936,0.1003511999733746,0.10087969992309809,0.2999627999961376
RSVPLG03,JM,20251020-104140,1.0.1,20251020-085245,704,Experiment,T1,1,Automatic,main,28,20251020-104411,local,global,750,H,H,A,E,A-H.png,H-E.png,hH,hH,mask-1.png,mask-3.png,h,1,0.04528629989363253,none,-5,0,0.0476687999907881,0.04767299978993833,0.10185790015384555,0.10087129985913634,0.7512887001503259
RSVPLG03,JM,20251020-104140,1.0.1,20251020-085245,704,Experiment,T1,1,Automatic,main,29,20251020-104415,global,global,300,S,S,E,A,S-E.png,S-A.png,sS,sS,mask-1.png,mask-1.png,s,1,0.9355095000937581,none,-5,0,0.04664049996063113,0.047654900001361966,0.09980920003727078,0.10082609998062253,0.2995887999422848
RSVPLG03,JM,20251020-104140,1.0.1,20251020-085245,704,Experiment,T1,1,Automatic,main,30,20251020-104420,global,local,300,S,S,A,E,S-A.png,E-S.png,sS,sS,mask-4.png,mask-2.png,s,1,0.7763458997942507,none,-5,0,0.047696900088340044,0.04769409983418882,0.09992599999532104,0.09988449979573488,0.30053560016676784
RSVPLG03,JM,20251020-104140,1.0.1,20251020-085245,704,Experiment,T1,1,Automatic,main,31,20251020-104424,local,local,300,S,H,A,E,A-S.png,E-H.png,sS,hH,mask-2.png,mask-3.png,s,1,0.42123780003748834,none,-5,0,0.04850509995594621,0.04653589986264706,0.10153439990244806,0.10068789985962212,0.3008028999902308
RSVPLG03,JM,20251020-104140,1.0.1,20251020-085245,704,Experiment,T1,1,Automatic,main,32,20251020-104428,local,local,750,H,H,A,A,A-H.png,A-H.png,hH,hH,mask-1.png,mask-1.png,h,1,0.09862880012951791,none,-5,0,0.04677679995074868,0.048280500108376145,0.10044290008954704,0.09996020002290606,0.7502162999007851
RSVPLG03,JM,20251020-104140,1.0.1,20251020-085245,704,Experiment,T1,1,Automatic,main,33,20251020-104432,local,local,750,S,H,A,A,A-S.png,A-H.png,sS,hH,mask-1.png,mask-3.png,s,1,0.05222820001654327,none,-5,0,0.04749109991826117,0.04853000002913177,0.0995427998714149,0.10157419997267425,0.7498099999502301
RSVPLG03,JM,20251020-104140,1.0.1,20251020-085245,704,Experiment,T1,1,Automatic,main,34,20251020-104436,global,global,300,H,S,A,A,H-A.png,S-A.png,hH,sS,mask-4.png,mask-2.png,h,1,0.6415963000617921,none,-5,0,0.04854589980095625,0.04673770000226796,0.10066459979861975,0.09995270008221269,0.3014101998414844
RSVPLG03,JM,20251020-104140,1.0.1,20251020-085245,704,Experiment,T1,1,Automatic,main,35,20251020-104440,local,local,750,H,H,E,A,E-H.png,A-H.png,hH,hH,mask-3.png,mask-1.png,h,1,0.49477479979395866,none,-5,0,0.0476691999938339,0.04768049996346235,0.1008823998272419,0.09987080004066229,0.7523337998427451
RSVPLG03,JM,20251020-104140,1.0.1,20251020-085245,704,Experiment,T1,1,Automatic,main,36,20251020-104445,local,global,300,H,H,A,E,A-H.png,H-E.png,hH,hH,mask-2.png,mask-2.png,h,1,0.5907161000650376,none,-5,0,0.047867000102996826,0.046696299919858575,0.1011366001330316,0.09990000003017485,0.3017770000733435
RSVPLG03,JM,20251020-104140,1.0.1,20251020-085245,704,Experiment,T1,1,Automatic,main,37,20251020-104449,global,local,300,H,H,E,E,H-E.png,E-H.png,hH,hH,mask-3.png,mask-2.png,s,0,0.5313661999534816,none,-5,0,0.04673529998399317,0.04795649996958673,0.0999889001250267,0.10178370005451143,0.29902010015212
RSVPLG03,JM,20251020-104140,1.0.1,20251020-085245,704,Experiment,T1,1,Automatic,main,38,20251020-104453,global,global,750,S,S,A,E,S-A.png,S-E.png,sS,sS,mask-2.png,mask-4.png,h,0,0.11582790012471378,none,-5,0,0.04766779998317361,0.04811790003441274,0.10090199997648597,0.10028170002624393,0.7511569999624044
RSVPLG03,JM,20251020-104140,1.0.1,20251020-085245,704,Experiment,T1,1,Automatic,main,39,20251020-104457,local,local,300,S,S,E,E,E-S.png,E-S.png,sS,sS,mask-4.png,mask-3.png,s,1,0.6372552998363972,none,-5,0,0.04750930005684495,0.048613399965688586,0.09906010003760457,0.10083990008570254,0.2986679000314325
RSVPLG03,JM,20251020-104140,1.0.1,20251020-085245,704,Experiment,T1,1,Automatic,main,40,20251020-104501,local,local,750,S,S,E,E,E-S.png,E-S.png,sS,sS,mask-1.png,mask-2.png,s,1,1.239496200112626,none,-5,0,0.04659429984167218,0.04752260004170239,0.09944319981150329,0.09847890003584325,0.7513110998552293
RSVPLG03,JM,20251020-104140,1.0.1,20251020-085245,704,Experiment,T1,1,Automatic,main,41,20251020-104506,local,local,750,H,H,E,A,E-H.png,A-H.png,hH,hH,mask-2.png,mask-2.png,h,1,0.06723489984869957,none,-5,0,0.04853260004892945,0.04650289984419942,0.10071939998306334,0.10065019992180169,0.7521065000910312
RSVPLG03,JM,20251020-104140,1.0.1,20251020-085245,704,Experiment,T1,1,Automatic,main,42,20251020-104510,global,global,300,H,S,A,E,H-A.png,S-E.png,hH,sS,mask-2.png,mask-3.png,h,1,0.9366671999450773,none,-5,0,0.04753500013612211,0.04677340015769005,0.09962969995103776,0.09985720016993582,0.2999444999732077
RSVPLG03,JM,20251020-104140,1.0.1,20251020-085245,704,Experiment,T1,1,Automatic,main,43,20251020-104514,local,local,300,S,H,E,E,E-S.png,E-H.png,sS,hH,mask-4.png,mask-1.png,s,1,0.7338685998693109,none,-5,0,0.047506900038570166,0.04687850014306605,0.09952020016498864,0.09995820000767708,0.29907700000330806
RSVPLG03,JM,20251020-104140,1.0.1,20251020-085245,704,Experiment,T1,1,Automatic,main,44,20251020-104519,local,global,750,H,H,E,E,E-H.png,H-E.png,hH,hH,mask-2.png,mask-1.png,h,1,0.4440321000292897,none,-5,0,0.04651410016231239,0.04783640010282397,0.0989127999637276,0.09891679999418557,0.7506897000130266
RSVPLG03,JM,20251020-104140,1.0.1,20251020-085245,704,Experiment,T1,1,Automatic,main,45,20251020-104523,local,global,300,H,H,E,A,E-H.png,H-A.png,hH,hH,mask-3.png,mask-4.png,s,0,0.8804415999911726,none,-5,0,0.04669900005683303,0.04688809998333454,0.09890610002912581,0.09934169985353947,0.29980120016261935
RSVPLG03,JM,20251020-104140,1.0.1,20251020-085245,704,Experiment,T1,1,Automatic,main,46,20251020-104528,local,local,750,H,S,E,A,E-H.png,A-S.png,hH,sS,mask-3.png,mask-1.png,h,1,0.17319920007139444,none,-5,0,0.048692600103095174,0.04754470009356737,0.10069309989921749,0.10044530010782182,0.7519064999651164
RSVPLG03,JM,20251020-104140,1.0.1,20251020-085245,704,Experiment,T1,1,Automatic,main,47,20251020-104532,global,local,750,H,H,E,E,H-E.png,E-H.png,hH,hH,mask-3.png,mask-2.png,s,0,1.0051361001096666,none,-5,0,0.047086300095543265,0.04750459990464151,0.09926430019550025,0.10063120000995696,0.7495616001542658
RSVPLG03,JM,20251020-104140,1.0.1,20251020-085245,704,Experiment,T1,1,Automatic,main,48,20251020-104537,local,local,750,S,H,A,E,A-S.png,E-H.png,sS,hH,mask-1.png,mask-4.png,s,1,0.22268530004657805,none,-5,0,0.0475447999779135,0.04750040010549128,0.09952330007217824,0.09947340004146099,0.749983899993822
RSVPLG03,JM,20251020-104140,1.0.1,20251020-085245,704,Experiment,T1,1,Automatic,main,49,20251020-104541,local,local,300,H,H,A,A,A-H.png,A-H.png,hH,hH,mask-2.png,mask-3.png,h,1,0.5054880999960005,none,-5,0,0.046632800018414855,0.04656859999522567,0.09982310002669692,0.09868409996852279,0.30076840007677674
RSVPLG03,JM,20251020-104140,1.0.1,20251020-085245,704,Experiment,T1,1,Automatic,main,50,20251020-104545,local,local,300,H,S,E,A,E-H.png,A-S.png,hH,sS,mask-3.png,mask-1.png,h,1,0.8504739999771118,none,-5,0,0.04753139987587929,0.04632660001516342,0.09957559988833964,0.09832019987516105,0.3002605000510812
RSVPLG03,JM,20251020-104140,1.0.1,20251020-085245,704,Experiment,T1,1,Automatic,main,51,20251020-104551,local,global,750,H,S,A,E,A-H.png,S-E.png,hH,sS,mask-1.png,mask-3.png,h,1,0.32987029990181327,none,-5,0,0.04780870000831783,0.04685320006683469,0.1000222999136895,0.09920940012671053,0.7515400999691337
RSVPLG03,JM,20251020-104140,1.0.1,20251020-085245,704,Experiment,T1,1,Automatic,main,52,20251020-104555,local,global,300,S,S,A,E,A-S.png,S-E.png,sS,sS,mask-1.png,mask-2.png,s,1,0.46894959989003837,none,-5,0,0.04650829988531768,0.046628399984911084,0.09862299985252321,0.09866489982232451,0.3005113999824971
RSVPLG03,JM,20251020-104140,1.0.1,20251020-085245,704,Experiment,T1,1,Automatic,main,53,20251020-104559,global,global,750,H,S,A,E,H-A.png,S-E.png,hH,sS,mask-3.png,mask-3.png,h,1,0.8613982999231666,none,-5,0,0.04764290014281869,0.047677599824965,0.10183049994520843,0.09984349994920194,0.7519627001602203
RSVPLG03,JM,20251020-104140,1.0.1,20251020-085245,704,Experiment,T1,1,Automatic,main,54,20251020-104604,global,local,300,H,H,A,E,H-A.png,E-H.png,hH,hH,mask-2.png,mask-3.png,h,1,0.824993500020355,none,-5,0,0.0459565999917686,0.047567599918693304,0.09923970000818372,0.09978009993210435,0.30009660008363426
RSVPLG03,JM,20251020-104140,1.0.1,20251020-085245,704,Experiment,T1,1,Automatic,main,55,20251020-104608,global,global,750,S,H,E,A,S-E.png,H-A.png,sS,hH,mask-4.png,mask-3.png,h,0,0.6247987998649478,none,-5,0,0.048711400013417006,0.04757110006175935,0.1009122000541538,0.10040310001932085,0.7506113999988884
RSVPLG03,JM,20251020-104140,1.0.1,20251020-085245,704,Experiment,T1,1,Automatic,main,56,20251020-104613,global,global,300,S,S,A,A,S-A.png,S-A.png,sS,sS,mask-2.png,mask-1.png,h,0,0.6806528000161052,none,-5,0,0.04751609987579286,0.0485361001919955,0.09952139994129539,0.09881890006363392,0.3000369998626411
RSVPLG03,JM,20251020-104140,1.0.1,20251020-085245,704,Experiment,T1,1,Automatic,main,57,20251020-104617,global,local,300,H,S,E,E,H-E.png,E-S.png,hH,sS,mask-4.png,mask-4.png,s,0,0.7293499999213964,none,-5,0,0.047726500080898404,0.04587629996240139,0.09994020010344684,0.09892619983293116,0.3007699002046138
RSVPLG03,JM,20251020-104140,1.0.1,20251020-085245,704,Experiment,T1,1,Automatic,main,58,20251020-104621,global,local,750,S,H,E,E,S-E.png,E-H.png,sS,hH,mask-4.png,mask-3.png,h,0,0.5903305998072028,none,-5,0,0.047520099906250834,0.04651919985190034,0.09953009989112616,0.09888599999248981,0.7509079000446945
RSVPLG03,JM,20251020-104140,1.0.1,20251020-085245,704,Experiment,T1,1,Automatic,main,59,20251020-104626,local,local,750,S,S,A,E,A-S.png,E-S.png,sS,sS,mask-2.png,mask-1.png,s,1,0.8350192001089454,none,-5,0,0.047511399956420064,0.04752030014060438,0.09953239979222417,0.10053590009920299,0.7498466998804361
RSVPLG03,JM,20251020-104140,1.0.1,20251020-085245,704,Experiment,T1,1,Automatic,main,60,20251020-104630,global,local,750,H,H,A,A,H-A.png,A-H.png,hH,hH,mask-4.png,mask-1.png,h,1,0.8122944000642747,none,-5,0,0.04750960017554462,0.04901259997859597,0.09984760009683669,0.10008240002207458,0.7506965000648052
RSVPLG03,JM,20251020-104140,1.0.1,20251020-085245,704,Experiment,T1,1,Automatic,main,61,20251020-104635,local,local,750,H,S,E,A,E-H.png,A-S.png,hH,sS,mask-1.png,mask-2.png,h,1,0.5009848999325186,none,-5,0,0.04853719985112548,0.04840069985948503,0.1005190999712795,0.09939719992689788,0.7515292000025511
RSVPLG03,JM,20251020-104140,1.0.1,20251020-085245,704,Experiment,T1,1,Automatic,main,62,20251020-104640,global,local,750,S,H,A,E,S-A.png,E-H.png,sS,hH,mask-2.png,mask-3.png,h,0,0.08416120009496808,none,-5,0,0.04777720011770725,0.04753570002503693,0.09964000014588237,0.10053139994852245,0.7509848000481725
RSVPLG03,JM,20251020-104140,1.0.1,20251020-085245,704,Experiment,T1,1,Automatic,main,63,20251020-104644,local,global,300,S,S,A,E,A-S.png,S-E.png,sS,sS,mask-1.png,mask-3.png,s,1,0.5126805999316275,none,-5,0,0.04633849998936057,0.047389799961820245,0.09989110007882118,0.10005709994584322,0.3001125000882894
RSVPLG03,JM,20251020-104140,1.0.1,20251020-085245,704,Experiment,T1,1,Automatic,main,64,20251020-104648,local,global,750,H,S,A,A,A-H.png,S-A.png,hH,sS,mask-3.png,mask-4.png,h,1,0.2967987998854369,none,-5,0,0.04687530011869967,0.04723650007508695,0.09993780008517206,0.10040040011517704,0.7496680000331253
RSVPLG03,JM,20251020-104140,1.0.1,20251020-085245,704,Experiment,T1,1,Automatic,main,65,20251020-104652,local,global,300,S,H,A,E,A-S.png,H-E.png,sS,hH,mask-3.png,mask-4.png,s,1,0.7497501999605447,none,-5,0,0.04753010021522641,0.04850539984181523,0.0985013002064079,0.10069140000268817,0.298749300185591
RSVPLG03,JM,20251020-104140,1.0.1,20251020-085245,704,Experiment,T1,1,Automatic,main,66,20251020-104656,local,global,300,S,S,A,E,A-S.png,S-E.png,sS,sS,mask-2.png,mask-1.png,s,1,0.6346595000941306,none,-5,0,0.04790159990079701,0.04659800021909177,0.10123059991747141,0.10054390016011894,0.30061439983546734
RSVPLG03,JM,20251020-104140,1.0.1,20251020-085245,704,Experiment,T1,1,Automatic,main,67,20251020-104700,local,local,300,H,S,E,A,E-H.png,A-S.png,hH,sS,mask-4.png,mask-2.png,h,1,0.6526128000114113,none,-5,0,0.0475212000310421,0.04767940007150173,0.10079899989068508,0.09887530002743006,0.300485200015828
RSVPLG03,JM,20251020-104140,1.0.1,20251020-085245,704,Experiment,T1,1,Automatic,main,68,20251020-104705,global,global,750,S,H,A,A,S-A.png,H-A.png,sS,hH,mask-2.png,mask-2.png,h,0,0.5817198001313955,none,-5,0,0.046782399993389845,0.04777890001423657,0.10010939999483526,0.09996560006402433,0.7504994999617338
RSVPLG03,JM,20251020-104140,1.0.1,20251020-085245,704,Experiment,T1,1,Automatic,main,69,20251020-104709,global,local,750,H,S,A,E,H-A.png,E-S.png,hH,sS,mask-3.png,mask-4.png,h,1,0.5805962001904845,none,-5,0,0.04752299981191754,0.047600500052794814,0.09953179978765547,0.09965180000290275,0.7503067997749895
RSVPLG03,JM,20251020-104140,1.0.1,20251020-085245,704,Experiment,T1,1,Automatic,main,70,20251020-104714,global,global,750,S,H,A,E,S-A.png,H-E.png,sS,hH,mask-3.png,mask-2.png,h,0,0.40585690014995635,none,-5,0,0.04753399989567697,0.04862729995511472,0.09907469991594553,0.10073589999228716,0.749525299994275
RSVPLG03,JM,20251020-104140,1.0.1,20251020-085245,704,Experiment,T1,1,Automatic,main,71,20251020-104718,global,local,300,S,H,E,E,S-E.png,E-H.png,sS,hH,mask-1.png,mask-4.png,s,1,0.7515654000453651,none,-5,0,0.04722980014048517,0.04674589983187616,0.09973630006425083,0.10058009997010231,0.30141220008954406
RSVPLG03,JM,20251020-104140,1.0.1,20251020-085245,704,Experiment,T1,1,Automatic,main,72,20251020-104722,local,local,300,S,S,A,A,A-S.png,A-S.png,sS,sS,mask-1.png,mask-2.png,s,1,0.6306227000895888,none,-5,0,0.048526400001719594,0.04653110005892813,0.09960229997523129,0.10065030003897846,0.30091460002586246
RSVPLG03,JM,20251020-104140,1.0.1,20251020-085245,704,Experiment,T1,1,Automatic,main,73,20251020-104726,global,global,750,H,H,A,A,H-A.png,H-A.png,hH,hH,mask-1.png,mask-4.png,h,1,0.6757730999961495,none,-5,0,0.04654679982922971,0.047662399942055345,0.0997106998693198,0.09978489996865392,0.7496944998856634
RSVPLG03,JM,20251020-104140,1.0.1,20251020-085245,704,Experiment,T1,1,Automatic,main,74,20251020-104731,local,local,750,S,S,A,E,A-S.png,E-S.png,sS,sS,mask-1.png,mask-1.png,s,1,0.29165640007704496,none,-5,0,0.047511700075119734,0.047524399822577834,0.09954120009206235,0.09953029989264905,0.7502085000742227
RSVPLG03,JM,20251020-104140,1.0.1,20251020-085245,704,Experiment,T1,1,Automatic,main,75,20251020-104735,local,global,750,H,H,E,E,E-H.png,H-E.png,hH,hH,mask-4.png,mask-4.png,h,1,0.6411353000439703,none,-5,0,0.04754470009356737,0.047536500031128526,0.10058930004015565,0.10054960008710623,0.7501848000101745
RSVPLG03,JM,20251020-104140,1.0.1,20251020-085245,704,Experiment,T1,1,Automatic,main,76,20251020-104741,global,local,750,S,S,E,E,S-E.png,E-S.png,sS,sS,mask-3.png,mask-4.png,s,1,0.1338089001365006,none,-5,0,0.048413199838250875,0.04853659984655678,0.10044589987955987,0.10153679992072284,0.7502729999832809
RSVPLG03,JM,20251020-104140,1.0.1,20251020-085245,704,Experiment,T1,1,Automatic,main,77,20251020-104745,global,local,750,H,H,E,E,H-E.png,E-H.png,hH,hH,mask-3.png,mask-1.png,s,0,0.06823690002784133,none,-5,0,0.0465977001003921,0.047012099996209145,0.09892369993031025,0.10114770010113716,0.7497904999181628
RSVPLG03,JM,20251020-104140,1.0.1,20251020-085245,704,Experiment,T1,1,Automatic,main,78,20251020-104749,local,local,750,S,H,E,A,E-S.png,A-H.png,sS,hH,mask-2.png,mask-3.png,s,1,0.449139199918136,none,-5,0,0.04650579998269677,0.04834500001743436,0.09975600009784102,0.09926429996266961,0.7500438999850303
RSVPLG03,JM,20251020-104140,1.0.1,20251020-085245,704,Experiment,T1,1,Automatic,main,79,20251020-104754,local,global,300,H,H,E,A,E-H.png,H-A.png,hH,hH,mask-2.png,mask-2.png,h,1,0.4061002000235021,none,-5,0,0.04679500008933246,0.04581199982203543,0.09934570011682808,0.09988370002247393,0.29969590017572045
RSVPLG03,JM,20251020-104140,1.0.1,20251020-085245,704,Experiment,T1,1,Automatic,main,80,20251020-104757,local,global,300,S,S,A,E,A-S.png,S-E.png,sS,sS,mask-1.png,mask-1.png,s,1,0.5729662999510765,none,-5,0,0.04955639992840588,0.04673010017722845,0.1017968999221921,0.09956320002675056,0.3020662998314947
RSVPLG03,JM,20251020-104140,1.0.1,20251020-085245,704,Experiment,T1,1,Automatic,main,81,20251020-104802,global,global,750,S,H,A,E,S-A.png,H-E.png,sS,hH,mask-1.png,mask-2.png,h,0,0.13618730008602142,none,-5,0,0.04745760001242161,0.04750899993814528,0.10048669995740056,0.09952339995652437,0.7516920999623835
RSVPLG03,JM,20251020-104140,1.0.1,20251020-085245,704,Experiment,T1,1,Automatic,main,82,20251020-104806,local,local,300,H,H,A,E,A-H.png,E-H.png,hH,hH,mask-4.png,mask-3.png,h,1,0.529825699981302,none,-5,0,0.047698199981823564,0.04665539995767176,0.09890579991042614,0.09987529995851219,0.30052029993385077
RSVPLG03,JM,20251020-104140,1.0.1,20251020-085245,704,Experiment,T1,1,Automatic,main,83,20251020-104810,global,local,750,S,H,A,A,S-A.png,A-H.png,sS,hH,mask-4.png,mask-1.png,h,0,0.3962157000787556,none,-5,0,0.047680099960416555,0.047684699995443225,0.10099419998005033,0.10179190011695027,0.7502270999830216
RSVPLG03,JM,20251020-104140,1.0.1,20251020-085245,704,Experiment,T1,1,Automatic,main,84,20251020-104814,global,local,750,S,S,A,E,S-A.png,E-S.png,sS,sS,mask-3.png,mask-4.png,h,0,0.40465259994380176,none,-5,0,0.04873899999074638,0.047704500146210194,0.10073030018247664,0.09940110007300973,0.7516689000185579
RSVPLG03,JM,20251020-104140,1.0.1,20251020-085245,704,Experiment,T1,1,Automatic,main,85,20251020-104819,local,local,750,H,H,A,E,A-H.png,E-H.png,hH,hH,mask-1.png,mask-3.png,h,1,0.5936644999310374,none,-5,0,0.04727110010571778,0.04806299996562302,0.09981540008448064,0.10033020004630089,0.7509949000086635
RSVPLG03,JM,20251020-104140,1.0.1,20251020-085245,704,Experiment,T1,1,Automatic,main,86,20251020-104823,global,global,300,S,H,E,A,S-E.png,H-A.png,sS,hH,mask-2.png,mask-2.png,s,1,0.9919841000810266,none,-5,0,0.046518499962985516,0.04780429997481406,0.09952539997175336,0.1004056001547724,0.2997950999997556
RSVPLG03,JM,20251020-104140,1.0.1,20251020-085245,704,Experiment,T1,1,Automatic,main,87,20251020-104828,global,global,300,H,H,E,A,H-E.png,H-A.png,hH,hH,mask-3.png,mask-1.png,s,0,1.4850244000554085,none,-5,0,0.046478800009936094,0.04761310014873743,0.09950229991227388,0.10061220009811223,0.29961039987392724
RSVPLG03,JM,20251020-104140,1.0.1,20251020-085245,704,Experiment,T1,1,Automatic,main,88,20251020-104833,local,local,300,H,S,A,E,A-H.png,E-S.png,hH,sS,mask-3.png,mask-4.png,h,1,1.2523767999373376,none,-5,0,0.04752089991234243,0.04752089991234243,0.10059799998998642,0.10058289999142289,0.2998474999330938
RSVPLG03,JM,20251020-104140,1.0.1,20251020-085245,704,Experiment,T1,1,Automatic,main,89,20251020-104838,local,local,300,S,H,E,E,E-S.png,E-H.png,sS,hH,mask-2.png,mask-2.png,s,1,1.3509698999114335,none,-5,0,0.04751970013603568,0.04752560006454587,0.09954289998859167,0.0995392999611795,0.30010370002128184
RSVPLG03,JM,20251020-104140,1.0.1,20251020-085245,704,Experiment,T1,1,Automatic,main,90,20251020-104842,global,local,300,S,H,E,E,S-E.png,E-H.png,sS,hH,mask-1.png,mask-1.png,s,1,0.8275395999662578,none,-5,0,0.048524900106713176,0.0474008999299258,0.10076880012638867,0.0984753998927772,0.3018820001743734
RSVPLG03,JM,20251020-104140,1.0.1,20251020-085245,704,Experiment,T1,1,Automatic,main,91,20251020-104847,local,global,750,S,S,E,E,E-S.png,S-E.png,sS,sS,mask-2.png,mask-2.png,s,1,1.1362616999540478,none,-5,0,0.04730469989590347,0.04813160002231598,0.09851319994777441,0.09946779999881983,0.7500964999198914
RSVPLG03,JM,20251020-104140,1.0.1,20251020-085245,704,Experiment,T1,1,Automatic,main,92,20251020-104852,local,global,750,H,S,A,A,A-H.png,S-A.png,hH,sS,mask-3.png,mask-4.png,h,1,0.4219630998559296,none,-5,0,0.04767489992082119,0.04796870006248355,0.09986569988541305,0.09918190003372729,0.7508957998361439
RSVPLG03,JM,20251020-104140,1.0.1,20251020-085245,704,Experiment,T1,1,Automatic,main,93,20251020-104856,local,global,300,H,H,A,A,A-H.png,H-A.png,hH,hH,mask-4.png,mask-2.png,h,1,0.5313057999592274,none,-5,0,0.04874109989032149,0.04655599989928305,0.0997917999047786,0.09861769992858171,0.30139410006813705
RSVPLG03,JM,20251020-104140,1.0.1,20251020-085245,704,Experiment,T1,1,Automatic,main,94,20251020-104900,global,global,300,S,H,A,A,S-A.png,H-A.png,sS,hH,mask-4.png,mask-2.png,s,1,0.8744175001047552,none,-5,0,0.04628270003013313,0.04732479993253946,0.0991764001082629,0.10005350015126169,0.29945529997348785
RSVPLG03,JM,20251020-104140,1.0.1,20251020-085245,704,Experiment,T1,1,Automatic,main,95,20251020-104905,local,global,750,S,H,A,E,A-S.png,H-E.png,sS,hH,mask-3.png,mask-3.png,s,1,0.1299689000006765,none,-5,0,0.046544100157916546,0.04751039994880557,0.10058800014667213,0.10052619990892708,0.7498885001987219
RSVPLG03,JM,20251020-104140,1.0.1,20251020-085245,704,Experiment,T1,1,Automatic,main,96,20251020-104909,global,local,300,S,H,E,A,S-E.png,A-H.png,sS,hH,mask-3.png,mask-4.png,s,1,0.784775999840349,none,-5,0,0.047525100177153945,0.048536600079387426,0.10156220011413097,0.09957680013030767,0.30081030004657805
RSVPLG03,JM,20251020-104140,1.0.1,20251020-085245,704,Experiment,T1,1,Automatic,main,97,20251020-104913,global,local,750,S,S,E,E,S-E.png,E-S.png,sS,sS,mask-1.png,mask-4.png,s,1,0.5732293999753892,none,-5,0,0.04736359999515116,0.046624899841845036,0.09854869986884296,0.10040849982760847,0.7493348000571132
RSVPLG03,JM,20251020-104140,1.0.1,20251020-085245,704,Experiment,T1,1,Automatic,main,98,20251020-104918,local,global,750,H,H,E,A,E-H.png,H-A.png,hH,hH,mask-3.png,mask-2.png,h,1,0.3798745002131909,none,-5,0,0.04753029998391867,0.047523200046271086,0.09957089996896684,0.0995307001285255,0.7500600998755544
RSVPLG03,JM,20251020-104140,1.0.1,20251020-085245,704,Experiment,T1,1,Automatic,main,99,20251020-104922,local,local,300,S,S,A,E,A-S.png,E-S.png,sS,sS,mask-1.png,mask-1.png,s,1,0.9431175000499934,none,-5,0,0.04760370007716119,0.046798399882391095,0.09987049992196262,0.09976359992288053,0.30047710007056594
RSVPLG03,JM,20251020-104140,1.0.1,20251020-085245,704,Experiment,T1,1,Automatic,main,100,20251020-104927,global,local,300,H,S,A,E,H-A.png,E-S.png,hH,sS,mask-2.png,mask-3.png,h,1,2.232053400017321,none,-5,0,0.04869000008329749,0.04779059998691082,0.10186340007930994,0.10006360011175275,0.30058689997531474
RSVPLG03,JM,20251020-104140,1.0.1,20251020-085245,704,Experiment,T1,1,Automatic,main,101,20251020-104933,global,global,300,S,S,A,E,S-A.png,S-E.png,sS,sS,mask-4.png,mask-2.png,s,1,1.2002453999593854,none,-5,0,0.04770060000009835,0.04769190005026758,0.10113369999453425,0.10090099996887147,0.29992179991677403
RSVPLG03,JM,20251020-104140,1.0.1,20251020-085245,704,Experiment,T1,1,Automatic,main,102,20251020-104938,global,global,750,S,S,E,A,S-E.png,S-A.png,sS,sS,mask-2.png,mask-3.png,s,1,0.3009049999527633,none,-5,0,0.04672370012849569,0.046730199828743935,0.1000125000718981,0.1000062997918576,0.7501589001622051
RSVPLG03,JM,20251020-104140,1.0.1,20251020-085245,704,Experiment,T1,1,Automatic,main,103,20251020-104942,local,global,750,H,H,E,E,E-H.png,H-E.png,hH,hH,mask-4.png,mask-1.png,h,1,0.3683650998864323,none,-5,0,0.04781710007227957,0.04869660013355315,0.10100760008208454,0.10075790015980601,0.750307000009343
RSVPLG03,JM,20251020-104140,1.0.1,20251020-085245,704,Experiment,T1,1,Automatic,main,104,20251020-104947,global,global,300,S,H,E,E,S-E.png,H-E.png,sS,hH,mask-3.png,mask-4.png,h,0,0.8830715999938548,none,-5,0,0.04684809991158545,0.04773560003377497,0.0999594999011606,0.09932409995235503,0.29963660007342696
RSVPLG03,JM,20251020-104140,1.0.1,20251020-085245,704,Experiment,T1,1,Automatic,main,105,20251020-104951,local,global,300,S,S,E,A,E-S.png,S-A.png,sS,sS,mask-4.png,mask-4.png,s,1,0.4512513999361545,none,-5,0,0.04766230005770922,0.04744160012342036,0.09985650004819036,0.10036709997802973,0.2995480999816209
RSVPLG03,JM,20251020-104140,1.0.1,20251020-085245,704,Experiment,T1,1,Automatic,main,106,20251020-104955,global,global,750,H,S,A,A,H-A.png,S-A.png,hH,sS,mask-3.png,mask-4.png,s,0,0.6667177998460829,none,-5,0,0.04669749992899597,0.046450099907815456,0.10088740009814501,0.09972049994394183,0.751034100074321
RSVPLG03,JM,20251020-104140,1.0.1,20251020-085245,704,Experiment,T1,1,Automatic,main,107,20251020-105000,local,local,750,S,H,E,A,E-S.png,A-H.png,sS,hH,mask-4.png,mask-1.png,s,1,0.029766600113362074,none,-5,0,0.04788440000265837,0.0485536998603493,0.10008209990337491,0.10003149998374283,0.7504825000651181
RSVPLG03,JM,20251020-104140,1.0.1,20251020-085245,704,Experiment,T1,1,Automatic,main,108,20251020-105004,global,local,750,H,H,E,E,H-E.png,E-H.png,hH,hH,mask-1.png,mask-4.png,s,0,0.6918504999484867,none,-5,0,0.047518699895590544,0.04859809996560216,0.10051240003667772,0.09999560005962849,0.750373899936676
RSVPLG03,JM,20251020-104140,1.0.1,20251020-085245,704,Experiment,T1,1,Automatic,main,109,20251020-105008,global,global,750,H,S,A,E,H-A.png,S-E.png,hH,sS,mask-1.png,mask-4.png,h,1,0.7533525999169797,none,-5,0,0.04782010009512305,0.04747530003078282,0.10067340009845793,0.10044199996627867,0.7518460000865161
RSVPLG03,JM,20251020-104140,1.0.1,20251020-085245,704,Experiment,T1,1,Automatic,main,110,20251020-105013,global,global,300,H,H,A,A,H-A.png,H-A.png,hH,hH,mask-1.png,mask-3.png,h,1,0.3884408001322299,none,-5,0,0.04733749991282821,0.04853150015696883,0.10031959996558726,0.10050630010664463,0.299538099905476
RSVPLG03,JM,20251020-104140,1.0.1,20251020-085245,704,Experiment,T1,1,Automatic,main,111,20251020-105017,local,local,300,S,S,E,A,E-S.png,A-S.png,sS,sS,mask-3.png,mask-1.png,s,1,0.6163421999663115,none,-5,0,0.047677500173449516,0.04755139979533851,0.0987841000314802,0.10067009995691478,0.2994819001760334
RSVPLG03,JM,20251020-104140,1.0.1,20251020-085245,704,Experiment,T1,1,Automatic,main,112,20251020-105021,global,global,750,H,S,E,A,H-E.png,S-A.png,hH,sS,mask-4.png,mask-2.png,s,0,0.6001901999115944,none,-5,0,0.047229700023308396,0.04927080008201301,0.09924340015277267,0.10111650009639561,0.7494413000531495
