exp,exp_initials,runtime,ver,modtime,sub,blocktype,targets,cuetype,mode,trialtype,trial,trialtime,t1_level,t2_level,t2_lag,t1,t2,distractor1,distractor2,stimfile1,stimfile2,t1_corr,t2_corr,maskfile1,maskfile2,t1_resp,t1_acc,t1_rt,t2_resp,t2_acc,t2_rt,t1_dur,t2_dur,t1mask_soa,t2mask_soa,t1t2_soa
RSVPLG03,km,20260226-151535,1.0.2,20251113-095759,778,Introduction,T1,1,Automatic,main,1,20260226-151610,local,local,750,H,H,A,A,A-H.png,A-H.png,hH,hH,mask-1.png,mask-1.png,h,1,1.0445964999962598,none,-5,0,0.09957500011660159,0.1002428000792861,0.1986704000737518,0.1995900000911206,0.7478952999226749
RSVPLG03,km,20260226-151535,1.0.2,20251113-095759,778,Introduction,T1,1,Automatic,main,2,20260226-151615,global,local,750,H,S,E,E,H-E.png,E-S.png,hH,sS,mask-2.png,mask-3.png,h,1,3.2073949999175966,none,-5,0,0.10096070007421076,0.09752489998936653,0.2004287000745535,0.1989824001211673,0.7503726000431925
RSVPLG03,km,20260226-151535,1.0.2,20251113-095759,778,Introduction,T1,1,Automatic,main,3,20260226-151623,local,global,750,S,S,E,E,E-S.png,S-E.png,sS,sS,mask-3.png,mask-2.png,s,1,4.073948899982497,none,-5,0,0.09923990000970662,0.099471400026232,0.19992029992863536,0.19809239986352623,0.7480661999434233
RSVPLG03,km,20260226-151535,1.0.2,20251113-095759,778,Introduction,T1,1,Automatic,main,4,20260226-151631,local,global,750,S,H,A,E,A-S.png,H-E.png,sS,hH,mask-3.png,mask-4.png,s,1,4.869978400180116,none,-5,0,0.09999559982679784,0.10062670009210706,0.1986657998058945,0.19992889999412,0.7473891999106854
RSVPLG03,km,20260226-151535,1.0.2,20251113-095759,778,Introduction,T1,1,Automatic,main,5,20260226-151640,local,local,750,H,H,E,E,E-H.png,E-H.png,hH,hH,mask-3.png,mask-3.png,h,1,4.489063800079748,none,-5,0,0.09930599993094802,0.10170780005864799,0.19983269996009767,0.19864899991080165,0.7479087000247091
RSVPLG03,km,20260226-151535,1.0.2,20251113-095759,778,Introduction,T1,1,Automatic,main,6,20260226-151649,local,global,750,S,S,E,E,E-S.png,S-E.png,sS,sS,mask-3.png,mask-3.png,s,1,0.9413455000612885,none,-5,0,0.09969429997727275,0.0987833000253886,0.19898000010289252,0.19974609999917448,0.7484444000292569
RSVPLG03,km,20260226-151535,1.0.2,20251113-095759,778,Introduction,T1,1,Automatic,main,7,20260226-151654,global,global,750,S,S,E,E,S-E.png,S-E.png,sS,sS,mask-3.png,mask-2.png,s,1,1.4576732001733035,none,-5,0,0.09875270002521574,0.09866829984821379,0.1975467000156641,0.19888029992580414,0.7479586000554264
RSVPLG03,km,20260226-151535,1.0.2,20251113-095759,778,Introduction,T1,1,Automatic,main,8,20260226-151659,global,global,750,S,H,A,E,S-A.png,H-E.png,sS,hH,mask-4.png,mask-3.png,none,-6,0,none,-5,0,0.09805620019324124,0.10097820009104908,0.19874580018222332,0.20006820000708103,0.7459927999880165
RSVPLG03,km,20260226-151720,1.0.2,20251113-095759,778,Practice,T1,1,Automatic,main,1,20260226-151745,local,global,300,S,S,A,A,A-S.png,S-A.png,sS,sS,mask-4.png,mask-3.png,s,1,0.5056798001751304,none,-5,0,0.04492240003310144,0.05175430001690984,0.09603480016812682,0.10126499994657934,0.29656910011544824
RSVPLG03,km,20260226-151720,1.0.2,20251113-095759,778,Practice,T1,1,Automatic,main,2,20260226-151749,local,local,750,H,S,A,E,A-H.png,E-S.png,hH,sS,mask-1.png,mask-1.png,h,1,0.5706817999016494,none,-5,0,0.049151499988511205,0.04917709995061159,0.09918790007941425,0.10101490002125502,0.753232000162825
RSVPLG03,km,20260226-151720,1.0.2,20251113-095759,778,Practice,T1,1,Automatic,main,3,20260226-151754,local,local,300,H,S,E,A,E-H.png,A-S.png,hH,sS,mask-3.png,mask-2.png,s,0,0.49804330011829734,none,-5,0,0.04995280015282333,0.049849099945276976,0.10271090012975037,0.10126699996180832,0.30201850016601384
RSVPLG03,km,20260226-151720,1.0.2,20251113-095759,778,Practice,T1,1,Automatic,main,4,20260226-151758,local,global,300,H,H,E,A,E-H.png,H-A.png,hH,hH,mask-4.png,mask-1.png,h,1,5.013138899812475,none,-5,0,0.05006859987042844,0.0500233001075685,0.09971929993480444,0.10002820007503033,0.3017221998888999
RSVPLG03,km,20260226-151720,1.0.2,20251113-095759,778,Practice,T1,1,Automatic,main,5,20260226-151807,global,global,300,H,S,E,A,H-E.png,S-A.png,hH,sS,mask-2.png,mask-4.png,h,1,0.8710839999839664,none,-5,0,0.052000399911776185,0.05077999993227422,0.09999189991503954,0.10127729992382228,0.30233739991672337
RSVPLG03,km,20260226-151720,1.0.2,20251113-095759,778,Practice,T1,1,Automatic,main,6,20260226-151811,global,local,750,S,S,A,A,S-A.png,A-S.png,sS,sS,mask-3.png,mask-1.png,s,1,0.6040809999685735,none,-5,0,0.05092309997417033,0.04871780006214976,0.10004290007054806,0.09942179988138378,0.7548382000532001
RSVPLG03,km,20260226-151720,1.0.2,20251113-095759,778,Practice,T1,1,Automatic,main,7,20260226-151816,local,global,750,H,S,E,A,E-H.png,S-A.png,hH,sS,mask-3.png,mask-3.png,h,1,1.1922386998776346,none,-5,0,0.04945489997044206,0.05002050008624792,0.10139800002798438,0.10195609997026622,0.752244200091809
RSVPLG03,km,20260226-151720,1.0.2,20251113-095759,778,Practice,T1,1,Automatic,main,8,20260226-151821,global,global,300,S,S,A,A,S-A.png,S-A.png,sS,sS,mask-2.png,mask-4.png,s,1,0.890408799983561,none,-5,0,0.052154900040477514,0.05123199988156557,0.10076740011572838,0.09955539996735752,0.3020745001267642
RSVPLG03,km,20260226-151720,1.0.2,20251113-095759,778,Practice,T1,1,Automatic,main,9,20260226-151825,global,global,750,S,S,A,A,S-A.png,S-A.png,sS,sS,mask-2.png,mask-1.png,s,1,0.48523089988157153,none,-5,0,0.04790499992668629,0.050036200089380145,0.09800789994187653,0.10035969992168248,0.7518023999873549
RSVPLG03,km,20260226-151720,1.0.2,20251113-095759,778,Practice,T1,1,Automatic,main,10,20260226-151830,global,local,750,S,S,E,A,S-E.png,A-S.png,sS,sS,mask-3.png,mask-2.png,s,1,0.4977509998716414,none,-5,0,0.050179399782791734,0.05018800008110702,0.09951989981345832,0.10071639996021986,0.7523131999187171
RSVPLG03,km,20260226-151720,1.0.2,20251113-095759,778,Practice,T1,1,Automatic,main,11,20260226-151835,local,global,750,S,S,A,E,A-S.png,S-E.png,sS,sS,mask-2.png,mask-4.png,s,1,0.7598094001878053,none,-5,0,0.04856459982693195,0.051030199974775314,0.09813389996998012,0.10014989995397627,0.7525883999187499
RSVPLG03,km,20260226-151720,1.0.2,20251113-095759,778,Practice,T1,1,Automatic,main,12,20260226-151839,global,local,300,S,H,E,E,S-E.png,E-H.png,sS,hH,mask-3.png,mask-3.png,s,1,1.3669259001035243,none,-5,0,0.04916709987446666,0.05072649987414479,0.09984519984573126,0.10172589984722435,0.3002836999949068
RSVPLG03,km,20260226-151720,1.0.2,20251113-095759,778,Practice,T1,1,Automatic,main,13,20260226-151844,global,local,300,S,S,A,E,S-A.png,E-S.png,sS,sS,mask-4.png,mask-2.png,s,1,1.056883200071752,none,-5,0,0.050025600008666515,0.05024240002967417,0.10088060004636645,0.09960389998741448,0.3023734998423606
RSVPLG03,km,20260226-151720,1.0.2,20251113-095759,778,Practice,T1,1,Automatic,main,14,20260226-151849,local,local,750,H,S,E,A,E-H.png,A-S.png,hH,sS,mask-1.png,mask-3.png,s,0,0.6281482998747379,none,-5,0,0.04918650002218783,0.0494436000008136,0.09852240001782775,0.0996588000562042,0.7530378000810742
RSVPLG03,km,20260226-151720,1.0.2,20251113-095759,778,Practice,T1,1,Automatic,main,15,20260226-151854,global,global,750,H,S,A,A,H-A.png,S-A.png,hH,sS,mask-3.png,mask-1.png,h,1,0.8633264000527561,none,-5,0,0.04992139991372824,0.05078940000385046,0.10224099992774427,0.10054060001857579,0.7529486001003534
RSVPLG03,km,20260226-151720,1.0.2,20251113-095759,778,Practice,T1,1,Automatic,main,16,20260226-151858,local,local,300,H,H,A,A,A-H.png,A-H.png,hH,hH,mask-4.png,mask-3.png,s,0,0.8753525998909026,none,-5,0,0.047741999849677086,0.051651000045239925,0.09824680001474917,0.10092570004053414,0.2984042000025511
RSVPLG03,km,20260226-151934,1.0.2,20251113-095759,778,Introduction,Both,1,Automatic,main,1,20260226-152021,local,local,750,H,H,A,E,A-H.png,E-H.png,hH,hH,mask-2.png,mask-1.png,h,1,1.2053042999468744,h,1,3.662146900082007,0.10034379991702735,0.09898120001889765,0.1995957000181079,0.2013343998696655,0.7511688000522554
RSVPLG03,km,20260226-151934,1.0.2,20251113-095759,778,Introduction,Both,1,Automatic,main,2,20260226-152030,local,local,750,H,H,E,A,E-H.png,A-H.png,hH,hH,mask-3.png,mask-2.png,h,1,0.748830100055784,h,1,0.4976726002059877,0.10137460008263588,0.09902690001763403,0.20175920007750392,0.19922919990494847,0.7524844000581652
RSVPLG03,km,20260226-151934,1.0.2,20251113-095759,778,Introduction,Both,1,Automatic,main,3,20260226-152035,local,global,750,S,H,E,E,E-S.png,H-E.png,sS,hH,mask-2.png,mask-1.png,s,1,1.1932886999566108,h,1,0.4972171999979764,0.10001940000802279,0.10071779997088015,0.19844159996137023,0.19962550001218915,0.7498912999872118
RSVPLG03,km,20260226-151934,1.0.2,20251113-095759,778,Introduction,Both,1,Automatic,main,4,20260226-152041,global,local,750,S,S,E,A,S-E.png,A-S.png,sS,sS,mask-4.png,mask-3.png,s,1,1.6505795000120997,h,0,0.5138484998606145,0.09999180003069341,0.0984135998878628,0.2005173999350518,0.1997561000753194,0.7518283999525011
RSVPLG03,km,20260226-151934,1.0.2,20251113-095759,778,Introduction,Both,1,Automatic,main,5,20260226-152048,global,local,750,H,H,E,A,H-E.png,A-H.png,hH,hH,mask-4.png,mask-1.png,h,1,2.4875680999830365,h,1,0.3163516998756677,0.10032540000975132,0.10149269993416965,0.20034910016693175,0.20078440010547638,0.7495514000765979
RSVPLG03,km,20260226-151934,1.0.2,20251113-095759,778,Introduction,Both,1,Automatic,main,6,20260226-152055,local,local,750,H,H,A,E,A-H.png,E-H.png,hH,hH,mask-2.png,mask-1.png,h,1,1.7362975999712944,h,1,0.27238580002449453,0.10017469990998507,0.10076800012029707,0.19905779999680817,0.20166940009221435,0.7483613998629153
RSVPLG03,km,20260226-151934,1.0.2,20251113-095759,778,Introduction,Both,1,Automatic,main,7,20260226-152101,global,global,750,S,S,A,E,S-A.png,S-E.png,sS,sS,mask-1.png,mask-4.png,s,1,0.9003306000959128,s,1,0.29024480003863573,0.10148170008324087,0.10130789992399514,0.20020490000024438,0.19972590007819235,0.7521156000439078
RSVPLG03,km,20260226-151934,1.0.2,20251113-095759,778,Introduction,Both,1,Automatic,main,8,20260226-152107,local,local,750,S,H,E,E,E-S.png,E-H.png,sS,hH,mask-1.png,mask-2.png,none,-6,0,none,-6,0,0.10118300002068281,0.09979559993371367,0.20023429999127984,0.19970980007201433,0.7511777000036091
RSVPLG03,km,20260226-152122,1.0.2,20251113-095759,778,Practice,Both,1,Automatic,main,1,20260226-152158,global,global,750,H,S,A,A,H-A.png,S-A.png,hH,sS,mask-2.png,mask-3.png,h,1,1.1193845998495817,s,1,0.07902559987269342,0.047318599885329604,0.04995999997481704,0.09683799999766052,0.09918179991655052,0.7476852999534458
RSVPLG03,km,20260226-152122,1.0.2,20251113-095759,778,Practice,Both,1,Automatic,main,2,20260226-152203,local,global,300,H,S,A,A,A-H.png,S-A.png,hH,sS,mask-3.png,mask-3.png,h,1,1.19082359992899,s,1,0.22565549984574318,0.05156689998693764,0.04951200005598366,0.10168160009197891,0.09846020000986755,0.3010736999567598
RSVPLG03,km,20260226-152122,1.0.2,20251113-095759,778,Practice,Both,1,Automatic,main,3,20260226-152208,global,local,750,S,S,E,A,S-E.png,A-S.png,sS,sS,mask-1.png,mask-2.png,s,1,1.286997599992901,h,0,0.17130040004849434,0.04892410011962056,0.05086139985360205,0.09954790002666414,0.09970450005494058,0.7488892001565546
RSVPLG03,km,20260226-152122,1.0.2,20251113-095759,778,Practice,Both,1,Automatic,main,4,20260226-152214,local,global,750,H,S,A,A,A-H.png,S-A.png,hH,sS,mask-3.png,mask-4.png,h,1,1.1511069000698626,s,1,0.12768339994363487,0.04997910000383854,0.05195360002107918,0.10004809987731278,0.10005770018324256,0.7498821998015046
RSVPLG03,km,20260226-152122,1.0.2,20251113-095759,778,Practice,Both,1,Automatic,main,5,20260226-152219,local,local,750,H,S,A,E,A-H.png,E-S.png,hH,sS,mask-1.png,mask-3.png,h,1,1.0434416998177767,s,1,0.09033089992590249,0.05094200000166893,0.047805000096559525,0.1017915999982506,0.09769770014099777,0.7511712999548763
RSVPLG03,km,20260226-152122,1.0.2,20251113-095759,778,Practice,Both,1,Automatic,main,6,20260226-152225,local,global,750,H,H,E,A,E-H.png,H-A.png,hH,hH,mask-4.png,mask-4.png,s,0,1.103423499967903,h,1,0.07594809983856976,0.051889900118112564,0.04799749981611967,0.0999749000184238,0.09789209999144077,0.7513525001704693
RSVPLG03,km,20260226-152122,1.0.2,20251113-095759,778,Practice,Both,1,Automatic,main,7,20260226-152230,local,local,750,S,S,E,E,E-S.png,E-S.png,sS,sS,mask-4.png,mask-2.png,s,1,1.1242478999774903,s,1,0.14290859992615879,0.05088569992221892,0.050391600001603365,0.10002349992282689,0.10088810021989048,0.7504929997958243
RSVPLG03,km,20260226-152122,1.0.2,20251113-095759,778,Practice,Both,1,Automatic,main,8,20260226-152235,local,local,300,S,H,E,E,E-S.png,E-H.png,sS,hH,mask-2.png,mask-4.png,s,1,1.426776200067252,h,1,0.03319199988618493,0.050536799943074584,0.049264200031757355,0.09964509983547032,0.09968350012786686,0.2992192998062819
RSVPLG03,km,20260226-152122,1.0.2,20251113-095759,778,Practice,Both,1,Automatic,main,9,20260226-152240,global,local,300,H,H,A,E,H-A.png,E-H.png,hH,hH,mask-2.png,mask-1.png,h,1,1.4434082000516355,s,0,0.43438449990935624,0.04994830000214279,0.04969149990938604,0.10136649990454316,0.0995199999306351,0.3014237000606954
RSVPLG03,km,20260226-152122,1.0.2,20251113-095759,778,Practice,Both,1,Automatic,main,10,20260226-152246,global,global,300,H,S,A,E,H-A.png,S-E.png,hH,sS,mask-2.png,mask-4.png,h,1,1.5296535999514163,s,1,0.3506154001224786,0.049711599946022034,0.05084390006959438,0.10009819990955293,0.09981240006163716,0.29986899998039007
RSVPLG03,km,20260226-152122,1.0.2,20251113-095759,778,Practice,Both,1,Automatic,main,11,20260226-152252,local,local,300,S,H,A,E,A-S.png,E-H.png,sS,hH,mask-2.png,mask-3.png,s,1,1.4526519000064582,h,1,1.5811523001175374,0.04948289995081723,0.05048119998537004,0.10053609986789525,0.1007209001109004,0.29942379985004663
RSVPLG03,km,20260226-152122,1.0.2,20251113-095759,778,Practice,Both,1,Automatic,main,12,20260226-152257,global,global,750,S,H,A,A,S-A.png,H-A.png,sS,hH,mask-1.png,mask-4.png,s,1,0.9250930999405682,h,1,0.026507799979299307,0.05026770010590553,0.04820890002883971,0.10108900000341237,0.09919540002010763,0.7506401999853551
RSVPLG03,km,20260226-152122,1.0.2,20251113-095759,778,Practice,Both,1,Automatic,main,13,20260226-152302,global,global,300,H,S,E,A,H-E.png,S-A.png,hH,sS,mask-4.png,mask-2.png,h,1,1.0700366999953985,s,1,0.033290599938482046,0.05021000001579523,0.05024989997036755,0.09977279999293387,0.09965919982641935,0.2988687001634389
RSVPLG03,km,20260226-152122,1.0.2,20251113-095759,778,Practice,Both,1,Automatic,main,14,20260226-152306,local,global,300,S,S,A,A,A-S.png,S-A.png,sS,sS,mask-4.png,mask-3.png,s,1,1.0870404001325369,h,0,1.198922900017351,0.04908709996379912,0.04981469991616905,0.09911569999530911,0.10118699981831014,0.29891290003433824
RSVPLG03,km,20260226-152122,1.0.2,20251113-095759,778,Practice,Both,1,Automatic,main,15,20260226-152311,global,local,750,S,H,A,E,S-A.png,E-H.png,sS,hH,mask-2.png,mask-2.png,s,1,0.9557655998505652,h,1,1.051731799961999,0.049915599869564176,0.049455299973487854,0.09920029994100332,0.10015340009704232,0.7496819999068975
RSVPLG03,km,20260226-152122,1.0.2,20251113-095759,778,Practice,Both,1,Automatic,main,16,20260226-152316,global,local,300,S,H,A,A,S-A.png,A-H.png,sS,hH,mask-3.png,mask-2.png,s,1,0.9650311998557299,h,1,1.02897290000692,0.049973199842497706,0.050147000001743436,0.09955150005407631,0.1002418000716716,0.2996369998436421
RSVPLG03,km,20260226-152456,1.0.2,20251113-095759,778,Experiment,Both,1,Automatic,warmup,1,20260226-152524,global,global,300,S,S,A,A,S-A.png,S-A.png,sS,sS,mask-2.png,mask-1.png,s,1,2.2344889000523835,h,0,0.032544400077313185,0.04986060014925897,0.04982009995728731,0.0989121999591589,0.10117299994453788,0.29886170011013746
RSVPLG03,km,20260226-152456,1.0.2,20251113-095759,778,Experiment,Both,1,Automatic,warmup,2,20260226-152529,global,global,750,H,S,A,E,H-A.png,S-E.png,hH,sS,mask-3.png,mask-4.png,h,1,1.3877025998663157,s,1,1.531919099856168,0.05064869998022914,0.051018300000578165,0.10090649989433587,0.10007699998095632,0.7523518998641521
RSVPLG03,km,20260226-152456,1.0.2,20251113-095759,778,Experiment,Both,1,Automatic,warmup,3,20260226-152535,local,global,300,S,S,E,A,E-S.png,S-A.png,sS,sS,mask-2.png,mask-2.png,s,1,1.3341510000173002,h,0,1.3982182000763714,0.050030400045216084,0.050204799976199865,0.09952940000221133,0.10025949985720217,0.2997046001255512
RSVPLG03,km,20260226-152456,1.0.2,20251113-095759,778,Experiment,Both,1,Automatic,warmup,4,20260226-152540,local,global,750,S,H,E,E,E-S.png,H-E.png,sS,hH,mask-2.png,mask-3.png,s,1,1.294656699988991,h,1,0.0007627999875694513,0.04815919999964535,0.05122069991193712,0.09875590004958212,0.10161329992115498,0.7493647001683712
RSVPLG03,km,20260226-152456,1.0.2,20251113-095759,778,Experiment,Both,1,Automatic,main,5,20260226-152545,local,local,750,S,S,A,E,A-S.png,E-S.png,sS,sS,mask-3.png,mask-3.png,s,1,1.362276199972257,s,1,0.07969140005297959,0.04939469997771084,0.05032390006817877,0.09944240003824234,0.10095190000720322,0.7505480998661369
RSVPLG03,km,20260226-152456,1.0.2,20251113-095759,778,Experiment,Both,1,Automatic,main,6,20260226-152551,local,global,300,S,S,A,E,A-S.png,S-E.png,sS,sS,mask-4.png,mask-1.png,s,1,1.4756442001089454,h,0,0.031318599823862314,0.051074699964374304,0.050227400148287416,0.10016770008951426,0.10140429995954037,0.30053919996134937
RSVPLG03,km,20260226-152456,1.0.2,20251113-095759,778,Experiment,Both,1,Automatic,main,7,20260226-152556,local,global,750,S,H,A,A,A-S.png,H-A.png,sS,hH,mask-1.png,mask-3.png,s,1,1.1180751000065356,h,1,0.01331479987129569,0.050070299999788404,0.05109169986099005,0.09934109984897077,0.10132589982822537,0.7509592999704182
RSVPLG03,km,20260226-152456,1.0.2,20251113-095759,778,Experiment,Both,1,Automatic,main,8,20260226-152601,local,local,750,S,H,A,E,A-S.png,E-H.png,sS,hH,mask-3.png,mask-2.png,s,1,1.5653284001164138,h,1,1.6450883001089096,0.05017610010690987,0.05050479993224144,0.10092210001312196,0.10010719997808337,0.7530458001419902
RSVPLG03,km,20260226-152456,1.0.2,20251113-095759,778,Experiment,Both,1,Automatic,main,9,20260226-152607,global,global,750,H,H,E,E,H-E.png,H-E.png,hH,hH,mask-2.png,mask-3.png,h,1,1.4109225999563932,h,1,0.07783910003490746,0.04910210007801652,0.04903379990719259,0.10147960018366575,0.10094629996456206,0.7519891001284122
RSVPLG03,km,20260226-152456,1.0.2,20251113-095759,778,Experiment,Both,1,Automatic,main,10,20260226-152612,global,global,750,S,H,A,A,S-A.png,H-A.png,sS,hH,mask-2.png,mask-2.png,s,1,1.2948199999518692,h,1,1.3910121000371873,0.04920849995687604,0.04954589996486902,0.1002712999470532,0.09936099988408387,0.7515380000695586
RSVPLG03,km,20260226-152456,1.0.2,20251113-095759,778,Experiment,Both,1,Automatic,main,11,20260226-152618,global,local,750,S,S,A,A,S-A.png,A-S.png,sS,sS,mask-3.png,mask-1.png,s,1,1.0469245000276715,s,1,0.06582870008423924,0.05029290006496012,0.05027209990657866,0.09937259997241199,0.1005867999047041,0.7508921001572162
RSVPLG03,km,20260226-152456,1.0.2,20251113-095759,778,Experiment,Both,1,Automatic,main,12,20260226-152623,global,local,300,H,H,A,E,H-A.png,E-H.png,hH,hH,mask-1.png,mask-2.png,h,1,1.4762256999965757,h,1,1.4860403998754919,0.05037190020084381,0.05052399984560907,0.10217790002934635,0.09948289999738336,0.3028970002196729
RSVPLG03,km,20260226-152456,1.0.2,20251113-095759,778,Experiment,Both,1,Automatic,main,13,20260226-152630,global,local,300,S,H,A,E,S-A.png,E-H.png,sS,hH,mask-4.png,mask-4.png,s,1,2.141439199913293,s,0,0.07700349995866418,0.049613700015470386,0.0517985001206398,0.1004190999083221,0.10164410015568137,0.2996594998985529
RSVPLG03,km,20260226-152456,1.0.2,20251113-095759,778,Experiment,Both,1,Automatic,main,14,20260226-152635,global,global,300,S,H,E,A,S-E.png,H-A.png,sS,hH,mask-3.png,mask-2.png,s,1,1.273651499999687,h,1,1.3697054998483509,0.04998680017888546,0.04995050001889467,0.1013486001174897,0.10002329992130399,0.30082900007255375
RSVPLG03,km,20260226-152456,1.0.2,20251113-095759,778,Experiment,Both,1,Automatic,main,15,20260226-152640,global,local,300,H,S,A,A,H-A.png,A-S.png,hH,sS,mask-4.png,mask-3.png,h,1,1.334054599981755,s,1,0.7330553999636322,0.0504443000536412,0.04876359994523227,0.1003511999733746,0.0997840000782162,0.30178890004754066
RSVPLG03,km,20260226-152456,1.0.2,20251113-095759,778,Experiment,Both,1,Automatic,main,16,20260226-152646,global,global,750,S,S,E,E,S-E.png,S-E.png,sS,sS,mask-4.png,mask-2.png,s,1,1.3511158998589963,s,1,0.2712222000118345,0.04994760011322796,0.05083710001781583,0.10028270003385842,0.09971249988302588,0.7524673000443727
RSVPLG03,km,20260226-152456,1.0.2,20251113-095759,778,Experiment,Both,1,Automatic,main,17,20260226-152652,local,local,300,H,H,A,A,A-H.png,A-H.png,hH,hH,mask-1.png,mask-3.png,h,1,1.8604292999953032,s,0,0.016757099889218807,0.04913610010407865,0.04907619999721646,0.0997397000901401,0.09948410000652075,0.30122210015542805
RSVPLG03,km,20260226-152456,1.0.2,20251113-095759,778,Experiment,Both,1,Automatic,main,18,20260226-152658,global,global,750,S,S,E,A,S-E.png,S-A.png,sS,sS,mask-3.png,mask-1.png,s,1,1.3155547000933439,s,1,0.16092130006290972,0.05058049992658198,0.050996600184589624,0.09887350001372397,0.10101000010035932,0.7509502999018878
RSVPLG03,km,20260226-152456,1.0.2,20251113-095759,778,Experiment,Both,1,Automatic,main,19,20260226-152703,local,global,750,H,S,E,E,E-H.png,S-E.png,hH,sS,mask-4.png,mask-3.png,h,1,2.60142740001902,s,1,0.032511900179088116,0.04987840005196631,0.04867589985951781,0.0995348000433296,0.09844319988042116,0.7533118000719696
RSVPLG03,km,20260226-152456,1.0.2,20251113-095759,778,Experiment,Both,1,Automatic,main,20,20260226-152710,local,global,300,H,S,E,E,E-H.png,S-E.png,hH,sS,mask-1.png,mask-3.png,h,1,1.2290851001162082,h,0,0.07333189994096756,0.04997839988209307,0.05096310004591942,0.10059149982407689,0.09969859989359975,0.30029039992950857
RSVPLG03,km,20260226-152456,1.0.2,20251113-095759,778,Experiment,Both,1,Automatic,main,21,20260226-152715,global,global,300,H,H,E,A,H-E.png,H-A.png,hH,hH,mask-2.png,mask-1.png,h,1,1.616005799965933,h,1,0.2728234000969678,0.0516357000451535,0.04916610009968281,0.1017584998626262,0.09922070009633899,0.30238289991393685
RSVPLG03,km,20260226-152456,1.0.2,20251113-095759,778,Experiment,Both,1,Automatic,main,22,20260226-152720,local,local,750,S,H,A,A,A-S.png,A-H.png,sS,hH,mask-1.png,mask-3.png,s,1,1.4777365999761969,h,1,0.04651929996907711,0.04975860007107258,0.05049119982868433,0.10166670009493828,0.1000798000022769,0.7520741000771523
RSVPLG03,km,20260226-152456,1.0.2,20251113-095759,778,Experiment,Both,1,Automatic,main,23,20260226-152726,local,global,750,S,S,E,A,E-S.png,S-A.png,sS,sS,mask-3.png,mask-2.png,s,1,2.3519856999628246,s,1,0.12429429986514151,0.0494681999552995,0.051181199960410595,0.10012919991277158,0.10151349985972047,0.750688900006935
RSVPLG03,km,20260226-152456,1.0.2,20251113-095759,778,Experiment,Both,1,Automatic,main,24,20260226-152733,global,local,300,H,H,A,E,H-A.png,E-H.png,hH,hH,mask-3.png,mask-3.png,h,1,1.5756825001444668,s,0,0.2408926000352949,0.049807599978521466,0.050233300076797605,0.10110510000959039,0.09996600006707013,0.3022229000926018
RSVPLG03,km,20260226-152456,1.0.2,20251113-095759,778,Experiment,Both,1,Automatic,main,25,20260226-152738,global,local,750,H,H,A,E,H-A.png,E-H.png,hH,hH,mask-4.png,mask-2.png,h,1,1.0297552000265568,h,1,0.1275287999305874,0.050599300069734454,0.05087079992517829,0.10028970008715987,0.09961659996770322,0.7519871001131833
RSVPLG03,km,20260226-152456,1.0.2,20251113-095759,778,Experiment,Both,1,Automatic,main,26,20260226-152749,local,global,300,S,S,A,E,A-S.png,S-E.png,sS,sS,mask-2.png,mask-2.png,s,1,1.7032641998957843,s,1,0.11309570004232228,0.05089019984006882,0.04959650011733174,0.1009589999448508,0.10208930005319417,0.3015015998389572
RSVPLG03,km,20260226-152456,1.0.2,20251113-095759,778,Experiment,Both,1,Automatic,main,27,20260226-152754,local,local,750,S,S,A,E,A-S.png,E-S.png,sS,sS,mask-3.png,mask-1.png,s,1,0.7461749000940472,s,1,0.08187890006229281,0.0499853000510484,0.050580000039190054,0.09957229997962713,0.10105840000323951,0.7504032999277115
RSVPLG03,km,20260226-152456,1.0.2,20251113-095759,778,Experiment,Both,1,Automatic,main,28,20260226-152759,local,global,300,S,S,A,A,A-S.png,S-A.png,sS,sS,mask-2.png,mask-1.png,s,1,1.3893016001675278,h,0,0.018250999972224236,0.04956559999845922,0.04942729999311268,0.10039840009994805,0.09994759992696345,0.30099080014042556
RSVPLG03,km,20260226-152456,1.0.2,20251113-095759,778,Experiment,Both,1,Automatic,main,29,20260226-152804,global,global,300,H,H,A,A,H-A.png,H-A.png,hH,hH,mask-4.png,mask-3.png,h,1,1.5907850998919457,h,1,0.1292110001668334,0.050793200032785535,0.049881599843502045,0.1022910000756383,0.10085719986818731,0.30083260009996593
RSVPLG03,km,20260226-152456,1.0.2,20251113-095759,778,Experiment,Both,1,Automatic,main,30,20260226-152809,global,local,750,S,S,E,E,S-E.png,E-S.png,sS,sS,mask-2.png,mask-3.png,s,1,1.1555951999034733,s,1,0.0984279999975115,0.049118899973109365,0.05071860016323626,0.09944460005499423,0.09903570008464158,0.7523215999826789
RSVPLG03,km,20260226-152456,1.0.2,20251113-095759,778,Experiment,Both,1,Automatic,main,31,20260226-152815,local,local,300,S,S,E,E,E-S.png,E-S.png,sS,sS,mask-1.png,mask-4.png,s,1,1.4932454999070615,s,1,0.09565460006706417,0.049458299996331334,0.05106540000997484,0.09979699994437397,0.10195279982872307,0.29955610004253685
RSVPLG03,km,20260226-152456,1.0.2,20251113-095759,778,Experiment,Both,1,Automatic,main,32,20260226-152820,global,local,750,S,H,A,A,S-A.png,A-H.png,sS,hH,mask-2.png,mask-1.png,s,1,1.290616000071168,h,1,1.4190386000555009,0.05041980021633208,0.04967030021362007,0.10035550012253225,0.09905840014107525,0.7527976999990642
RSVPLG03,km,20260226-152456,1.0.2,20251113-095759,778,Experiment,Both,1,Automatic,main,33,20260226-152826,global,local,300,H,H,A,A,H-A.png,A-H.png,hH,hH,mask-4.png,mask-3.png,h,1,1.2798313999082893,h,1,0.059325299924239516,0.049879000056535006,0.04870350006967783,0.10081620002165437,0.09884260012768209,0.3017573000397533
RSVPLG03,km,20260226-152456,1.0.2,20251113-095759,778,Experiment,Both,1,Automatic,main,34,20260226-152831,global,global,300,H,H,E,E,H-E.png,H-E.png,hH,hH,mask-2.png,mask-2.png,h,1,1.282610199879855,h,1,0.07332010008394718,0.050349499797448516,0.050560199888423085,0.1009353999979794,0.09974340000189841,0.30062599992379546
RSVPLG03,km,20260226-152456,1.0.2,20251113-095759,778,Experiment,Both,1,Automatic,main,35,20260226-152836,local,local,300,H,H,E,E,E-H.png,E-H.png,hH,hH,mask-1.png,mask-4.png,s,0,1.4061629001516849,h,1,1.518241300014779,0.050098400097340345,0.049347300082445145,0.1005538001190871,0.0990709001198411,0.30231599998660386
RSVPLG03,km,20260226-152456,1.0.2,20251113-095759,778,Experiment,Both,1,Automatic,main,36,20260226-152841,local,global,750,H,S,E,A,E-H.png,S-A.png,hH,sS,mask-1.png,mask-1.png,h,1,1.4773025999311358,h,0,0.12593189999461174,0.049436100060120225,0.05053859995678067,0.09856690000742674,0.09871519985608757,0.7509871001821011
RSVPLG03,km,20260226-152456,1.0.2,20251113-095759,778,Experiment,Both,1,Automatic,main,37,20260226-152846,global,local,750,S,S,E,A,S-E.png,A-S.png,sS,sS,mask-1.png,mask-3.png,s,1,1.591814500046894,s,1,0.08939530001953244,0.04887680010870099,0.04939870000816882,0.10006630001589656,0.09989569988101721,0.7511486001312733
RSVPLG03,km,20260226-152456,1.0.2,20251113-095759,778,Experiment,Both,1,Automatic,main,38,20260226-152852,local,local,300,H,S,E,A,E-H.png,A-S.png,hH,sS,mask-1.png,mask-4.png,h,1,1.2629558998160064,s,1,0.06493570003658533,0.05093790008686483,0.04834489990025759,0.10089110000990331,0.09951890003867447,0.30167990014888346
RSVPLG03,km,20260226-152456,1.0.2,20251113-095759,778,Experiment,Both,1,Automatic,main,39,20260226-152857,global,global,750,S,H,E,E,S-E.png,H-E.png,sS,hH,mask-3.png,mask-4.png,s,1,1.1685164000373334,h,1,0.06323559978045523,0.05198189988732338,0.05053240014240146,0.10080819996073842,0.09888810012489557,0.7524186999071389
RSVPLG03,km,20260226-152456,1.0.2,20251113-095759,778,Experiment,Both,1,Automatic,main,40,20260226-152902,local,local,750,H,S,E,A,E-H.png,A-S.png,hH,sS,mask-3.png,mask-2.png,h,1,1.1279796999879181,s,1,0.05095959990285337,0.05064799985848367,0.04888410004787147,0.10083159990608692,0.09992619999684393,0.7525333999656141
RSVPLG03,km,20260226-152456,1.0.2,20251113-095759,778,Experiment,Both,1,Automatic,main,41,20260226-152908,global,global,300,S,S,A,E,S-A.png,S-E.png,sS,sS,mask-4.png,mask-3.png,s,1,1.1038826000876725,s,1,0.09720729989930987,0.0508884999435395,0.050792699912562966,0.10111859999597073,0.0998927999753505,0.29982950002886355
RSVPLG03,km,20260226-152456,1.0.2,20251113-095759,778,Experiment,Both,1,Automatic,main,42,20260226-152913,global,global,300,H,S,A,A,H-A.png,S-A.png,hH,sS,mask-2.png,mask-1.png,h,1,1.0985958999954164,s,1,0.06447290000505745,0.05015639984048903,0.0500280000269413,0.10132429981604218,0.10005809995345771,0.3019422998186201
RSVPLG03,km,20260226-152456,1.0.2,20251113-095759,778,Experiment,Both,1,Automatic,main,43,20260226-152917,global,global,300,S,S,A,E,S-A.png,S-E.png,sS,sS,mask-2.png,mask-4.png,s,1,0.8964731998275965,s,1,0.05888939998112619,0.049676100024953485,0.05084930011071265,0.09947789995931089,0.10036989999935031,0.29922619997523725
RSVPLG03,km,20260226-152456,1.0.2,20251113-095759,778,Experiment,Both,1,Automatic,main,44,20260226-152922,global,global,300,H,H,A,A,H-A.png,H-A.png,hH,hH,mask-2.png,mask-4.png,h,1,1.1728221999946982,h,1,0.06587389996275306,0.0511765000410378,0.050961799919605255,0.10037779994308949,0.10030519985593855,0.30055560008622706
RSVPLG03,km,20260226-152456,1.0.2,20251113-095759,778,Experiment,Both,1,Automatic,main,45,20260226-152927,local,local,300,S,S,A,A,A-S.png,A-S.png,sS,sS,mask-1.png,mask-2.png,s,1,0.8690446999389678,s,1,0.06496970006264746,0.04998299991711974,0.04975549993105233,0.10045579983852804,0.1003568999003619,0.30052189994603395
RSVPLG03,km,20260226-152456,1.0.2,20251113-095759,778,Experiment,Both,1,Automatic,main,46,20260226-152931,local,global,300,S,S,E,A,E-S.png,S-A.png,sS,sS,mask-4.png,mask-2.png,s,1,0.9789738999679685,h,0,0.016914899926632643,0.05127850011922419,0.05120590003207326,0.10016000014729798,0.10044639999978244,0.2997395000420511
RSVPLG03,km,20260226-152456,1.0.2,20251113-095759,778,Experiment,Both,1,Automatic,main,47,20260226-152936,global,local,300,S,H,E,A,S-E.png,A-H.png,sS,hH,mask-4.png,mask-1.png,s,1,1.359451200114563,h,1,1.5034014000557363,0.050027200020849705,0.05017769988626242,0.10050379997119308,0.10118019999936223,0.30039110011421144
RSVPLG03,km,20260226-152456,1.0.2,20251113-095759,778,Experiment,Both,1,Automatic,main,48,20260226-152941,local,local,300,S,S,E,E,E-S.png,E-S.png,sS,sS,mask-3.png,mask-2.png,s,1,1.0676460000686347,s,1,0.14498189999721944,0.048409099923446774,0.049496399937197566,0.09775090008042753,0.09981800010427833,0.2978980999905616
RSVPLG03,km,20260226-152456,1.0.2,20251113-095759,778,Experiment,Both,1,Automatic,main,49,20260226-152946,local,global,750,S,S,A,A,A-S.png,S-A.png,sS,sS,mask-3.png,mask-3.png,s,1,0.946275900118053,h,0,0.06229699985124171,0.04989170003682375,0.048955499893054366,0.09916700003668666,0.09945550002157688,0.750434200046584
RSVPLG03,km,20260226-152456,1.0.2,20251113-095759,778,Experiment,Both,1,Automatic,main,50,20260226-152951,global,local,750,S,H,E,A,S-E.png,A-H.png,sS,hH,mask-2.png,mask-3.png,s,1,0.9837778999935836,h,1,0.06436519999988377,0.05075989989563823,0.051031299866735935,0.09984919987618923,0.10021699988283217,0.7512737000361085
RSVPLG03,km,20260226-152456,1.0.2,20251113-095759,778,Experiment,Both,1,Automatic,main,51,20260226-153000,local,global,300,H,S,A,E,A-H.png,S-E.png,hH,sS,mask-1.png,mask-1.png,h,1,1.086424000095576,s,1,1.2146173000801355,0.049597700126469135,0.05082189990207553,0.09901540004648268,0.10100489994511008,0.2991083001252264
RSVPLG03,km,20260226-152456,1.0.2,20251113-095759,778,Experiment,Both,1,Automatic,main,52,20260226-153005,local,local,300,H,S,A,E,A-H.png,E-S.png,hH,sS,mask-2.png,mask-1.png,h,1,0.7551210999954492,s,1,0.01481770002283156,0.05023270007222891,0.04974310006946325,0.10007929988205433,0.09994340012781322,0.2996433998923749
RSVPLG03,km,20260226-152456,1.0.2,20251113-095759,778,Experiment,Both,1,Automatic,main,53,20260226-153009,global,local,300,S,S,A,A,S-A.png,A-S.png,sS,sS,mask-3.png,mask-1.png,s,1,1.2964180998969823,h,0,1.3924626999069005,0.0509189001750201,0.05110669997520745,0.09939190000295639,0.10009670001454651,0.2998444000259042
RSVPLG03,km,20260226-152456,1.0.2,20251113-095759,778,Experiment,Both,1,Automatic,main,54,20260226-153014,local,local,300,H,H,A,A,A-H.png,A-H.png,hH,hH,mask-3.png,mask-4.png,h,1,1.0457822000607848,h,1,0.06614449992775917,0.04923250013962388,0.049802400171756744,0.09954160009510815,0.10041250009089708,0.2997369000222534
RSVPLG03,km,20260226-152456,1.0.2,20251113-095759,778,Experiment,Both,1,Automatic,main,55,20260226-153019,global,local,750,H,S,A,E,H-A.png,E-S.png,hH,sS,mask-4.png,mask-4.png,h,1,0.8818745000753552,s,1,1.1732658999972045,0.05062879994511604,0.049223999958485365,0.10036349995061755,0.09877480007708073,0.7527405000291765
RSVPLG03,km,20260226-152456,1.0.2,20251113-095759,778,Experiment,Both,1,Automatic,main,56,20260226-153025,global,local,300,H,H,A,E,H-A.png,E-H.png,hH,hH,mask-2.png,mask-3.png,h,1,1.1670925000216812,h,1,0.2865347999613732,0.049665699945762753,0.04938129987567663,0.10089309979230165,0.0997714998666197,0.3014928000047803
RSVPLG03,km,20260226-152456,1.0.2,20251113-095759,778,Experiment,Both,1,Automatic,main,57,20260226-153031,local,global,750,S,H,E,E,E-S.png,H-E.png,sS,hH,mask-2.png,mask-4.png,s,1,1.5918634999543428,h,1,0.011123600183054805,0.049110000021755695,0.050176599994301796,0.09907140000723302,0.10098890005610883,0.7508249999955297
RSVPLG03,km,20260226-152456,1.0.2,20251113-095759,778,Experiment,Both,1,Automatic,main,58,20260226-153036,local,global,750,S,H,E,A,E-S.png,H-A.png,sS,hH,mask-4.png,mask-3.png,s,1,1.4761898000724614,h,1,0.3847267001401633,0.04939459986053407,0.05053669982589781,0.09889399982057512,0.10068729985505342,0.7499347999691963
RSVPLG03,km,20260226-152456,1.0.2,20251113-095759,778,Experiment,Both,1,Automatic,main,59,20260226-153042,local,local,750,H,H,A,A,A-H.png,A-H.png,hH,hH,mask-4.png,mask-3.png,h,1,1.1414556000381708,h,1,0.07470029988326132,0.050156099954620004,0.049826900009065866,0.10108949989080429,0.10071779997088015,0.7526575000956655
RSVPLG03,km,20260226-152456,1.0.2,20251113-095759,778,Experiment,Both,1,Automatic,main,60,20260226-153048,global,global,300,H,S,A,E,H-A.png,S-E.png,hH,sS,mask-2.png,mask-1.png,h,1,0.97724480018951,s,1,0.016105599934235215,0.05020509986206889,0.048960600048303604,0.10058699990622699,0.09919410012662411,0.3013243998866528
RSVPLG03,km,20260226-152456,1.0.2,20251113-095759,778,Experiment,Both,1,Automatic,main,61,20260226-153052,local,local,750,S,S,E,E,E-S.png,E-S.png,sS,sS,mask-1.png,mask-4.png,s,1,0.8601808999665082,s,1,0.12753359996713698,0.05308729992248118,0.04971519997343421,0.10256329993717372,0.09874950000084937,0.7523696999996901
RSVPLG03,km,20260226-152456,1.0.2,20251113-095759,778,Experiment,Both,1,Automatic,main,62,20260226-153057,local,local,300,S,S,E,E,E-S.png,E-S.png,sS,sS,mask-3.png,mask-1.png,s,1,0.4224644999485463,s,1,0.09880149993114173,0.049699199851602316,0.05120239988900721,0.10095499991439283,0.10037919995374978,0.3012838999275118
RSVPLG03,km,20260226-152456,1.0.2,20251113-095759,778,Experiment,Both,1,Automatic,main,63,20260226-153102,global,local,750,H,S,A,E,H-A.png,E-S.png,hH,sS,mask-4.png,mask-4.png,h,1,1.0356143999379128,s,1,-0.00032890005968511105,0.04994339984841645,0.050115999998524785,0.1014807999599725,0.09870909992605448,0.7533744999673218
RSVPLG03,km,20260226-152456,1.0.2,20251113-095759,778,Experiment,Both,1,Automatic,main,64,20260226-153107,local,local,750,H,H,E,E,E-H.png,E-H.png,hH,hH,mask-2.png,mask-2.png,s,0,0.43789669987745583,s,0,0.08058639988303185,0.049526399932801723,0.05096399993635714,0.09832959994673729,0.09999180003069341,0.7504016999155283
RSVPLG03,km,20260226-152456,1.0.2,20251113-095759,778,Experiment,Both,1,Automatic,main,65,20260226-153111,local,local,750,H,H,E,A,E-H.png,A-H.png,hH,hH,mask-3.png,mask-1.png,h,1,0.6932838999200612,s,0,0.4155120002105832,0.049121399875730276,0.049261000007390976,0.09868779988028109,0.09954500012099743,0.7513873998541385
RSVPLG03,km,20260226-152456,1.0.2,20251113-095759,778,Experiment,Both,1,Automatic,main,66,20260226-153117,local,local,750,S,S,E,E,E-S.png,E-S.png,sS,sS,mask-2.png,mask-1.png,s,1,0.8483215000014752,s,1,0.08035170007497072,0.05138149997219443,0.04902060003951192,0.10276219993829727,0.1000365000218153,0.7534053998533636
RSVPLG03,km,20260226-152456,1.0.2,20251113-095759,778,Experiment,Both,1,Automatic,main,67,20260226-153122,local,local,300,H,S,A,E,A-H.png,E-S.png,hH,sS,mask-1.png,mask-2.png,h,1,0.5866477999370545,s,1,0.008985399967059493,0.05102930008433759,0.049205300165340304,0.10167989996261895,0.10010670009069145,0.30284249992109835
RSVPLG03,km,20260226-152456,1.0.2,20251113-095759,778,Experiment,Both,1,Automatic,main,68,20260226-153126,local,local,300,H,S,A,A,A-H.png,A-S.png,hH,sS,mask-1.png,mask-1.png,h,1,0.6751015998888761,s,1,0.7870730999857187,0.05094649991951883,0.049782600020989776,0.10015439987182617,0.10048280004411936,0.30127709987573326
RSVPLG03,km,20260226-152456,1.0.2,20251113-095759,778,Experiment,Both,1,Automatic,main,69,20260226-153130,local,local,750,S,S,A,E,A-S.png,E-S.png,sS,sS,mask-3.png,mask-2.png,s,1,0.9003672001417726,s,1,0.09519949997775257,0.049880800070241094,0.04803090007044375,0.09996070014312863,0.09824200021103024,0.7532154999207705
RSVPLG03,km,20260226-152456,1.0.2,20251113-095759,778,Experiment,Both,1,Automatic,main,70,20260226-153136,local,global,300,S,H,E,A,E-S.png,H-A.png,sS,hH,mask-1.png,mask-3.png,s,1,0.44847590010613203,h,1,0.5603970000520349,0.05217749997973442,0.05015469994395971,0.10245230002328753,0.09994270000606775,0.30132850003428757
RSVPLG03,km,20260226-152456,1.0.2,20251113-095759,778,Experiment,Both,1,Automatic,main,71,20260226-153140,local,global,750,S,H,E,A,E-S.png,H-A.png,sS,hH,mask-3.png,mask-4.png,s,1,0.5843795000109822,h,1,0.7125233002007008,0.04994719987735152,0.049406199948862195,0.09999489993788302,0.09984879987314343,0.753707499941811
RSVPLG03,km,20260226-152456,1.0.2,20251113-095759,778,Experiment,Both,1,Automatic,main,72,20260226-153144,global,local,750,H,H,A,A,H-A.png,A-H.png,hH,hH,mask-2.png,mask-1.png,h,1,1.0461430000141263,h,1,0.0814491999335587,0.050021300092339516,0.0502467998303473,0.10178539995104074,0.10038549988530576,0.7525286001618952
RSVPLG03,km,20260226-152456,1.0.2,20251113-095759,778,Experiment,Both,1,Automatic,main,73,20260226-153150,global,global,750,S,S,E,A,S-E.png,S-A.png,sS,sS,mask-2.png,mask-3.png,s,1,0.41641220008023083,s,1,0.05764769995585084,0.05065589980222285,0.049874299904331565,0.09938299981877208,0.10080929985269904,0.7507140999659896
RSVPLG03,km,20260226-152456,1.0.2,20251113-095759,778,Experiment,Both,1,Automatic,main,74,20260226-153154,global,global,750,S,H,A,A,S-A.png,H-A.png,sS,hH,mask-3.png,mask-2.png,s,1,0.4841863999608904,h,1,0.5962487000506371,0.048534199828282,0.04813560005277395,0.09920990001410246,0.09795070020481944,0.7513952997978777
RSVPLG03,km,20260226-152456,1.0.2,20251113-095759,778,Experiment,Both,1,Automatic,main,75,20260226-153159,local,global,750,S,S,A,E,A-S.png,S-E.png,sS,sS,mask-1.png,mask-3.png,s,1,0.7170131001621485,h,0,0.845236600143835,0.04982009995728731,0.04920669994316995,0.10198800009675324,0.10032010008580983,0.7525929999537766
RSVPLG03,km,20260226-152456,1.0.2,20251113-095759,778,Experiment,Both,1,Automatic,main,76,20260226-153210,global,global,750,H,S,A,E,H-A.png,S-E.png,hH,sS,mask-2.png,mask-3.png,h,1,1.2717255000025034,s,1,0.016093899961560965,0.05155199998989701,0.050108900060877204,0.09992439998313785,0.09997640014626086,0.7521152999252081
RSVPLG03,km,20260226-152456,1.0.2,20251113-095759,778,Experiment,Both,1,Automatic,main,77,20260226-153215,local,global,300,S,H,E,E,E-S.png,H-E.png,sS,hH,mask-4.png,mask-2.png,s,1,1.2366244001314044,s,0,0.09845080017112195,0.048865600023418665,0.05168580007739365,0.09995490009896457,0.10134990001097322,0.29914509993977845
RSVPLG03,km,20260226-152456,1.0.2,20251113-095759,778,Experiment,Both,1,Automatic,main,78,20260226-153220,local,global,750,H,H,E,A,E-H.png,H-A.png,hH,hH,mask-3.png,mask-1.png,h,1,1.1705699998419732,s,0,0.016148099908605218,0.049790300196036696,0.050236600218340755,0.10266580013558269,0.09980540000833571,0.753363800002262
RSVPLG03,km,20260226-152456,1.0.2,20251113-095759,778,Experiment,Both,1,Automatic,main,79,20260226-153226,global,global,300,S,S,A,A,S-A.png,S-A.png,sS,sS,mask-1.png,mask-1.png,s,1,0.5273500999901444,s,1,0.11152640008367598,0.04890459985472262,0.05133459996432066,0.09983840002678335,0.10100689996033907,0.3003410999663174
RSVPLG03,km,20260226-152456,1.0.2,20251113-095759,778,Experiment,Both,1,Automatic,main,80,20260226-153230,global,local,300,H,S,E,E,H-E.png,E-S.png,hH,sS,mask-4.png,mask-2.png,h,1,0.5116538000293076,s,1,0.033038900000974536,0.04968450008891523,0.05091459979303181,0.09981880011036992,0.10112929996103048,0.300026300130412
RSVPLG03,km,20260226-152456,1.0.2,20251113-095759,778,Experiment,Both,1,Automatic,main,81,20260226-153234,global,local,750,H,H,A,E,H-A.png,E-H.png,hH,hH,mask-3.png,mask-1.png,h,1,1.3373642000369728,s,0,0.05770779983140528,0.04916599998250604,0.05014060018584132,0.0988014000467956,0.10145970014855266,0.7504161999095231
RSVPLG03,km,20260226-152456,1.0.2,20251113-095759,778,Experiment,Both,1,Automatic,main,82,20260226-153240,local,local,750,S,S,E,A,E-S.png,A-S.png,sS,sS,mask-1.png,mask-3.png,s,1,0.7028502998873591,s,1,0.09002190013416111,0.050320199923589826,0.050003499956801534,0.09973579994402826,0.1002505999058485,0.7505377000197768
RSVPLG03,km,20260226-152456,1.0.2,20251113-095759,778,Experiment,Both,1,Automatic,main,83,20260226-153245,global,global,750,H,H,A,A,H-A.png,H-A.png,hH,hH,mask-4.png,mask-1.png,h,1,0.8553460999391973,h,1,0.10530719999223948,0.050339699955657125,0.05200619995594025,0.0992234000004828,0.1009128000587225,0.7496418000664562
RSVPLG03,km,20260226-152456,1.0.2,20251113-095759,778,Experiment,Both,1,Automatic,main,84,20260226-153250,global,local,300,S,S,E,A,S-E.png,A-S.png,sS,sS,mask-2.png,mask-1.png,s,1,1.4897797999437898,h,0,1.61720130010508,0.04950999980792403,0.05132259987294674,0.09925649990327656,0.10171879990957677,0.29839459992945194
RSVPLG03,km,20260226-152456,1.0.2,20251113-095759,778,Experiment,Both,1,Automatic,main,85,20260226-153255,global,global,300,H,H,A,A,H-A.png,H-A.png,hH,hH,mask-2.png,mask-4.png,s,0,0.5525229000486434,s,0,0.07903750007972121,0.0488136000931263,0.049925100058317184,0.09946090006269515,0.0997990001924336,0.3003010998945683
RSVPLG03,km,20260226-152456,1.0.2,20251113-095759,778,Experiment,Both,1,Automatic,main,86,20260226-153259,local,global,300,H,H,E,E,E-H.png,H-E.png,hH,hH,mask-2.png,mask-2.png,h,1,0.8792520000133663,s,0,0.09536290005780756,0.049114099936559796,0.05003529996611178,0.0999127000104636,0.0992890999186784,0.30024230014532804
RSVPLG03,km,20260226-152456,1.0.2,20251113-095759,778,Experiment,Both,1,Automatic,main,87,20260226-153304,local,global,750,H,H,A,A,A-H.png,H-A.png,hH,hH,mask-3.png,mask-3.png,h,1,0.57768450002186,h,1,0.08288850006647408,0.047856400022283196,0.048681499902158976,0.09907169989310205,0.10065059992484748,0.7512759000528604
RSVPLG03,km,20260226-152456,1.0.2,20251113-095759,778,Experiment,Both,1,Automatic,main,88,20260226-153309,global,global,300,H,S,A,A,H-A.png,S-A.png,hH,sS,mask-1.png,mask-3.png,h,1,0.5511487000621855,s,1,0.8314157999120653,0.05016399989835918,0.050859599839895964,0.10108940000645816,0.09983620001003146,0.30005780002102256
RSVPLG03,km,20260226-152456,1.0.2,20251113-095759,778,Experiment,Both,1,Automatic,main,89,20260226-153314,global,local,750,H,H,A,E,H-A.png,E-H.png,hH,hH,mask-4.png,mask-4.png,h,1,1.1601371001452208,h,1,0.06671829987317324,0.05015349993482232,0.04692690004594624,0.10106520005501807,0.09711430012248456,0.7537334999069571
RSVPLG03,km,20260226-152456,1.0.2,20251113-095759,778,Experiment,Both,1,Automatic,main,90,20260226-153319,local,global,300,S,H,E,A,E-S.png,H-A.png,sS,hH,mask-2.png,mask-4.png,s,1,1.818478599889204,h,1,0.0017427001148462296,0.04977539996616542,0.04956419998779893,0.10106209991499782,0.1015435999725014,0.3013263999018818
RSVPLG03,km,20260226-152456,1.0.2,20251113-095759,778,Experiment,Both,1,Automatic,main,91,20260226-153325,global,local,300,H,H,E,E,H-E.png,E-H.png,hH,hH,mask-4.png,mask-3.png,h,1,1.13411569991149,h,1,0.09470409993082285,0.05044439993798733,0.050240099895745516,0.1000452998559922,0.10135409981012344,0.30144389998167753
RSVPLG03,km,20260226-152456,1.0.2,20251113-095759,778,Experiment,Both,1,Automatic,main,92,20260226-153330,local,global,300,H,S,A,E,A-H.png,S-E.png,hH,sS,mask-3.png,mask-4.png,h,1,0.873777600005269,s,1,0.2727320999838412,0.05132379988208413,0.05006920010782778,0.09993909997865558,0.10152190015651286,0.30043979990296066
RSVPLG03,km,20260226-152456,1.0.2,20251113-095759,778,Experiment,Both,1,Automatic,main,93,20260226-153335,global,global,750,S,H,E,A,S-E.png,H-A.png,sS,hH,mask-1.png,mask-4.png,s,1,1.0564772998914123,h,1,0.0005498998798429966,0.05085820006206632,0.047719999914988875,0.10016230004839599,0.09953840007074177,0.7533682000357658
RSVPLG03,km,20260226-152456,1.0.2,20251113-095759,778,Experiment,Both,1,Automatic,main,94,20260226-153340,local,local,300,S,H,A,E,A-S.png,E-H.png,sS,hH,mask-2.png,mask-2.png,s,1,1.4182764999568462,h,1,1.4824655000120401,0.04898930015042424,0.04971710010431707,0.0986814999487251,0.10125750000588596,0.2991345999762416
RSVPLG03,km,20260226-152456,1.0.2,20251113-095759,778,Experiment,Both,1,Automatic,main,95,20260226-153345,local,global,750,H,S,A,A,A-H.png,S-A.png,hH,sS,mask-3.png,mask-1.png,h,1,1.067172999959439,s,1,0.04945089993998408,0.05101800011470914,0.050683700013905764,0.10088610020466149,0.10026860004290938,0.7519577001221478
RSVPLG03,km,20260226-152456,1.0.2,20251113-095759,778,Experiment,Both,1,Automatic,main,96,20260226-153350,global,global,750,S,S,E,E,S-E.png,S-E.png,sS,sS,mask-3.png,mask-3.png,s,1,0.7899081001523882,s,1,0.0970863001421094,0.050156099954620004,0.04900310002267361,0.10089899995364249,0.09973799996078014,0.7537022999022156
RSVPLG03,km,20260226-152456,1.0.2,20251113-095759,778,Experiment,Both,1,Automatic,main,97,20260226-153355,global,local,750,S,H,A,E,S-A.png,E-H.png,sS,hH,mask-3.png,mask-2.png,s,1,0.5889019998721778,h,1,0.3378739000763744,0.048985700123012066,0.048504099948331714,0.1001186000648886,0.09894050005823374,0.7518488999921829
RSVPLG03,km,20260226-152456,1.0.2,20251113-095759,778,Experiment,Both,1,Automatic,main,98,20260226-153401,local,global,300,H,S,E,A,E-H.png,S-A.png,hH,sS,mask-4.png,mask-1.png,h,1,1.272841699887067,s,1,0.06493870005942881,0.049796100007370114,0.04970650002360344,0.0999281001277268,0.10023940005339682,0.29952990007586777
RSVPLG03,km,20260226-152456,1.0.2,20251113-095759,778,Experiment,Both,1,Automatic,main,99,20260226-153406,global,global,750,S,S,A,A,S-A.png,S-A.png,sS,sS,mask-4.png,mask-4.png,s,1,0.4150014000479132,s,1,0.14375189994461834,0.051662700017914176,0.04911940009333193,0.100877899909392,0.09815369988791645,0.7529774999711663
RSVPLG03,km,20260226-152456,1.0.2,20251113-095759,778,Experiment,Both,1,Automatic,main,100,20260226-153410,global,local,300,H,S,A,A,H-A.png,A-S.png,hH,sS,mask-3.png,mask-4.png,h,1,1.2161685000173748,h,0,0.09743009996600449,0.0487361999694258,0.050179299898445606,0.10253010015003383,0.10042899986729026,0.30032670008949935
RSVPLG03,km,20260226-153445,1.0.2,20251113-095759,778,Experiment,Both,1,Automatic,warmup,1,20260226-153513,global,local,300,S,H,A,E,S-A.png,E-H.png,sS,hH,mask-2.png,mask-4.png,h,0,0.5901095999870449,s,0,0.1770568999927491,0.04433570010587573,0.05065109999850392,0.09382110019214451,0.09969209996052086,0.2950920001603663
RSVPLG03,km,20260226-153445,1.0.2,20251113-095759,778,Experiment,Both,1,Automatic,warmup,2,20260226-153518,global,global,300,H,H,E,A,H-E.png,H-A.png,hH,hH,mask-4.png,mask-3.png,h,1,0.6702111999038607,h,1,0.06023159995675087,0.04897000011987984,0.05008209985680878,0.0988487999420613,0.10040230001322925,0.299800300039351
RSVPLG03,km,20260226-153445,1.0.2,20251113-095759,778,Experiment,Both,1,Automatic,warmup,3,20260226-153522,global,global,750,H,H,A,E,H-A.png,H-E.png,hH,hH,mask-4.png,mask-4.png,h,1,0.3445240999571979,h,1,0.0817532001528889,0.0488024998921901,0.05091469991020858,0.09910889994353056,0.10214309999719262,0.7487208000384271
RSVPLG03,km,20260226-153445,1.0.2,20251113-095759,778,Experiment,Both,1,Automatic,warmup,4,20260226-153527,local,global,300,S,S,E,A,E-S.png,S-A.png,sS,sS,mask-2.png,mask-4.png,s,1,0.3848161001224071,h,0,0.5289520001970232,0.05021880008280277,0.04974279995076358,0.09996300004422665,0.10022599995136261,0.3000070000998676
RSVPLG03,km,20260226-153445,1.0.2,20251113-095759,778,Experiment,Both,1,Automatic,main,5,20260226-153531,local,global,750,H,H,E,E,E-H.png,H-E.png,hH,hH,mask-2.png,mask-4.png,h,1,0.7982131000608206,h,1,0.07337550004012883,0.05159330018796027,0.05018520005978644,0.10207440005615354,0.10065690008923411,0.751381800044328
RSVPLG03,km,20260226-153445,1.0.2,20251113-095759,778,Experiment,Both,1,Automatic,main,6,20260226-153536,global,local,300,S,H,E,A,S-E.png,A-H.png,sS,hH,mask-1.png,mask-4.png,s,1,1.3606288000009954,h,1,1.4885501998942345,0.04892809991724789,0.051636100048199296,0.09873829991556704,0.1010945001617074,0.29912689980119467
RSVPLG03,km,20260226-153445,1.0.2,20251113-095759,778,Experiment,Both,1,Automatic,main,7,20260226-153541,global,global,300,H,H,E,A,H-E.png,H-A.png,hH,hH,mask-2.png,mask-1.png,s,0,0.6439150001388043,s,0,0.04135140008293092,0.05048520001582801,0.05062850005924702,0.09904749994166195,0.10031990008428693,0.30074979993514717
RSVPLG03,km,20260226-153445,1.0.2,20251113-095759,778,Experiment,Both,1,Automatic,main,8,20260226-153545,local,local,750,H,S,A,A,A-H.png,A-S.png,hH,sS,mask-1.png,mask-2.png,h,1,0.9920281001832336,s,1,0.09595189988613129,0.05068379989825189,0.04992379993200302,0.10052350000478327,0.10052060009911656,0.7519594999030232
RSVPLG03,km,20260226-153445,1.0.2,20251113-095759,778,Experiment,Both,1,Automatic,main,9,20260226-153551,local,local,300,H,S,A,A,A-H.png,A-S.png,hH,sS,mask-1.png,mask-4.png,h,1,0.5259201999288052,s,1,0.03423740016296506,0.049602100159972906,0.051392799941822886,0.0992044999729842,0.10058179986663163,0.2996712001040578
RSVPLG03,km,20260226-153445,1.0.2,20251113-095759,778,Experiment,Both,1,Automatic,main,10,20260226-153555,local,global,300,H,H,E,E,E-H.png,H-E.png,hH,hH,mask-3.png,mask-4.png,h,1,0.6310947998426855,h,1,1.4048818999435753,0.04949130001477897,0.05012729996815324,0.10040959995239973,0.09963790001347661,0.3002099001314491
RSVPLG03,km,20260226-153445,1.0.2,20251113-095759,778,Experiment,Both,1,Automatic,main,11,20260226-153601,global,local,300,H,S,E,E,H-E.png,E-S.png,hH,sS,mask-1.png,mask-2.png,h,1,0.6087915999814868,h,0,0.5277303999755532,0.04972209990955889,0.050577599788084626,0.09846380003727973,0.10200249985791743,0.2986016001086682
RSVPLG03,km,20260226-153445,1.0.2,20251113-095759,778,Experiment,Both,1,Automatic,main,12,20260226-153606,local,local,300,H,S,E,E,E-H.png,E-S.png,hH,sS,mask-2.png,mask-1.png,h,1,0.5895909999962896,s,1,0.09541589999571443,0.050283299991860986,0.04997109994292259,0.10027339984662831,0.10009669978171587,0.30104080005548894
RSVPLG03,km,20260226-153445,1.0.2,20251113-095759,778,Experiment,Both,1,Automatic,main,13,20260226-153610,local,global,750,S,S,A,E,A-S.png,S-E.png,sS,sS,mask-3.png,mask-1.png,s,1,1.1835026000626385,h,0,1.3115795999765396,0.05089870002120733,0.05010089999996126,0.10178060014732182,0.10029330011457205,0.7519930000416934
RSVPLG03,km,20260226-153445,1.0.2,20251113-095759,778,Experiment,Both,1,Automatic,main,14,20260226-153615,global,global,300,S,H,A,E,S-A.png,H-E.png,sS,hH,mask-1.png,mask-3.png,s,1,1.325886899838224,h,1,0.14396429993212223,0.05001030000858009,0.05089029995724559,0.09943019994534552,0.10029470012523234,0.2988014998845756
RSVPLG03,km,20260226-153445,1.0.2,20251113-095759,778,Experiment,Both,1,Automatic,main,15,20260226-153621,local,global,750,S,S,E,A,E-S.png,S-A.png,sS,sS,mask-1.png,mask-2.png,s,1,1.7010919000022113,h,0,0.6687145999167114,0.05151659995317459,0.050032799830660224,0.10068979999050498,0.10163369984366,0.752581600099802
RSVPLG03,km,20260226-153445,1.0.2,20251113-095759,778,Experiment,Both,1,Automatic,main,16,20260226-153627,global,local,300,S,S,A,E,S-A.png,E-S.png,sS,sS,mask-4.png,mask-3.png,s,1,0.9029962001368403,s,1,0.07802989985793829,0.0497210999019444,0.05019659991376102,0.09944889997132123,0.09980219998396933,0.30135790002532303
RSVPLG03,km,20260226-153445,1.0.2,20251113-095759,778,Experiment,Both,1,Automatic,main,17,20260226-153632,global,local,750,H,S,A,E,H-A.png,E-S.png,hH,sS,mask-2.png,mask-2.png,h,1,1.0877545999828726,s,1,0.05742200021632016,0.04885599995031953,0.048995699966326356,0.09779149992391467,0.1002462999895215,0.7508878000080585
RSVPLG03,km,20260226-153445,1.0.2,20251113-095759,778,Experiment,Both,1,Automatic,main,18,20260226-153637,local,global,300,S,H,E,A,E-S.png,H-A.png,sS,hH,mask-4.png,mask-3.png,s,1,1.1733848999720067,h,1,0.050918899942189455,0.050865800119936466,0.05054319999180734,0.10209699999541044,0.09941030014306307,0.30058489996008575
RSVPLG03,km,20260226-153445,1.0.2,20251113-095759,778,Experiment,Both,1,Automatic,main,19,20260226-153642,local,global,300,H,H,A,E,A-H.png,H-E.png,hH,hH,mask-3.png,mask-4.png,s,0,0.6562122001778334,h,1,0.9447522000409663,0.05006469995714724,0.050201900070533156,0.10019739996641874,0.10067770001478493,0.30185450008139014
RSVPLG03,km,20260226-153445,1.0.2,20251113-095759,778,Experiment,Both,1,Automatic,main,20,20260226-153647,local,local,750,H,S,E,A,E-H.png,A-S.png,hH,sS,mask-1.png,mask-1.png,h,1,1.0319496998563409,s,1,0.06484989984892309,0.04979199985973537,0.049817100167274475,0.09993600007146597,0.10067680012434721,0.7504477999173105
RSVPLG03,km,20260226-153445,1.0.2,20251113-095759,778,Experiment,Both,1,Automatic,main,21,20260226-153653,global,local,750,H,H,E,E,H-E.png,E-H.png,hH,hH,mask-2.png,mask-3.png,h,1,1.001362199895084,h,1,0.09648429998196661,0.04881429998204112,0.05049920012243092,0.10036580008454621,0.10077830008231103,0.7513441999908537
RSVPLG03,km,20260226-153445,1.0.2,20251113-095759,778,Experiment,Both,1,Automatic,main,22,20260226-153658,local,global,300,S,S,A,E,A-S.png,S-E.png,sS,sS,mask-2.png,mask-2.png,s,1,1.2955503000412136,s,1,0.16022760001942515,0.05010780016891658,0.05106179998256266,0.09989260020665824,0.10094700008630753,0.30072450009174645
RSVPLG03,km,20260226-153445,1.0.2,20251113-095759,778,Experiment,Both,1,Automatic,main,23,20260226-153703,global,global,300,H,H,A,E,H-A.png,H-E.png,hH,hH,mask-1.png,mask-4.png,h,1,1.6701215000357479,s,0,0.04310150002129376,0.05058669997379184,0.05124170007184148,0.10232750000432134,0.1016005000565201,0.29960589995607734
RSVPLG03,km,20260226-153445,1.0.2,20251113-095759,778,Experiment,Both,1,Automatic,main,24,20260226-153708,local,local,300,H,H,E,E,E-H.png,E-H.png,hH,hH,mask-1.png,mask-1.png,h,1,0.8054722000379115,s,0,0.0006538999732583761,0.04915550001896918,0.049654699862003326,0.09846489992924035,0.10010110004805028,0.29872040008194745
RSVPLG03,km,20260226-153445,1.0.2,20251113-095759,778,Experiment,Both,1,Automatic,main,25,20260226-153713,global,global,750,H,S,A,A,H-A.png,S-A.png,hH,sS,mask-4.png,mask-2.png,h,1,1.41922269994393,s,1,0.07349059986881912,0.050030000042170286,0.048991800053045154,0.10013950010761619,0.09897340019233525,0.7515867999754846
RSVPLG03,km,20260226-153445,1.0.2,20251113-095759,778,Experiment,Both,1,Automatic,main,26,20260226-153723,global,global,300,H,H,A,A,H-A.png,H-A.png,hH,hH,mask-3.png,mask-4.png,h,1,0.6902528000064194,h,1,0.07749269995838404,0.05102640017867088,0.04891379992477596,0.10041579999960959,0.1002001001033932,0.3020681000780314
RSVPLG03,km,20260226-153445,1.0.2,20251113-095759,778,Experiment,Both,1,Automatic,main,27,20260226-153727,local,local,300,S,H,A,A,A-S.png,A-H.png,sS,hH,mask-1.png,mask-1.png,s,1,1.1057633999735117,h,1,0.011736599961295724,0.04923249990679324,0.049859700025990605,0.10125629999674857,0.10011309990659356,0.300107300048694
RSVPLG03,km,20260226-153445,1.0.2,20251113-095759,778,Experiment,Both,1,Automatic,main,28,20260226-153732,global,global,300,S,H,E,E,S-E.png,H-E.png,sS,hH,mask-2.png,mask-2.png,s,1,1.0920050998684019,h,1,0.0010489001870155334,0.050609400030225515,0.05069469986483455,0.09892229991964996,0.1019013999029994,0.29930830001831055
RSVPLG03,km,20260226-153445,1.0.2,20251113-095759,778,Experiment,Both,1,Automatic,main,29,20260226-153737,local,global,300,S,S,A,E,A-S.png,S-E.png,sS,sS,mask-4.png,mask-1.png,s,1,0.9089956998359412,s,1,0.08246710011735559,0.049902499886229634,0.049950400134548545,0.10013269982300699,0.10000930004753172,0.3003493999131024
RSVPLG03,km,20260226-153445,1.0.2,20251113-095759,778,Experiment,Both,1,Automatic,main,30,20260226-153742,local,local,750,S,H,E,A,E-S.png,A-H.png,sS,hH,mask-4.png,mask-3.png,s,1,0.4430080000311136,h,1,0.6030015000142157,0.05098830000497401,0.049603700172156096,0.10216420004144311,0.09918270003981888,0.7535943000111729
RSVPLG03,km,20260226-153445,1.0.2,20251113-095759,778,Experiment,Both,1,Automatic,main,31,20260226-153746,local,local,750,H,S,A,E,A-H.png,E-S.png,hH,sS,mask-1.png,mask-3.png,h,1,1.1821091000456363,s,1,0.09533090004697442,0.05064000003039837,0.04930489999242127,0.10107430000789464,0.0999779999256134,0.7522082000505179
RSVPLG03,km,20260226-153445,1.0.2,20251113-095759,778,Experiment,Both,1,Automatic,main,32,20260226-153752,local,global,300,S,H,E,A,E-S.png,H-A.png,sS,hH,mask-4.png,mask-2.png,s,1,1.2789985998533666,s,0,0.0495066000148654,0.05043179984204471,0.0503008000086993,0.09949880000203848,0.10026960005052388,0.300790699897334
RSVPLG03,km,20260226-153445,1.0.2,20251113-095759,778,Experiment,Both,1,Automatic,main,33,20260226-153757,local,local,300,S,S,E,E,E-S.png,E-S.png,sS,sS,mask-2.png,mask-1.png,s,1,0.607554699992761,h,0,0.016640600049868226,0.04912610002793372,0.04926839983090758,0.0990508000832051,0.09946399996988475,0.3011116001289338
RSVPLG03,km,20260226-153445,1.0.2,20251113-095759,778,Experiment,Both,1,Automatic,main,34,20260226-153801,global,local,750,S,S,E,E,S-E.png,E-S.png,sS,sS,mask-2.png,mask-1.png,s,1,0.891715400153771,s,1,0.11446910002268851,0.0509464000351727,0.051712899934500456,0.10105050005950034,0.10089730005711317,0.7517407999839634
RSVPLG03,km,20260226-153445,1.0.2,20251113-095759,778,Experiment,Both,1,Automatic,main,35,20260226-153806,local,global,300,S,H,E,A,E-S.png,H-A.png,sS,hH,mask-3.png,mask-1.png,s,1,1.0969173999037594,h,1,0.017719800118356943,0.050655500032007694,0.05003690021112561,0.09964629984460771,0.09984660008922219,0.30073419981636107
RSVPLG03,km,20260226-153445,1.0.2,20251113-095759,778,Experiment,Both,1,Automatic,main,36,20260226-153811,global,global,750,S,H,E,A,S-E.png,H-A.png,sS,hH,mask-3.png,mask-3.png,s,1,0.9677806999534369,h,1,0.01685149990953505,0.050289099803194404,0.04971779999323189,0.10124679980799556,0.10010130004957318,0.7518585999496281
RSVPLG03,km,20260226-153445,1.0.2,20251113-095759,778,Experiment,Both,1,Automatic,main,37,20260226-153816,global,global,750,H,S,A,E,H-A.png,S-E.png,hH,sS,mask-1.png,mask-2.png,h,1,0.982190900016576,s,1,0.08008929993957281,0.05105669982731342,0.04855609987862408,0.09969379985705018,0.0986050998326391,0.7528254999779165
RSVPLG03,km,20260226-153445,1.0.2,20251113-095759,778,Experiment,Both,1,Automatic,main,38,20260226-153821,global,global,300,S,H,E,A,S-E.png,H-A.png,sS,hH,mask-1.png,mask-3.png,s,1,1.1582869999110699,h,1,0.001505600055679679,0.050939299864694476,0.049908800050616264,0.10001239995472133,0.099513900000602,0.30217559984885156
RSVPLG03,km,20260226-153445,1.0.2,20251113-095759,778,Experiment,Both,1,Automatic,main,39,20260226-153826,global,local,300,H,H,A,A,H-A.png,A-H.png,hH,hH,mask-1.png,mask-2.png,h,1,1.0549509001430124,s,0,0.47978750010952353,0.04934759996831417,0.05002199998125434,0.10169779998250306,0.09894749987870455,0.3000910000409931
RSVPLG03,km,20260226-153445,1.0.2,20251113-095759,778,Experiment,Both,1,Automatic,main,40,20260226-153831,global,global,750,H,H,E,A,H-E.png,H-A.png,hH,hH,mask-2.png,mask-1.png,h,1,0.6752599999308586,h,1,0.09803969995118678,0.050972500117495656,0.04922100016847253,0.10011789994314313,0.09948490001261234,0.752907499903813
RSVPLG03,km,20260226-153445,1.0.2,20251113-095759,778,Experiment,Both,1,Automatic,main,41,20260226-153836,global,global,300,H,S,A,A,H-A.png,S-A.png,hH,sS,mask-2.png,mask-2.png,h,1,0.8222874000202864,s,1,0.9667589000891894,0.05037210020236671,0.049641599878668785,0.09966830001212656,0.10097599984146655,0.3003266002051532
RSVPLG03,km,20260226-153445,1.0.2,20251113-095759,778,Experiment,Both,1,Automatic,main,42,20260226-153841,local,global,750,H,S,E,E,E-H.png,S-E.png,hH,sS,mask-3.png,mask-3.png,h,1,0.920620399992913,h,0,0.06538229994475842,0.049356200033798814,0.04949290002696216,0.09956150013022125,0.10041259997524321,0.7500438999850303
RSVPLG03,km,20260226-153445,1.0.2,20251113-095759,778,Experiment,Both,1,Automatic,main,43,20260226-153846,global,global,300,S,S,E,E,S-E.png,S-E.png,sS,sS,mask-3.png,mask-1.png,s,1,0.7527626000810415,s,1,0.12288479995913804,0.04978589992970228,0.050283499993383884,0.10139740002341568,0.10015009995549917,0.30006120004691184
RSVPLG03,km,20260226-153445,1.0.2,20251113-095759,778,Experiment,Both,1,Automatic,main,44,20260226-153850,local,local,300,H,H,E,E,E-H.png,E-H.png,hH,hH,mask-3.png,mask-2.png,h,1,1.1648425001185387,s,0,0.7431038001086563,0.04939899989403784,0.04720359994098544,0.10021020006388426,0.09758770000189543,0.3024764999281615
RSVPLG03,km,20260226-153445,1.0.2,20251113-095759,778,Experiment,Both,1,Automatic,main,45,20260226-153856,global,local,300,S,S,E,A,S-E.png,A-S.png,sS,sS,mask-2.png,mask-3.png,s,1,1.1292546999175102,s,1,0.09805659996345639,0.04981959983706474,0.04962339997291565,0.09968559979461133,0.09911639988422394,0.30158609990030527
RSVPLG03,km,20260226-153445,1.0.2,20251113-095759,778,Experiment,Both,1,Automatic,main,46,20260226-153901,local,local,300,H,S,E,E,E-H.png,E-S.png,hH,sS,mask-3.png,mask-1.png,h,1,0.8749647999648005,s,1,0.10818929993547499,0.05090179992839694,0.05001190002076328,0.09990729996934533,0.10220640012994409,0.29937099991366267
RSVPLG03,km,20260226-153445,1.0.2,20251113-095759,778,Experiment,Both,1,Automatic,main,47,20260226-153906,local,local,300,H,H,A,E,A-H.png,E-H.png,hH,hH,mask-1.png,mask-1.png,h,1,1.5166961001232266,h,1,0.08095580013468862,0.05047559994272888,0.05046910000964999,0.10123389982618392,0.10084729990921915,0.30091720004566014
RSVPLG03,km,20260226-153445,1.0.2,20251113-095759,778,Experiment,Both,1,Automatic,main,48,20260226-153911,local,global,750,S,H,A,E,A-S.png,H-E.png,sS,hH,mask-3.png,mask-3.png,s,1,0.6522488000337034,s,0,0.07461500004865229,0.049936600029468536,0.04962609987705946,0.10034479992464185,0.10192829999141395,0.7505856000352651
RSVPLG03,km,20260226-153445,1.0.2,20251113-095759,778,Experiment,Both,1,Automatic,main,49,20260226-153916,local,global,300,H,H,E,E,E-H.png,H-E.png,hH,hH,mask-2.png,mask-2.png,h,1,0.9160738999489695,h,1,0.08034480013884604,0.04910810012370348,0.05085830017924309,0.0988453000318259,0.10062630008906126,0.2995734999421984
RSVPLG03,km,20260226-153445,1.0.2,20251113-095759,778,Experiment,Both,1,Automatic,main,50,20260226-153920,global,local,300,H,H,E,A,H-E.png,A-H.png,hH,hH,mask-3.png,mask-1.png,h,1,1.1455576000735164,s,0,5.09992241859436e-06,0.050246099941432476,0.049974000081419945,0.1002383001614362,0.10021189996041358,0.30215130001306534
RSVPLG03,km,20260226-153445,1.0.2,20251113-095759,778,Experiment,Both,1,Automatic,main,51,20260226-153931,global,global,750,H,H,E,A,H-E.png,H-A.png,hH,hH,mask-1.png,mask-3.png,h,1,0.9205877999775112,h,1,0.10495890001766384,0.04966589994728565,0.049942699959501624,0.10031459992751479,0.10088369995355606,0.7502099999692291
RSVPLG03,km,20260226-153445,1.0.2,20251113-095759,778,Experiment,Both,1,Automatic,main,52,20260226-153936,global,local,300,S,S,A,E,S-A.png,E-S.png,sS,sS,mask-1.png,mask-2.png,s,1,0.4622943000867963,s,1,0.06392710004001856,0.049618100048974156,0.04925450007431209,0.09921370004303753,0.09898010012693703,0.30206919996999204
RSVPLG03,km,20260226-153445,1.0.2,20251113-095759,778,Experiment,Both,1,Automatic,main,53,20260226-153940,local,global,300,H,S,A,A,A-H.png,S-A.png,hH,sS,mask-4.png,mask-2.png,h,1,0.4185611999128014,s,1,0.033983300207182765,0.05191230005584657,0.05100740003399551,0.09935620008036494,0.10142590012401342,0.29948659986257553
RSVPLG03,km,20260226-153445,1.0.2,20251113-095759,778,Experiment,Both,1,Automatic,main,54,20260226-153944,global,global,750,S,H,E,A,S-E.png,H-A.png,sS,hH,mask-4.png,mask-3.png,s,1,0.9799701999872923,h,1,1.1239451000001281,0.04897110001184046,0.05124549986794591,0.10048900009132922,0.10078039998188615,0.7504080000799149
RSVPLG03,km,20260226-153445,1.0.2,20251113-095759,778,Experiment,Both,1,Automatic,main,55,20260226-153949,local,global,750,H,S,E,A,E-H.png,S-A.png,hH,sS,mask-3.png,mask-2.png,h,1,1.2812495999969542,h,0,0.08089530002325773,0.05102350004017353,0.049150200095027685,0.10088409995660186,0.10062770009972155,0.7529285999480635
RSVPLG03,km,20260226-153445,1.0.2,20251113-095759,778,Experiment,Both,1,Automatic,main,56,20260226-153955,global,local,750,S,H,A,A,S-A.png,A-H.png,sS,hH,mask-1.png,mask-2.png,s,1,1.3608359000645578,h,1,1.50441429996863,0.050763400038704276,0.0495645001064986,0.10198569996282458,0.09885240020230412,0.7523927998263389
RSVPLG03,km,20260226-153445,1.0.2,20251113-095759,778,Experiment,Both,1,Automatic,main,57,20260226-154000,global,global,300,H,S,A,E,H-A.png,S-E.png,hH,sS,mask-3.png,mask-3.png,h,1,0.9967825000640005,s,1,0.09061439987272024,0.05175230000168085,0.0490317998919636,0.10066530015319586,0.10013579996302724,0.30179150006733835
RSVPLG03,km,20260226-153445,1.0.2,20251113-095759,778,Experiment,Both,1,Automatic,main,58,20260226-154005,global,local,750,H,H,A,A,H-A.png,A-H.png,hH,hH,mask-4.png,mask-2.png,h,1,0.6862455999944359,h,1,0.0973963001742959,0.04951540008187294,0.050333499908447266,0.10000009997747838,0.10069980006664991,0.7507881000638008
RSVPLG03,km,20260226-153445,1.0.2,20251113-095759,778,Experiment,Both,1,Automatic,main,59,20260226-154010,local,global,750,H,H,E,E,E-H.png,H-E.png,hH,hH,mask-2.png,mask-1.png,h,1,0.8400661998894066,h,1,0.09536929987370968,0.04910230007953942,0.05075539997778833,0.09913289989344776,0.10342280007898808,0.7490183999761939
RSVPLG03,km,20260226-153445,1.0.2,20251113-095759,778,Experiment,Both,1,Automatic,main,60,20260226-154015,local,global,300,H,H,E,E,E-H.png,H-E.png,hH,hH,mask-1.png,mask-4.png,h,1,0.8778617999050766,s,0,1.021904099965468,0.0505650001578033,0.05042129987850785,0.10154459998011589,0.09955949988216162,0.3006300001870841
RSVPLG03,km,20260226-153445,1.0.2,20251113-095759,778,Experiment,Both,1,Automatic,main,61,20260226-154020,local,global,300,H,S,E,A,E-H.png,S-A.png,hH,sS,mask-1.png,mask-1.png,h,1,0.7095747001003474,h,0,0.07667290000244975,0.04927950003184378,0.05157149978913367,0.09941460005939007,0.1026770998723805,0.29925440018996596
RSVPLG03,km,20260226-153445,1.0.2,20251113-095759,778,Experiment,Both,1,Automatic,main,62,20260226-154024,global,local,750,S,H,E,A,S-E.png,A-H.png,sS,hH,mask-2.png,mask-4.png,s,1,1.0703852002043277,h,1,1.229895600117743,0.04870959999971092,0.047767600044608116,0.10031370003707707,0.09795429999940097,0.752335200086236
RSVPLG03,km,20260226-153445,1.0.2,20251113-095759,778,Experiment,Both,1,Automatic,main,63,20260226-154031,local,local,750,S,S,E,A,E-S.png,A-S.png,sS,sS,mask-3.png,mask-2.png,s,1,1.280461800051853,s,1,0.22209480009041727,0.0515773999504745,0.04887810000218451,0.10031579993665218,0.0988914999179542,0.7527342000976205
RSVPLG03,km,20260226-153445,1.0.2,20251113-095759,778,Experiment,Both,1,Automatic,main,64,20260226-154036,local,local,300,H,S,A,A,A-H.png,A-S.png,hH,sS,mask-4.png,mask-3.png,s,0,1.056087999837473,h,0,0.2591897000093013,0.050290599931031466,0.049559899838641286,0.09973819996230304,0.10130629991181195,0.3004215001128614
RSVPLG03,km,20260226-153445,1.0.2,20251113-095759,778,Experiment,Both,1,Automatic,main,65,20260226-154041,global,local,750,H,H,A,E,H-A.png,E-H.png,hH,hH,mask-4.png,mask-4.png,h,1,0.8867487998213619,h,1,0.2183666001074016,0.05009419983252883,0.048537000082433224,0.09885840001516044,0.09843840007670224,0.7535812999121845
RSVPLG03,km,20260226-153445,1.0.2,20251113-095759,778,Experiment,Both,1,Automatic,main,66,20260226-154047,local,local,750,H,H,A,A,A-H.png,A-H.png,hH,hH,mask-2.png,mask-2.png,h,1,0.6078315998893231,h,1,0.11536059994250536,0.049937599804252386,0.04998210002668202,0.09994999994523823,0.10042730020359159,0.7500653997994959
RSVPLG03,km,20260226-153445,1.0.2,20251113-095759,778,Experiment,Both,1,Automatic,main,67,20260226-154051,global,local,300,S,H,E,A,S-E.png,A-H.png,sS,hH,mask-2.png,mask-3.png,s,1,3.168773700017482,h,1,0.17784380004741251,0.049917700001969934,0.05111440015025437,0.10053460020571947,0.10222570016048849,0.2989233999978751
RSVPLG03,km,20260226-153445,1.0.2,20251113-095759,778,Experiment,Both,1,Automatic,main,68,20260226-154059,local,global,750,S,S,E,E,E-S.png,S-E.png,sS,sS,mask-2.png,mask-1.png,s,1,1.3135369999799877,s,1,0.14040929987095296,0.05076400004327297,0.04908409994095564,0.10023820004425943,0.09993169992230833,0.7512574999127537
RSVPLG03,km,20260226-153445,1.0.2,20251113-095759,778,Experiment,Both,1,Automatic,main,69,20260226-154104,global,global,750,S,H,A,E,S-A.png,H-E.png,sS,hH,mask-3.png,mask-3.png,s,1,1.6960976000409573,h,1,0.17032369994558394,0.0509267000015825,0.05133080016821623,0.10145939979702234,0.10079060005955398,0.7514886998105794
RSVPLG03,km,20260226-153445,1.0.2,20251113-095759,778,Experiment,Both,1,Automatic,main,70,20260226-154110,local,local,750,H,S,E,A,E-H.png,A-S.png,hH,sS,mask-1.png,mask-1.png,h,1,1.5497522000223398,s,1,0.19102389994077384,0.051370499888435006,0.04936119983904064,0.1011024999897927,0.10062330006621778,0.7537724999710917
RSVPLG03,km,20260226-153445,1.0.2,20251113-095759,778,Experiment,Both,1,Automatic,main,71,20260226-154116,global,local,750,H,H,E,E,H-E.png,E-H.png,hH,hH,mask-4.png,mask-2.png,h,1,1.3526425999589264,s,0,0.2246370001230389,0.05046779988333583,0.049000000115484,0.10005460004322231,0.09841020009480417,0.7526553999632597
RSVPLG03,km,20260226-153445,1.0.2,20251113-095759,778,Experiment,Both,1,Automatic,main,72,20260226-154122,local,local,750,H,H,E,A,E-H.png,A-H.png,hH,hH,mask-2.png,mask-3.png,h,1,1.5940485000610352,h,1,0.2317423999775201,0.050870600156486034,0.049154399894177914,0.10058960015885532,0.09947560005821288,0.7525061001069844
RSVPLG03,km,20260226-153445,1.0.2,20251113-095759,778,Experiment,Both,1,Automatic,main,73,20260226-154128,global,local,300,H,H,A,E,H-A.png,E-H.png,hH,hH,mask-3.png,mask-2.png,h,1,1.4750772002153099,s,0,0.2899660998955369,0.05006419983692467,0.05041780020110309,0.10148069984279573,0.09980920003727078,0.30088579980656505
RSVPLG03,km,20260226-153445,1.0.2,20251113-095759,778,Experiment,Both,1,Automatic,main,74,20260226-154134,local,local,750,H,H,A,E,A-H.png,E-H.png,hH,hH,mask-4.png,mask-3.png,h,1,1.3510791000444442,h,1,0.21987420017831028,0.04849159996956587,0.05002199998125434,0.10014760005287826,0.10071949986740947,0.7506866999901831
RSVPLG03,km,20260226-153445,1.0.2,20251113-095759,778,Experiment,Both,1,Automatic,main,75,20260226-154139,local,local,750,S,S,A,A,A-S.png,A-S.png,sS,sS,mask-3.png,mask-3.png,s,1,2.451629800023511,s,1,0.15113259991630912,0.05084330006502569,0.04974010004661977,0.10043630003929138,0.10132879996672273,0.7524468000046909
RSVPLG03,km,20260226-153445,1.0.2,20251113-095759,778,Experiment,Both,1,Automatic,main,76,20260226-154149,global,local,750,H,S,E,A,H-E.png,A-S.png,hH,sS,mask-2.png,mask-2.png,h,1,0.7970083998516202,h,0,0.18848620005883276,0.04970939992927015,0.05143079999834299,0.09813970001414418,0.10081150010228157,0.750117399962619
RSVPLG03,km,20260226-153445,1.0.2,20251113-095759,778,Experiment,Both,1,Automatic,main,77,20260226-154155,local,global,750,S,H,A,A,A-S.png,H-A.png,sS,hH,mask-1.png,mask-3.png,s,1,0.7464475000742823,s,0,0.12236459995619953,0.04896540008485317,0.05129699991084635,0.09927630005404353,0.10198600008152425,0.7504257000982761
RSVPLG03,km,20260226-153445,1.0.2,20251113-095759,778,Experiment,Both,1,Automatic,main,78,20260226-154200,local,local,300,S,H,E,A,E-S.png,A-H.png,sS,hH,mask-4.png,mask-2.png,s,1,1.1420263000763953,h,1,0.09778960002586246,0.05108079989440739,0.05001050001010299,0.10117690009064972,0.09935620008036494,0.3018479999154806
RSVPLG03,km,20260226-153445,1.0.2,20251113-095759,778,Experiment,Both,1,Automatic,main,79,20260226-154205,global,local,300,H,H,E,A,H-E.png,A-H.png,hH,hH,mask-4.png,mask-1.png,h,1,1.4773007999174297,h,1,0.28231489984318614,0.049651999957859516,0.04762879991903901,0.0988678999710828,0.0967164000030607,0.3021170001011342
RSVPLG03,km,20260226-153445,1.0.2,20251113-095759,778,Experiment,Both,1,Automatic,main,80,20260226-154210,global,global,300,S,H,A,A,S-A.png,H-A.png,sS,hH,mask-2.png,mask-3.png,s,1,2.072088599903509,h,1,0.24913210002705455,0.05183470016345382,0.05123590002767742,0.10275290021672845,0.1012283000163734,0.30167950014583766
RSVPLG03,km,20260226-153445,1.0.2,20251113-095759,778,Experiment,Both,1,Automatic,main,81,20260226-154216,local,local,750,H,H,E,A,E-H.png,A-H.png,hH,hH,mask-2.png,mask-1.png,h,1,1.1612446000799537,h,1,0.1575127001851797,0.05005129985511303,0.04988690000027418,0.10073609999381006,0.10072289989329875,0.75041009997949
RSVPLG03,km,20260226-153445,1.0.2,20251113-095759,778,Experiment,Both,1,Automatic,main,82,20260226-154222,global,local,750,H,H,E,A,H-E.png,A-H.png,hH,hH,mask-2.png,mask-4.png,h,1,1.228706100024283,h,1,0.3369809999130666,0.050934999948367476,0.0489380001090467,0.10110060009174049,0.10002000001259148,0.7526332999113947
RSVPLG03,km,20260226-153445,1.0.2,20251113-095759,778,Experiment,Both,1,Automatic,main,83,20260226-154227,global,global,750,S,S,A,E,S-A.png,S-E.png,sS,sS,mask-1.png,mask-2.png,s,1,1.3645810999441892,s,1,0.41594009986147285,0.05208940012380481,0.04832320008426905,0.10109070013277233,0.09980880003422499,0.7530857000965625
RSVPLG03,km,20260226-153445,1.0.2,20251113-095759,778,Experiment,Both,1,Automatic,main,84,20260226-154233,local,global,300,H,S,E,E,E-H.png,S-E.png,hH,sS,mask-3.png,mask-3.png,h,1,1.9194497999269515,h,0,0.10778229986317456,0.04917769995518029,0.049128200160339475,0.09935929998755455,0.09899730002507567,0.30006639985367656
RSVPLG03,km,20260226-153445,1.0.2,20251113-095759,778,Experiment,Both,1,Automatic,main,85,20260226-154239,global,global,300,H,H,E,E,H-E.png,H-E.png,hH,hH,mask-1.png,mask-1.png,h,1,0.8517911001108587,h,1,0.1741622998379171,0.049795799888670444,0.050572199979797006,0.10143759986385703,0.10056530009023845,0.3002637999597937
RSVPLG03,km,20260226-153445,1.0.2,20251113-095759,778,Experiment,Both,1,Automatic,main,86,20260226-154244,local,global,750,S,S,E,E,E-S.png,S-E.png,sS,sS,mask-1.png,mask-3.png,s,1,0.9705874000210315,s,1,0.3547501000575721,0.0504010000731796,0.05164270009845495,0.09994690003804862,0.10182430013082922,0.751046400051564
RSVPLG03,km,20260226-153445,1.0.2,20251113-095759,778,Experiment,Both,1,Automatic,main,87,20260226-154249,global,global,750,H,S,E,A,H-E.png,S-A.png,hH,sS,mask-4.png,mask-4.png,h,1,1.68176420009695,s,1,0.174194399965927,0.04908779985271394,0.049067300045862794,0.09738709987141192,0.10005220002494752,0.7513603998813778
RSVPLG03,km,20260226-153445,1.0.2,20251113-095759,778,Experiment,Both,1,Automatic,main,88,20260226-154255,local,global,750,H,H,A,A,A-H.png,H-A.png,hH,hH,mask-4.png,mask-1.png,h,1,1.6552512999624014,s,0,0.07255210005678236,0.05041749984957278,0.04967109998688102,0.10053769988007843,0.09879219997674227,0.7534022000618279
RSVPLG03,km,20260226-153445,1.0.2,20251113-095759,778,Experiment,Both,1,Automatic,main,89,20260226-154301,global,local,300,S,S,A,E,S-A.png,E-S.png,sS,sS,mask-1.png,mask-2.png,s,1,0.8612511998508126,s,1,0.1241015000268817,0.05092009995132685,0.049011999974027276,0.10029640002176166,0.09769939980469644,0.30141020007431507
RSVPLG03,km,20260226-153445,1.0.2,20251113-095759,778,Experiment,Both,1,Automatic,main,90,20260226-154306,global,local,300,S,H,E,E,S-E.png,E-H.png,sS,hH,mask-1.png,mask-4.png,s,1,0.7534110001288354,s,0,0.1127717001363635,0.04861210007220507,0.04944689990952611,0.10038179997354746,0.10023509990423918,0.2989584000315517
RSVPLG03,km,20260226-153445,1.0.2,20251113-095759,778,Experiment,Both,1,Automatic,main,91,20260226-154310,local,local,300,S,S,A,A,A-S.png,A-S.png,sS,sS,mask-3.png,mask-3.png,s,1,0.714032799936831,s,1,0.1065332000143826,0.049363499972969294,0.04687920003198087,0.10017229989171028,0.0968521002214402,0.3044452997855842
RSVPLG03,km,20260226-153445,1.0.2,20251113-095759,778,Experiment,Both,1,Automatic,main,92,20260226-154315,global,global,750,H,S,A,E,H-A.png,S-E.png,hH,sS,mask-4.png,mask-2.png,s,0,2.106386400060728,s,1,0.1304784999229014,0.0493860999122262,0.04745019995607436,0.09933730005286634,0.09736919985152781,0.7539911000058055
RSVPLG03,km,20260226-153445,1.0.2,20251113-095759,778,Experiment,Both,1,Automatic,main,93,20260226-154321,global,local,750,S,S,A,A,S-A.png,A-S.png,sS,sS,mask-1.png,mask-1.png,s,1,0.6909702001139522,s,1,0.39470870001241565,0.05067740008234978,0.04891090001910925,0.10072760004550219,0.1007453000638634,0.7527197001036257
RSVPLG03,km,20260226-153445,1.0.2,20251113-095759,778,Experiment,Both,1,Automatic,main,94,20260226-154327,global,global,750,H,S,A,A,H-A.png,S-A.png,hH,sS,mask-1.png,mask-1.png,h,1,1.556923400145024,s,1,0.04957589996047318,0.049326400039717555,0.049780100118368864,0.09944080002605915,0.10154150007292628,0.7509985000360757
RSVPLG03,km,20260226-153445,1.0.2,20251113-095759,778,Experiment,Both,1,Automatic,main,95,20260226-154332,local,local,750,H,S,E,E,E-H.png,E-S.png,hH,sS,mask-1.png,mask-4.png,h,1,0.9606596000958234,s,1,0.09810569998808205,0.050916200038045645,0.04907940002158284,0.1020213000010699,0.0998033001087606,0.7532798000611365
RSVPLG03,km,20260226-153445,1.0.2,20251113-095759,778,Experiment,Both,1,Automatic,main,96,20260226-154338,global,global,300,H,S,E,E,H-E.png,S-E.png,hH,sS,mask-1.png,mask-1.png,h,1,0.9162655998952687,s,1,0.06178870005533099,0.051039500162005424,0.051633600145578384,0.10127970017492771,0.10108099994249642,0.2997568000573665
RSVPLG03,km,20260226-153445,1.0.2,20251113-095759,778,Experiment,Both,1,Automatic,main,97,20260226-154342,local,local,300,H,H,E,A,E-H.png,A-H.png,hH,hH,mask-4.png,mask-3.png,h,1,0.9098656999412924,h,1,0.11004400020465255,0.05132930004037917,0.051899699959903955,0.10003620013594627,0.10121419979259372,0.30054950015619397
RSVPLG03,km,20260226-153445,1.0.2,20251113-095759,778,Experiment,Both,1,Automatic,main,98,20260226-154347,local,global,750,S,H,E,A,E-S.png,H-A.png,sS,hH,mask-3.png,mask-4.png,s,1,0.8848307998850942,s,0,0.09600190003402531,0.04996079998090863,0.049937599804252386,0.10025979997590184,0.09912019991315901,0.7542147000785917
RSVPLG03,km,20260226-153445,1.0.2,20251113-095759,778,Experiment,Both,1,Automatic,main,99,20260226-154352,global,global,750,S,S,A,A,S-A.png,S-A.png,sS,sS,mask-1.png,mask-4.png,s,1,0.7959777999203652,s,1,0.1786428999621421,0.048962300177663565,0.04934930009767413,0.09890049998648465,0.10056360019370914,0.7515410999767482
RSVPLG03,km,20260226-153445,1.0.2,20251113-095759,778,Experiment,Both,1,Automatic,main,100,20260226-154357,global,local,750,H,H,A,E,H-A.png,E-H.png,hH,hH,mask-3.png,mask-3.png,h,1,1.1165720000863075,s,0,0.0805470000486821,0.04997269995510578,0.05153340008109808,0.10132040013559163,0.09944310015998781,0.7512340999674052
