exp,exp_initials,runtime,ver,modtime,sub,blocktype,targets,cuetype,mode,trialtype,trial,trialtime,t1_level,t2_level,t2_lag,t1,t2,distractor1,distractor2,stimfile1,stimfile2,t1_corr,t2_corr,maskfile1,maskfile2,t1_resp,t1_acc,t1_rt,t2_resp,t2_acc,t2_rt,t1_dur,t2_dur,t1mask_soa,t2mask_soa,t1t2_soa
RSVPLG03,si,20260326-152254,1.0.2,20260219-152011,814,Introduction,T1,1,Automatic,main,1,20260326-152326,global,local,750,S,S,E,E,S-E.png,E-S.png,sS,sS,mask-3.png,mask-3.png,s,1,1.6105740999337286,none,-5,0,0.09160489996429533,0.09999610006343573,0.19205249997321516,0.20082900009583682,0.7402368999319151
RSVPLG03,si,20260326-152254,1.0.2,20260219-152011,814,Introduction,T1,1,Automatic,main,2,20260326-152332,global,global,750,H,H,A,A,H-A.png,H-A.png,hH,hH,mask-4.png,mask-3.png,h,1,1.0888772000325844,none,-5,0,0.09841530001722276,0.09918360004667193,0.19915450003463775,0.19994560000486672,0.7491278999950737
RSVPLG03,si,20260326-152254,1.0.2,20260219-152011,814,Introduction,T1,1,Automatic,main,3,20260326-152337,local,global,750,H,S,A,A,A-H.png,S-A.png,hH,sS,mask-2.png,mask-3.png,h,1,2.329596700030379,none,-5,0,0.10094459995161742,0.10069059999659657,0.20129080000333488,0.2016002000309527,0.7508340999484062
RSVPLG03,si,20260326-152254,1.0.2,20260219-152011,814,Introduction,T1,1,Automatic,main,4,20260326-152343,global,local,750,S,S,A,A,S-A.png,A-S.png,sS,sS,mask-2.png,mask-1.png,h,0,1.2161257000407204,none,-5,0,0.09988999995402992,0.09968480002135038,0.19950599991716444,0.1993231000378728,0.7506763999117538
RSVPLG03,si,20260326-152254,1.0.2,20260219-152011,814,Introduction,T1,1,Automatic,main,5,20260326-152349,global,global,750,H,H,E,E,H-E.png,H-E.png,hH,hH,mask-1.png,mask-1.png,s,0,2.5771929000038654,none,-5,0,0.10046630003489554,0.10002330003771931,0.20160799997393042,0.19898200000170618,0.7510600999230519
RSVPLG03,si,20260326-152254,1.0.2,20260219-152011,814,Introduction,T1,1,Automatic,main,6,20260326-152356,local,local,750,S,S,A,A,A-S.png,A-S.png,sS,sS,mask-1.png,mask-3.png,s,1,1.595740900025703,none,-5,0,0.10174329997971654,0.10011280002072453,0.1986197999212891,0.19842679996509105,0.7498763999901712
RSVPLG03,si,20260326-152254,1.0.2,20260219-152011,814,Introduction,T1,1,Automatic,main,7,20260326-152401,global,local,750,S,S,A,E,S-A.png,E-S.png,sS,sS,mask-4.png,mask-3.png,s,1,2.9781044999836013,none,-5,0,0.10074270004406571,0.1010833999607712,0.20060650003142655,0.2004523000214249,0.7515321000246331
RSVPLG03,si,20260326-152254,1.0.2,20260219-152011,814,Introduction,T1,1,Automatic,main,8,20260326-152409,local,global,750,S,H,A,E,A-S.png,H-E.png,sS,hH,mask-4.png,mask-2.png,s,1,5.408800399978645,none,-5,0,0.09877489996142685,0.09834949998185039,0.1988108999794349,0.1995498000178486,0.7508562000002712
RSVPLG03,si,20260326-152254,1.0.2,20260219-152011,814,Introduction,T1,1,Automatic,main,9,20260326-152418,local,local,750,S,H,A,A,A-S.png,A-H.png,sS,hH,mask-1.png,mask-1.png,s,1,1.3695811999496073,none,-5,0,0.09795189998112619,0.1009130000602454,0.19966309994924814,0.20095029997173697,0.7492153999628499
RSVPLG03,si,20260326-152254,1.0.2,20260219-152011,814,Introduction,T1,1,Automatic,main,10,20260326-152424,global,local,750,H,H,E,E,H-E.png,E-H.png,hH,hH,mask-4.png,mask-2.png,s,0,1.038950299960561,none,-5,0,0.10013700008857995,0.09880409995093942,0.20084860001225024,0.19911940000019968,0.7522136000916362
RSVPLG03,si,20260326-152254,1.0.2,20260219-152011,814,Introduction,T1,1,Automatic,main,11,20260326-152429,local,global,750,H,S,E,E,E-H.png,S-E.png,hH,sS,mask-3.png,mask-4.png,s,0,3.1449470999650657,none,-5,0,0.1008494000416249,0.09895470004994422,0.20059529994614422,0.19954920001327991,0.7515429999912158
RSVPLG03,si,20260326-152254,1.0.2,20260219-152011,814,Introduction,T1,1,Automatic,main,12,20260326-152436,local,global,750,S,S,E,E,E-S.png,S-E.png,sS,sS,mask-4.png,mask-1.png,s,1,0.9938946000766009,none,-5,0,0.09963489999063313,0.0998232999118045,0.20069610001519322,0.20035099994856864,0.7501171000767499
RSVPLG03,si,20260326-152254,1.0.2,20260219-152011,814,Introduction,T1,1,Automatic,main,13,20260326-152441,local,local,750,H,H,E,E,E-H.png,E-H.png,hH,hH,mask-1.png,mask-4.png,h,1,1.4300347999669611,none,-5,0,0.10110250010620803,0.10003089997917414,0.20209400006569922,0.20212780009023845,0.7503385000163689
RSVPLG03,si,20260326-152254,1.0.2,20260219-152011,814,Introduction,T1,1,Automatic,main,14,20260326-152447,global,global,750,H,H,E,E,H-E.png,H-E.png,hH,hH,mask-1.png,mask-2.png,h,1,1.354964999947697,none,-5,0,0.09965099999681115,0.09887129999697208,0.19974539999384433,0.19950040010735393,0.7514427999267355
RSVPLG03,si,20260326-152254,1.0.2,20260219-152011,814,Introduction,T1,1,Automatic,main,15,20260326-152452,local,local,750,S,S,E,E,E-S.png,E-S.png,sS,sS,mask-2.png,mask-3.png,s,1,0.7464727000333369,none,-5,0,0.0989821000257507,0.10010109993163496,0.2004136999603361,0.20276160002686083,0.7501871000276878
RSVPLG03,si,20260326-152254,1.0.2,20260219-152011,814,Introduction,T1,1,Automatic,main,16,20260326-152457,global,global,750,H,H,A,A,H-A.png,H-A.png,hH,hH,mask-2.png,mask-4.png,s,0,0.7214642000617459,none,-5,0,0.09874909999780357,0.10087230009958148,0.19892479991540313,0.19888740009628236,0.7508282999042422
RSVPLG03,si,20260326-152516,1.0.2,20260219-152011,814,Practice,T1,1,Automatic,main,1,20260326-152536,global,global,750,S,H,A,E,S-A.png,H-E.png,sS,hH,mask-4.png,mask-3.png,s,1,0.604368400061503,none,-5,0,0.04721760004758835,0.050532099907286465,0.09641200001351535,0.0986265999963507,0.7504243000876158
RSVPLG03,si,20260326-152516,1.0.2,20260219-152011,814,Practice,T1,1,Automatic,main,2,20260326-152540,local,global,300,S,H,A,A,A-S.png,H-A.png,sS,hH,mask-1.png,mask-4.png,s,1,0.38787829992361367,none,-5,0,0.04956429998856038,0.04952690005302429,0.10009590000845492,0.10018750000745058,0.3021248000441119
RSVPLG03,si,20260326-152516,1.0.2,20260219-152011,814,Practice,T1,1,Automatic,main,3,20260326-152544,global,local,300,S,H,E,A,S-E.png,A-H.png,sS,hH,mask-1.png,mask-2.png,s,1,0.3512512999586761,none,-5,0,0.05158159998245537,0.05116580007597804,0.10067780001554638,0.09960219997446984,0.30300630000419915
RSVPLG03,si,20260326-152516,1.0.2,20260219-152011,814,Practice,T1,1,Automatic,main,4,20260326-152548,global,local,750,H,H,E,E,H-E.png,E-H.png,hH,hH,mask-2.png,mask-1.png,h,1,0.32158550003077835,none,-5,0,0.04986979998648167,0.05089499999303371,0.1007071000058204,0.10179989994503558,0.7523110000183806
RSVPLG03,si,20260326-152516,1.0.2,20260219-152011,814,Practice,T1,1,Automatic,main,5,20260326-152552,global,global,750,S,S,E,E,S-E.png,S-E.png,sS,sS,mask-2.png,mask-1.png,s,1,0.4456040000077337,none,-5,0,0.04965699999593198,0.05057920003309846,0.10146360006183386,0.10138250002637506,0.7533696000464261
RSVPLG03,si,20260326-152516,1.0.2,20260219-152011,814,Practice,T1,1,Automatic,main,6,20260326-152557,local,local,300,H,S,E,E,E-H.png,E-S.png,hH,sS,mask-1.png,mask-3.png,s,0,0.8063072999939322,none,-5,0,0.048684900044463575,0.05098339996766299,0.1030886999797076,0.10107989993412048,0.3002945000771433
RSVPLG03,si,20260326-152516,1.0.2,20260219-152011,814,Practice,T1,1,Automatic,main,7,20260326-152601,global,local,750,H,H,E,E,H-E.png,E-H.png,hH,hH,mask-2.png,mask-2.png,h,1,0.5971306000137702,none,-5,0,0.051037500030361116,0.051882100058719516,0.10137519997078925,0.10117899999022484,0.752749599982053
RSVPLG03,si,20260326-152516,1.0.2,20260219-152011,814,Practice,T1,1,Automatic,main,8,20260326-152606,local,local,750,H,H,E,E,E-H.png,E-H.png,hH,hH,mask-3.png,mask-4.png,s,0,0.9727902000304312,none,-5,0,0.04981460003182292,0.051611300092190504,0.09990660008043051,0.10152930009644479,0.7534227999858558
RSVPLG03,si,20260326-152516,1.0.2,20260219-152011,814,Practice,T1,1,Automatic,main,9,20260326-152611,local,global,300,S,H,E,E,E-S.png,H-E.png,sS,hH,mask-2.png,mask-4.png,h,0,2.7929860999574885,none,-5,0,0.050779799930751324,0.051006300025619566,0.10151829989627004,0.10116419999394566,0.30049609998241067
RSVPLG03,si,20260326-152516,1.0.2,20260219-152011,814,Practice,T1,1,Automatic,main,10,20260326-152617,global,local,300,H,H,A,A,H-A.png,A-H.png,hH,hH,mask-4.png,mask-2.png,s,0,0.68755459995009,none,-5,0,0.049206400057300925,0.04878159996587783,0.10031290003098547,0.10068039991892874,0.30116420006379485
RSVPLG03,si,20260326-152516,1.0.2,20260219-152011,814,Practice,T1,1,Automatic,main,11,20260326-152622,global,global,300,S,H,A,E,S-A.png,H-E.png,sS,hH,mask-3.png,mask-4.png,s,1,1.1818731999956071,none,-5,0,0.050640399917028844,0.05227410001680255,0.10012299998197705,0.10104179999325424,0.29989619995467365
RSVPLG03,si,20260326-152516,1.0.2,20260219-152011,814,Practice,T1,1,Automatic,main,12,20260326-152626,local,global,750,H,H,A,E,A-H.png,H-E.png,hH,hH,mask-4.png,mask-1.png,h,1,0.934539100038819,none,-5,0,0.049480600049719214,0.04929009999614209,0.10031380003783852,0.09944340004585683,0.754506399971433
RSVPLG03,si,20260326-152516,1.0.2,20260219-152011,814,Practice,T1,1,Automatic,main,13,20260326-152631,local,global,750,H,H,A,E,A-H.png,H-E.png,hH,hH,mask-4.png,mask-3.png,h,1,0.6307148000923917,none,-5,0,0.04960889997892082,0.05018309992738068,0.10168620001059026,0.09993689996190369,0.7539656000444666
RSVPLG03,si,20260326-152516,1.0.2,20260219-152011,814,Practice,T1,1,Automatic,main,14,20260326-152636,global,global,300,H,H,E,A,H-E.png,H-A.png,hH,hH,mask-3.png,mask-3.png,h,1,0.6294237000402063,none,-5,0,0.05069790000561625,0.04974070005118847,0.10055939992889762,0.09943780000321567,0.3014547999482602
RSVPLG03,si,20260326-152516,1.0.2,20260219-152011,814,Practice,T1,1,Automatic,main,15,20260326-152640,local,local,300,S,H,E,A,E-S.png,A-H.png,sS,hH,mask-1.png,mask-1.png,s,1,0.8022077999776229,none,-5,0,0.04989150003530085,0.051148800062946975,0.10042590007651597,0.09841279999818653,0.3017340999795124
RSVPLG03,si,20260326-152516,1.0.2,20260219-152011,814,Practice,T1,1,Automatic,main,16,20260326-152645,local,local,750,H,H,E,A,E-H.png,A-H.png,hH,hH,mask-3.png,mask-2.png,h,1,0.828780599986203,none,-5,0,0.049561799969524145,0.05048089998308569,0.10068529995623976,0.10084909992292523,0.7532926000421867
RSVPLG03,si,20260326-152713,1.0.2,20260219-152011,814,Introduction,Both,1,Automatic,main,1,20260326-152731,local,global,750,H,S,A,E,A-H.png,S-E.png,hH,sS,mask-3.png,mask-2.png,h,1,1.6687247999943793,s,1,3.6662880999501795,0.10075749992392957,0.10071979998610914,0.201566300005652,0.20061709999572486,0.7501985999988392
RSVPLG03,si,20260326-152713,1.0.2,20260219-152011,814,Introduction,Both,1,Automatic,main,2,20260326-152741,local,local,750,H,S,E,A,E-H.png,A-S.png,hH,sS,mask-4.png,mask-2.png,h,1,2.3831663000164554,s,1,0.5146082000574097,0.09881150000728667,0.09985539992339909,0.19889710005372763,0.199231099919416,0.7508354000747204
RSVPLG03,si,20260326-152713,1.0.2,20260219-152011,814,Introduction,Both,1,Automatic,main,3,20260326-152748,global,local,750,H,H,A,E,H-A.png,E-H.png,hH,hH,mask-4.png,mask-1.png,h,1,2.445622400031425,s,0,0.6827751999953762,0.09986269997898489,0.10119030007626861,0.20014610001817346,0.20069700002204627,0.7498544999398291
RSVPLG03,si,20260326-152713,1.0.2,20260219-152011,814,Introduction,Both,1,Automatic,main,4,20260326-152755,global,global,750,H,S,A,E,H-A.png,S-E.png,hH,sS,mask-4.png,mask-2.png,s,0,2.8589507000287995,h,0,0.48879980004858226,0.1007499999832362,0.10072019998915493,0.20057469990570098,0.19956790003925562,0.7508032999467105
RSVPLG03,si,20260326-152713,1.0.2,20260219-152011,814,Introduction,Both,1,Automatic,main,5,20260326-152803,local,global,750,H,S,E,E,E-H.png,S-E.png,hH,sS,mask-4.png,mask-3.png,h,1,2.7647267000284046,s,1,0.3978232000954449,0.10058329999446869,0.10087820002809167,0.2000828000018373,0.20166909997351468,0.7506097999867052
RSVPLG03,si,20260326-152713,1.0.2,20260219-152011,814,Introduction,Both,1,Automatic,main,6,20260326-152810,global,local,750,S,H,E,E,S-E.png,E-H.png,sS,hH,mask-2.png,mask-1.png,s,1,1.0294651999138296,h,1,0.09496899996884167,0.0988190999487415,0.09852969995699823,0.19885239994619042,0.1984535000519827,0.7512507999781519
RSVPLG03,si,20260326-152713,1.0.2,20260219-152011,814,Introduction,Both,1,Automatic,main,7,20260326-152816,local,local,750,H,S,E,A,E-H.png,A-S.png,hH,sS,mask-4.png,mask-4.png,h,1,1.3620116000529379,s,1,0.17657260003034025,0.10057510004844517,0.10094019991811365,0.2016398999840021,0.20147799991536885,0.7515038000419736
RSVPLG03,si,20260326-152713,1.0.2,20260219-152011,814,Introduction,Both,1,Automatic,main,8,20260326-152822,global,local,750,S,S,A,E,S-A.png,E-S.png,sS,sS,mask-2.png,mask-4.png,s,1,1.0455877999775112,h,0,0.06305340002290905,0.10147970006801188,0.09975689998827875,0.2003706000978127,0.20112810004502535,0.7505284000653774
RSVPLG03,si,20260326-152713,1.0.2,20260219-152011,814,Introduction,Both,1,Automatic,main,9,20260326-152827,global,global,750,H,H,E,A,H-E.png,H-A.png,hH,hH,mask-3.png,mask-3.png,h,1,0.9849001000402495,h,1,0.18621930002700537,0.0990250000031665,0.09992740000598133,0.20003409998025745,0.19976270000915974,0.7503279000520706
RSVPLG03,si,20260326-152713,1.0.2,20260219-152011,814,Introduction,Both,1,Automatic,main,10,20260326-152833,local,local,750,H,H,A,A,A-H.png,A-H.png,hH,hH,mask-2.png,mask-1.png,h,1,0.7327801000792533,h,1,0.23830670001916587,0.10155919997487217,0.09892580006271601,0.19990090001374483,0.19875159999355674,0.7512642999645323
RSVPLG03,si,20260326-152713,1.0.2,20260219-152011,814,Introduction,Both,1,Automatic,main,11,20260326-152838,local,global,750,S,H,E,A,E-S.png,H-A.png,sS,hH,mask-1.png,mask-3.png,s,1,0.5130812999559566,h,1,0.17759850004222244,0.10178660007659346,0.10039499995764345,0.20119809999596328,0.19998799997847527,0.7519584000110626
RSVPLG03,si,20260326-152713,1.0.2,20260219-152011,814,Introduction,Both,1,Automatic,main,12,20260326-152843,global,global,750,S,S,E,E,S-E.png,S-E.png,sS,sS,mask-3.png,mask-2.png,s,1,1.073843099991791,s,1,0.15548680000938475,0.10025959997437894,0.10022979998029768,0.20032870001159608,0.19945820001885295,0.7529094000346959
RSVPLG03,si,20260326-152713,1.0.2,20260219-152011,814,Introduction,Both,1,Automatic,main,13,20260326-152849,local,local,750,H,S,A,A,A-H.png,A-S.png,hH,sS,mask-2.png,mask-4.png,h,1,0.8007098999805748,h,0,0.1753733999794349,0.09893959993496537,0.0995276999892667,0.2001510999398306,0.20062699995469302,0.7506387999746948
RSVPLG03,si,20260326-152713,1.0.2,20260219-152011,814,Introduction,Both,1,Automatic,main,14,20260326-152854,global,local,750,S,S,A,E,S-A.png,E-S.png,sS,sS,mask-3.png,mask-1.png,s,1,1.024309300002642,s,1,0.09472319995984435,0.09970549994613975,0.10161579994019121,0.20104819990228862,0.201134099974297,0.7497675999766216
RSVPLG03,si,20260326-152713,1.0.2,20260219-152011,814,Introduction,Both,1,Automatic,main,15,20260326-152859,local,global,750,S,H,E,E,E-S.png,H-E.png,sS,hH,mask-2.png,mask-3.png,s,1,0.35882529988884926,h,1,0.1926721999188885,0.09893749991897494,0.0993049000389874,0.20091140002477914,0.2007253000047058,0.751140599953942
RSVPLG03,si,20260326-152713,1.0.2,20260219-152011,814,Introduction,Both,1,Automatic,main,16,20260326-152904,global,global,750,H,H,A,E,H-A.png,H-E.png,hH,hH,mask-1.png,mask-3.png,h,1,0.8173665999202058,h,1,0.07979600003454834,0.10002160002477467,0.10077390004880726,0.19964869995601475,0.20166230003815144,0.7506814999505877
RSVPLG03,si,20260326-152952,1.0.2,20260219-152011,814,Practice,Both,1,Automatic,main,1,20260326-153013,global,global,750,S,H,E,A,S-E.png,H-A.png,sS,hH,mask-3.png,mask-3.png,s,1,0.8564281000290066,h,1,0.99961409997195,0.0440876999637112,0.04977409995626658,0.09401960007380694,0.10035209998022765,0.7436300000408664
RSVPLG03,si,20260326-152952,1.0.2,20260219-152011,814,Practice,Both,1,Automatic,main,2,20260326-153018,local,local,750,S,S,A,E,A-S.png,E-S.png,sS,sS,mask-1.png,mask-3.png,h,0,0.936497800052166,s,1,0.0014733000425621867,0.0491405000211671,0.0520016000373289,0.09878010000102222,0.10195729997940361,0.7480662000598386
RSVPLG03,si,20260326-152952,1.0.2,20260219-152011,814,Practice,Both,1,Automatic,main,3,20260326-153023,global,global,300,S,H,A,A,S-A.png,H-A.png,sS,hH,mask-2.png,mask-2.png,s,1,0.9596916999435052,h,1,0.13821100001223385,0.04988139995839447,0.049381199991330504,0.09969970001839101,0.0988884000107646,0.2990006000036374
RSVPLG03,si,20260326-152952,1.0.2,20260219-152011,814,Practice,Both,1,Automatic,main,4,20260326-153028,global,global,750,S,S,E,E,S-E.png,S-E.png,sS,sS,mask-1.png,mask-4.png,s,1,0.7333189999917522,s,1,0.08977870002854615,0.050114699988625944,0.04881449998356402,0.0996000999584794,0.09816659998614341,0.748883799999021
RSVPLG03,si,20260326-152952,1.0.2,20260219-152011,814,Practice,Both,1,Automatic,main,5,20260326-153033,local,global,750,H,S,A,A,A-H.png,S-A.png,hH,sS,mask-4.png,mask-2.png,h,1,0.8935956000350416,s,1,0.00018850003834813833,0.05053310003131628,0.05093109991867095,0.10016280005220324,0.10003480000887066,0.7483904000837356
RSVPLG03,si,20260326-152952,1.0.2,20260219-152011,814,Practice,Both,1,Automatic,main,6,20260326-153038,global,local,300,S,S,E,A,S-E.png,A-S.png,sS,sS,mask-1.png,mask-4.png,s,1,0.6492159999907017,h,0,0.02866750000976026,0.049640499986708164,0.047727599972859025,0.09976790007203817,0.09646989998873323,0.3019856000319123
RSVPLG03,si,20260326-152952,1.0.2,20260219-152011,814,Practice,Both,1,Automatic,main,7,20260326-153042,local,local,750,S,H,E,A,E-S.png,A-H.png,sS,hH,mask-2.png,mask-2.png,s,1,0.6906237999210134,h,1,0.02368039998691529,0.049341300036758184,0.05075850000139326,0.09978570009116083,0.09974490001332015,0.7486518000951037
RSVPLG03,si,20260326-152952,1.0.2,20260219-152011,814,Practice,Both,1,Automatic,main,8,20260326-153047,global,local,300,S,S,A,A,S-A.png,A-S.png,sS,sS,mask-2.png,mask-1.png,s,1,0.9360424000769854,s,1,0.07718059991020709,0.05106950004119426,0.04846320010256022,0.10034540004562587,0.09850280010141432,0.2999333000043407
RSVPLG03,si,20260326-152952,1.0.2,20260219-152011,814,Practice,Both,1,Automatic,main,9,20260326-153052,local,global,300,S,H,A,A,A-S.png,H-A.png,sS,hH,mask-2.png,mask-1.png,s,1,1.192148600006476,s,0,0.24147669994272292,0.04885599995031953,0.050367699936032295,0.09885539999231696,0.10021720000077039,0.2977643000194803
RSVPLG03,si,20260326-152952,1.0.2,20260219-152011,814,Practice,Both,1,Automatic,main,10,20260326-153057,global,global,300,S,S,A,E,S-A.png,S-E.png,sS,sS,mask-3.png,mask-1.png,s,1,0.974290500045754,s,1,0.08589719992596656,0.04943699995055795,0.049820000072941184,0.09804329997859895,0.09841940004844218,0.30011839990038425
RSVPLG03,si,20260326-152952,1.0.2,20260219-152011,814,Practice,Both,1,Automatic,main,11,20260326-153102,local,global,300,H,S,E,A,E-H.png,S-A.png,hH,sS,mask-3.png,mask-4.png,h,1,1.1222219000337645,s,1,0.047034199931658804,0.050492600072175264,0.04774509998969734,0.10202780005056411,0.09790359996259212,0.3019758000737056
RSVPLG03,si,20260326-152952,1.0.2,20260219-152011,814,Practice,Both,1,Automatic,main,12,20260326-153107,global,local,750,H,H,E,E,H-E.png,E-H.png,hH,hH,mask-3.png,mask-2.png,h,1,0.46095779992174357,s,0,0.008119500009343028,0.049302399973385036,0.05007540003862232,0.09949279995635152,0.09988260001409799,0.7493091999785975
RSVPLG03,si,20260326-152952,1.0.2,20260219-152011,814,Practice,Both,1,Automatic,main,13,20260326-153111,local,local,300,S,S,E,E,E-S.png,E-S.png,sS,sS,mask-1.png,mask-1.png,s,1,1.1002006999915466,s,1,0.08202680002432317,0.04978020000271499,0.04927269998006523,0.10055660002399236,0.09927290002815425,0.3003951000282541
RSVPLG03,si,20260326-152952,1.0.2,20260219-152011,814,Practice,Both,1,Automatic,main,14,20260326-153116,global,local,750,S,H,A,E,S-A.png,E-H.png,sS,hH,mask-4.png,mask-1.png,s,1,0.4356199000030756,h,1,0.603570600040257,0.04844569996930659,0.05021340004168451,0.09876019996590912,0.10071370005607605,0.7466622999636456
RSVPLG03,si,20260326-152952,1.0.2,20260219-152011,814,Practice,Both,1,Automatic,main,15,20260326-153121,local,global,750,S,H,A,E,A-S.png,H-E.png,sS,hH,mask-1.png,mask-3.png,h,0,0.9470256000058725,h,1,0.0755448000272736,0.04911260004155338,0.049420899944379926,0.09890620002988726,0.09955619997344911,0.7485374000389129
RSVPLG03,si,20260326-152952,1.0.2,20260219-152011,814,Practice,Both,1,Automatic,main,16,20260326-153126,local,local,300,S,H,A,A,A-S.png,A-H.png,sS,hH,mask-4.png,mask-4.png,s,1,0.48109809996094555,h,1,0.034708900027908385,0.05063379998318851,0.050139799946919084,0.10175049991812557,0.09889029990881681,0.2984675000188872
RSVPLG03,si,20260326-153211,1.0.2,20260219-152011,814,Experiment,Both,1,Automatic,warmup,1,20260326-153236,global,global,750,S,S,A,A,S-A.png,S-A.png,sS,sS,mask-2.png,mask-2.png,s,1,1.1790865999646485,s,1,0.20435549993999302,0.04402869998011738,0.04963560006581247,0.09518890001345426,0.10109420004300773,0.7442529000109062
RSVPLG03,si,20260326-153211,1.0.2,20260219-152011,814,Experiment,Both,1,Automatic,warmup,2,20260326-153242,local,global,750,S,S,E,A,E-S.png,S-A.png,sS,sS,mask-4.png,mask-2.png,s,1,0.3115735000465065,s,1,0.10567030007950962,0.05019540002103895,0.05138019996229559,0.09971060010138899,0.09995859989430755,0.7479799001011997
RSVPLG03,si,20260326-153211,1.0.2,20260219-152011,814,Experiment,Both,1,Automatic,warmup,3,20260326-153246,local,global,300,S,S,E,E,E-S.png,S-E.png,sS,sS,mask-3.png,mask-2.png,s,1,0.292189700063318,s,1,0.13892940001096576,0.05010230001062155,0.04904090007767081,0.10010010004043579,0.10055840003769845,0.2998060999670997
RSVPLG03,si,20260326-153211,1.0.2,20260219-152011,814,Experiment,Both,1,Automatic,warmup,4,20260326-153251,local,local,750,S,S,A,E,A-S.png,E-S.png,sS,sS,mask-2.png,mask-2.png,h,0,0.36900209996383637,s,1,0.04701690003275871,0.048970900010317564,0.04986629995983094,0.0987211000174284,0.09961769997607917,0.7484117000130937
RSVPLG03,si,20260326-153211,1.0.2,20260219-152011,814,Experiment,Both,1,Automatic,main,5,20260326-153255,global,global,300,H,H,E,A,H-E.png,H-A.png,hH,hH,mask-1.png,mask-2.png,h,1,0.955136299948208,h,1,0.06386859994381666,0.05150659999344498,0.05020459997467697,0.10095120000187308,0.09925630001816899,0.30071620002854615
RSVPLG03,si,20260326-153211,1.0.2,20260219-152011,814,Experiment,Both,1,Automatic,main,6,20260326-153300,global,global,300,S,S,A,A,S-A.png,S-A.png,sS,sS,mask-3.png,mask-1.png,s,1,0.36602750001475215,s,1,0.06356189993675798,0.050906100077554584,0.048532099928706884,0.0987898000748828,0.09811199991963804,0.29949900007341057
RSVPLG03,si,20260326-153211,1.0.2,20260219-152011,814,Experiment,Both,1,Automatic,main,7,20260326-153304,local,global,750,H,H,A,A,A-H.png,H-A.png,hH,hH,mask-4.png,mask-1.png,h,1,0.24008650006726384,h,1,0.07267919997684658,0.04887260007672012,0.0498143999138847,0.09907160000875592,0.09924319991841912,0.7479279000544921
RSVPLG03,si,20260326-153211,1.0.2,20260219-152011,814,Experiment,Both,1,Automatic,main,8,20260326-153309,local,global,300,H,S,E,A,E-H.png,S-A.png,hH,sS,mask-1.png,mask-2.png,h,1,0.27726610004901886,s,1,0.038879600004293025,0.05036409990862012,0.05122490006033331,0.1001966999610886,0.10098630003631115,0.29949599993415177
RSVPLG03,si,20260326-153211,1.0.2,20260219-152011,814,Experiment,Both,1,Automatic,main,9,20260326-153313,local,local,300,H,S,A,A,A-H.png,A-S.png,hH,sS,mask-4.png,mask-4.png,h,1,0.40284380002412945,h,0,0.09820150001905859,0.05046189995482564,0.05266509996727109,0.10061909991782159,0.10044970002491027,0.2995872999308631
RSVPLG03,si,20260326-153211,1.0.2,20260219-152011,814,Experiment,Both,1,Automatic,main,10,20260326-153317,global,local,750,S,H,A,A,S-A.png,A-H.png,sS,hH,mask-4.png,mask-2.png,s,1,0.2952598000410944,h,1,0.07439149997662753,0.04878900002222508,0.05134790006559342,0.1001294000307098,0.10112640005536377,0.7481618999736384
RSVPLG03,si,20260326-153211,1.0.2,20260219-152011,814,Experiment,Both,1,Automatic,main,11,20260326-153321,global,local,750,S,H,E,A,S-E.png,A-H.png,sS,hH,mask-1.png,mask-4.png,s,1,0.36285989999305457,h,1,0.5146652000257745,0.0490433000959456,0.050628600060008466,0.09978120005689561,0.10045630007516593,0.7489146000007167
RSVPLG03,si,20260326-153211,1.0.2,20260219-152011,814,Experiment,Both,1,Automatic,main,12,20260326-153326,global,local,300,H,H,A,E,H-A.png,E-H.png,hH,hH,mask-4.png,mask-3.png,h,1,0.3771238001063466,s,0,0.09388369997031987,0.05041409994009882,0.04868669994175434,0.10117989999707788,0.09890799992717803,0.29885420005302876
RSVPLG03,si,20260326-153211,1.0.2,20260219-152011,814,Experiment,Both,1,Automatic,main,13,20260326-153330,local,global,750,S,H,E,E,E-S.png,H-E.png,sS,hH,mask-2.png,mask-1.png,s,1,0.7336526999715716,h,1,0.011407799902372062,0.050061300047673285,0.05057860002852976,0.10003480000887066,0.0990008000517264,0.7497245999984443
RSVPLG03,si,20260326-153211,1.0.2,20260219-152011,814,Experiment,Both,1,Automatic,main,14,20260326-153335,local,local,750,H,H,E,E,E-H.png,E-H.png,hH,hH,mask-3.png,mask-3.png,h,1,0.2939542999956757,s,0,0.037672200007364154,0.04925389995332807,0.049563499982468784,0.0998431999469176,0.09941230004187673,0.7483890999574214
RSVPLG03,si,20260326-153211,1.0.2,20260219-152011,814,Experiment,Both,1,Automatic,main,15,20260326-153340,local,global,750,S,H,A,A,A-S.png,H-A.png,sS,hH,mask-2.png,mask-1.png,s,1,0.3090837000636384,h,1,0.0742798000574112,0.049187100026756525,0.048982599982991815,0.09950240002945065,0.09903220005799085,0.7488327999599278
RSVPLG03,si,20260326-153211,1.0.2,20260219-152011,814,Experiment,Both,1,Automatic,main,16,20260326-153344,local,global,750,H,H,A,A,A-H.png,H-A.png,hH,hH,mask-3.png,mask-2.png,h,1,0.38926209998317063,h,1,0.09786290000192821,0.04988840001169592,0.04930190008599311,0.09977989993058145,0.09842719999141991,0.7490444999421015
RSVPLG03,si,20260326-153211,1.0.2,20260219-152011,814,Experiment,Both,1,Automatic,main,17,20260326-153349,global,global,300,S,H,E,A,S-E.png,H-A.png,sS,hH,mask-1.png,mask-3.png,s,1,0.3518702000146732,h,1,0.05886220000684261,0.04966360004618764,0.05080129997804761,0.1008315000217408,0.10052840004209429,0.29881760000716895
RSVPLG03,si,20260326-153211,1.0.2,20260219-152011,814,Experiment,Both,1,Automatic,main,18,20260326-153353,local,local,750,H,S,A,A,A-H.png,A-S.png,hH,sS,mask-4.png,mask-4.png,h,1,0.6498442998854443,h,0,0.0977901000296697,0.05127450008876622,0.05005720001645386,0.09994500002358109,0.09870590001810342,0.7499942000722513
RSVPLG03,si,20260326-153211,1.0.2,20260219-152011,814,Experiment,Both,1,Automatic,main,19,20260326-153358,global,global,750,S,S,A,A,S-A.png,S-A.png,sS,sS,mask-3.png,mask-1.png,s,1,0.8182078000390902,s,1,0.12636270001530647,0.049637199961580336,0.04943700006697327,0.10060419992078096,0.09862050006631762,0.7494529999094084
RSVPLG03,si,20260326-153211,1.0.2,20260219-152011,814,Experiment,Both,1,Automatic,main,20,20260326-153403,local,local,750,H,S,A,E,A-H.png,E-S.png,hH,sS,mask-3.png,mask-2.png,h,1,1.1378453000215814,h,0,0.08153409999795258,0.04971239995211363,0.049764900002628565,0.1006487999111414,0.10014570003841072,0.7490137999411672
RSVPLG03,si,20260326-153211,1.0.2,20260219-152011,814,Experiment,Both,1,Automatic,main,21,20260326-153408,local,global,300,H,S,E,A,E-H.png,S-A.png,hH,sS,mask-3.png,mask-2.png,h,1,1.0040163999656215,h,0,0.08260790002532303,0.05039680004119873,0.051764799980446696,0.09993420005775988,0.10192719998303801,0.298844899982214
RSVPLG03,si,20260326-153211,1.0.2,20260219-152011,814,Experiment,Both,1,Automatic,main,22,20260326-153413,local,global,300,H,S,E,A,E-H.png,S-A.png,hH,sS,mask-3.png,mask-3.png,s,0,0.6637820000760257,h,0,0.5975907000247389,0.049074500100687146,0.05038929998409003,0.09905340010300279,0.10028040001634508,0.29960590007249266
RSVPLG03,si,20260326-153211,1.0.2,20260219-152011,814,Experiment,Both,1,Automatic,main,23,20260326-153418,global,global,750,H,S,A,E,H-A.png,S-E.png,hH,sS,mask-1.png,mask-4.png,h,1,0.29907089995685965,s,1,0.040214400039985776,0.049233200028538704,0.05073899996932596,0.0985023999819532,0.10065010003745556,0.7475863000145182
RSVPLG03,si,20260326-153211,1.0.2,20260219-152011,814,Experiment,Both,1,Automatic,main,24,20260326-153423,local,global,750,H,S,E,A,E-H.png,S-A.png,hH,sS,mask-1.png,mask-2.png,s,0,1.2223611999070272,s,1,0.08018129994161427,0.05125929997302592,0.04890299995895475,0.09900419996120036,0.09899710002355278,0.7495850999839604
RSVPLG03,si,20260326-153211,1.0.2,20260219-152011,814,Experiment,Both,1,Automatic,main,25,20260326-153428,global,local,300,H,H,A,E,H-A.png,E-H.png,hH,hH,mask-2.png,mask-2.png,h,1,0.6751174000091851,s,0,0.03227820002939552,0.048930699937045574,0.04983069992158562,0.09831049991771579,0.1014000999275595,0.2976125000277534
RSVPLG03,si,20260326-153211,1.0.2,20260219-152011,814,Experiment,Both,1,Automatic,main,26,20260326-153446,global,local,300,S,H,A,E,S-A.png,E-H.png,sS,hH,mask-1.png,mask-1.png,h,0,1.486479900078848,s,0,0.1422759999986738,0.05028079997282475,0.05058460007421672,0.09928229998331517,0.10066090000327677,0.2996484999312088
RSVPLG03,si,20260326-153211,1.0.2,20260219-152011,814,Experiment,Both,1,Automatic,main,27,20260326-153451,global,global,750,H,S,A,E,H-A.png,S-E.png,hH,sS,mask-1.png,mask-4.png,h,1,0.33822260005399585,h,0,0.10512900003232062,0.05087839998304844,0.04884000006131828,0.1000167999882251,0.09868130006361753,0.7507823999039829
RSVPLG03,si,20260326-153211,1.0.2,20260219-152011,814,Experiment,Both,1,Automatic,main,28,20260326-153456,global,global,750,H,S,A,E,H-A.png,S-E.png,hH,sS,mask-2.png,mask-2.png,h,1,0.3332335000159219,s,1,0.033501400030218065,0.04894629993941635,0.049449400044977665,0.09911239997018129,0.10055269999429584,0.7469384999712929
RSVPLG03,si,20260326-153211,1.0.2,20260219-152011,814,Experiment,Both,1,Automatic,main,29,20260326-153501,global,global,300,H,H,A,A,H-A.png,H-A.png,hH,hH,mask-1.png,mask-3.png,h,1,0.3850110999774188,h,1,0.089263099944219,0.049064100021496415,0.05110459995921701,0.09782979998271912,0.10082519997376949,0.2972929000388831
RSVPLG03,si,20260326-153211,1.0.2,20260219-152011,814,Experiment,Both,1,Automatic,main,30,20260326-153505,local,global,300,S,H,A,A,A-S.png,H-A.png,sS,hH,mask-4.png,mask-2.png,h,0,0.5798051999881864,h,1,0.06726140005048364,0.05011479998938739,0.04857119999360293,0.10000269999727607,0.09995329997036606,0.30077269999310374
RSVPLG03,si,20260326-153211,1.0.2,20260219-152011,814,Experiment,Both,1,Automatic,main,31,20260326-153509,local,local,300,H,S,E,E,E-H.png,E-S.png,hH,sS,mask-1.png,mask-3.png,h,1,0.8629546000156552,s,1,0.08753549994435161,0.04878129996359348,0.050088000018149614,0.09964579995721579,0.10111230006441474,0.2976760999299586
RSVPLG03,si,20260326-153211,1.0.2,20260219-152011,814,Experiment,Both,1,Automatic,main,32,20260326-153514,global,local,750,H,S,E,A,H-E.png,A-S.png,hH,sS,mask-2.png,mask-4.png,h,1,1.3066715999739245,s,1,0.10291090002283454,0.04981890006456524,0.05034539999905974,0.0988325000507757,0.10028130002319813,0.7480651000514627
RSVPLG03,si,20260326-153211,1.0.2,20260219-152011,814,Experiment,Both,1,Automatic,main,33,20260326-153519,local,global,750,S,S,E,E,E-S.png,S-E.png,sS,sS,mask-1.png,mask-4.png,h,0,0.3284236000617966,h,0,0.20240369997918606,0.04965890001039952,0.050022599985823035,0.1009754000697285,0.10014860006049275,0.7476331000216305
RSVPLG03,si,20260326-153211,1.0.2,20260219-152011,814,Experiment,Both,1,Automatic,main,34,20260326-153524,local,global,300,H,H,E,A,E-H.png,H-A.png,hH,hH,mask-3.png,mask-3.png,s,0,0.8586863999953493,h,1,0.025387700065039098,0.050569199956953526,0.04995349992532283,0.1000863000517711,0.10016039991751313,0.30149660003371537
RSVPLG03,si,20260326-153211,1.0.2,20260219-152011,814,Experiment,Both,1,Automatic,main,35,20260326-153528,global,local,750,H,S,E,E,H-E.png,E-S.png,hH,sS,mask-4.png,mask-4.png,h,1,0.9944309000857174,h,0,0.06975639995653182,0.04976580000948161,0.05116570007521659,0.0987205000128597,0.099733000039123,0.7474813000299037
RSVPLG03,si,20260326-153211,1.0.2,20260219-152011,814,Experiment,Both,1,Automatic,main,36,20260326-153534,local,local,750,H,S,A,E,A-H.png,E-S.png,hH,sS,mask-2.png,mask-2.png,h,1,0.21041990001685917,s,1,0.0314296999713406,0.049521900014951825,0.04796210001222789,0.10014339990448207,0.0999751000199467,0.7498964999103919
RSVPLG03,si,20260326-153211,1.0.2,20260219-152011,814,Experiment,Both,1,Automatic,main,37,20260326-153538,global,global,300,S,H,A,A,S-A.png,H-A.png,sS,hH,mask-4.png,mask-1.png,s,1,0.9603282000171021,h,1,0.015515699982643127,0.049758799956180155,0.048903899965807796,0.1012592000188306,0.09992179996334016,0.29964350000955164
RSVPLG03,si,20260326-153211,1.0.2,20260219-152011,814,Experiment,Both,1,Automatic,main,38,20260326-153543,global,local,300,H,H,E,A,H-E.png,A-H.png,hH,hH,mask-1.png,mask-1.png,h,1,0.8698808000190184,h,1,0.06718130002263933,0.053209500038065016,0.049416900030337274,0.10109350003767759,0.1018121000379324,0.29948719998355955
RSVPLG03,si,20260326-153211,1.0.2,20260219-152011,814,Experiment,Both,1,Automatic,main,39,20260326-153547,local,local,300,S,S,E,E,E-S.png,E-S.png,sS,sS,mask-3.png,mask-4.png,s,1,0.8152462000725791,s,1,0.06741529994178563,0.0497007000958547,0.050883600022643805,0.09826100000645965,0.10017320001497865,0.2982542000245303
RSVPLG03,si,20260326-153211,1.0.2,20260219-152011,814,Experiment,Both,1,Automatic,main,40,20260326-153552,local,global,300,S,S,E,A,E-S.png,S-A.png,sS,sS,mask-4.png,mask-1.png,s,1,0.36960740003269166,s,1,0.05218919995240867,0.04924839991144836,0.05124529998283833,0.10072149999905378,0.10035339999012649,0.29809960001148283
RSVPLG03,si,20260326-153211,1.0.2,20260219-152011,814,Experiment,Both,1,Automatic,main,41,20260326-153556,global,local,300,H,S,A,E,H-A.png,E-S.png,hH,sS,mask-3.png,mask-1.png,h,1,0.3176232000114396,s,1,0.04848240001592785,0.05081330006942153,0.04941610002424568,0.09916260000318289,0.09960549999959767,0.2988996000494808
RSVPLG03,si,20260326-153211,1.0.2,20260219-152011,814,Experiment,Both,1,Automatic,main,42,20260326-153600,local,global,300,H,S,A,E,A-H.png,S-E.png,hH,sS,mask-1.png,mask-3.png,h,1,0.33956079999916255,s,1,0.017447700025513768,0.049052200047299266,0.047978000016883016,0.09901760006323457,0.09868659998755902,0.30136340006720275
RSVPLG03,si,20260326-153211,1.0.2,20260219-152011,814,Experiment,Both,1,Automatic,main,43,20260326-153604,local,local,300,H,S,A,E,A-H.png,E-S.png,hH,sS,mask-3.png,mask-3.png,h,1,0.24517210002522916,s,1,0.061835199943743646,0.049782500020228326,0.049286199966445565,0.10014360002242029,0.10063100000843406,0.2987967000808567
RSVPLG03,si,20260326-153211,1.0.2,20260219-152011,814,Experiment,Both,1,Automatic,main,44,20260326-153608,global,global,300,H,S,E,E,H-E.png,S-E.png,hH,sS,mask-1.png,mask-1.png,h,1,0.2312108000041917,s,1,0.6408267000224441,0.049721799907274544,0.04881880001630634,0.10006779991090298,0.09877449995838106,0.299055999959819
RSVPLG03,si,20260326-153211,1.0.2,20260219-152011,814,Experiment,Both,1,Automatic,main,45,20260326-153612,global,global,300,S,S,E,E,S-E.png,S-E.png,sS,sS,mask-1.png,mask-1.png,s,1,0.3655665999976918,s,1,0.05797169997822493,0.04789709998294711,0.049960199976339936,0.09940099995583296,0.10052709991578013,0.29890890000388026
RSVPLG03,si,20260326-153211,1.0.2,20260219-152011,814,Experiment,Both,1,Automatic,main,46,20260326-153617,local,local,750,H,S,E,E,E-H.png,E-S.png,hH,sS,mask-2.png,mask-1.png,s,0,0.26028100005351007,s,1,0.05681670003104955,0.048945399932563305,0.050842100055888295,0.10030109994113445,0.10101970005780458,0.7474382999353111
RSVPLG03,si,20260326-153211,1.0.2,20260219-152011,814,Experiment,Both,1,Automatic,main,47,20260326-153621,local,local,750,H,S,E,E,E-H.png,E-S.png,hH,sS,mask-3.png,mask-2.png,h,1,0.2558045000769198,s,1,0.08970629994291812,0.050355899962596595,0.048607700038701296,0.10089120001066476,0.09908980003092438,0.7502940999111161
RSVPLG03,si,20260326-153211,1.0.2,20260219-152011,814,Experiment,Both,1,Automatic,main,48,20260326-153626,global,global,300,S,H,A,E,S-A.png,H-E.png,sS,hH,mask-1.png,mask-1.png,s,1,0.26015980006195605,h,1,0.06114870007149875,0.049714900087565184,0.0501211000373587,0.09970620006788522,0.09991160000208765,0.30085850006435066
RSVPLG03,si,20260326-153211,1.0.2,20260219-152011,814,Experiment,Both,1,Automatic,main,49,20260326-153630,global,local,750,H,H,A,A,H-A.png,A-H.png,hH,hH,mask-1.png,mask-4.png,h,1,0.8021564000518993,s,0,0.22042859997600317,0.048633099999278784,0.04961029998958111,0.09855560003779829,0.1004530000500381,0.7485691000474617
RSVPLG03,si,20260326-153211,1.0.2,20260219-152011,814,Experiment,Both,1,Automatic,main,50,20260326-153635,local,global,300,H,H,A,E,A-H.png,H-E.png,hH,hH,mask-4.png,mask-2.png,h,1,0.2565749000059441,h,1,0.08165920001920313,0.049147100071422756,0.04964390001259744,0.09899710002355278,0.10097499995026737,0.2985069000860676
RSVPLG03,si,20260326-153211,1.0.2,20260219-152011,814,Experiment,Both,1,Automatic,main,51,20260326-153646,global,global,750,H,H,A,A,H-A.png,H-A.png,hH,hH,mask-1.png,mask-3.png,h,1,0.6413039000472054,h,1,0.040817499975673854,0.05084269994404167,0.05203809996601194,0.10007010004483163,0.10021129995584488,0.7484456000383943
RSVPLG03,si,20260326-153211,1.0.2,20260219-152011,814,Experiment,Both,1,Automatic,main,52,20260326-153651,global,local,300,S,S,A,A,S-A.png,A-S.png,sS,sS,mask-1.png,mask-4.png,s,1,0.4375400999560952,h,0,0.6061987000284716,0.05065930006094277,0.05129139998462051,0.10186779999639839,0.10149619996082038,0.2999268000712618
RSVPLG03,si,20260326-153211,1.0.2,20260219-152011,814,Experiment,Both,1,Automatic,main,53,20260326-153656,local,local,750,S,S,E,A,E-S.png,A-S.png,sS,sS,mask-1.png,mask-3.png,s,1,0.9426332000875846,h,0,1.0782061000354588,0.050031599937938154,0.04895179998129606,0.10109719994943589,0.09851829998660833,0.7499122999142855
RSVPLG03,si,20260326-153211,1.0.2,20260219-152011,814,Experiment,Both,1,Automatic,main,54,20260326-153701,global,local,300,H,H,E,E,H-E.png,E-H.png,hH,hH,mask-4.png,mask-4.png,s,0,0.672053899965249,h,1,0.7998243999900296,0.04830909997690469,0.05122030002530664,0.09775669989176095,0.10081880004145205,0.2983180999290198
RSVPLG03,si,20260326-153211,1.0.2,20260219-152011,814,Experiment,Both,1,Automatic,main,55,20260326-153705,global,local,300,S,H,E,A,S-E.png,A-H.png,sS,hH,mask-4.png,mask-3.png,s,1,0.32907800003886223,s,0,0.05378209997434169,0.048664200003258884,0.04876760009210557,0.09822130005341023,0.09841289999894798,0.3000240999972448
RSVPLG03,si,20260326-153211,1.0.2,20260219-152011,814,Experiment,Both,1,Automatic,main,56,20260326-153709,global,global,300,S,H,A,A,S-A.png,H-A.png,sS,hH,mask-2.png,mask-4.png,s,1,0.4387617000611499,h,1,0.04401599999982864,0.049766500014811754,0.049501199973747134,0.09990440006367862,0.09832790005020797,0.3000723000150174
RSVPLG03,si,20260326-153211,1.0.2,20260219-152011,814,Experiment,Both,1,Automatic,main,57,20260326-153713,global,local,300,H,H,A,E,H-A.png,E-H.png,hH,hH,mask-1.png,mask-3.png,s,0,0.36199170001782477,h,1,0.018407800002023578,0.0486308999825269,0.0491088000126183,0.09802149992901832,0.09969269996508956,0.29772359994240105
RSVPLG03,si,20260326-153211,1.0.2,20260219-152011,814,Experiment,Both,1,Automatic,main,58,20260326-153718,global,global,750,H,S,E,A,H-E.png,S-A.png,hH,sS,mask-1.png,mask-1.png,s,0,1.3247067000484094,h,0,0.08291260001715273,0.05000269995070994,0.047533800010569394,0.10040270001627505,0.09789829992223531,0.7513323000166565
RSVPLG03,si,20260326-153211,1.0.2,20260219-152011,814,Experiment,Both,1,Automatic,main,59,20260326-153723,local,global,300,H,S,E,A,E-H.png,S-A.png,hH,sS,mask-2.png,mask-1.png,h,1,7.202015000046231,s,1,0.0020000000949949026,0.049268499948084354,0.05090289993677288,0.09865719999652356,0.10038159997202456,0.2985847999807447
RSVPLG03,si,20260326-153211,1.0.2,20260219-152011,814,Experiment,Both,1,Automatic,main,60,20260326-153734,global,local,750,H,H,E,E,H-E.png,E-H.png,hH,hH,mask-3.png,mask-4.png,h,1,1.0150064000627026,s,0,0.009483200032263994,0.04899169993586838,0.04923370003234595,0.09941859997343272,0.10138430004008114,0.7489516999339685
RSVPLG03,si,20260326-153211,1.0.2,20260219-152011,814,Experiment,Both,1,Automatic,main,61,20260326-153739,global,global,300,S,H,A,E,S-A.png,H-E.png,sS,hH,mask-4.png,mask-1.png,s,1,0.6874784999527037,h,1,0.12746110011357814,0.050770599977113307,0.04884419997688383,0.10163499996997416,0.09850850002840161,0.30151769996155053
RSVPLG03,si,20260326-153211,1.0.2,20260219-152011,814,Experiment,Both,1,Automatic,main,62,20260326-153744,local,local,300,H,S,A,E,A-H.png,E-S.png,hH,sS,mask-2.png,mask-2.png,h,1,0.7309683000203222,s,1,0.012674600002355874,0.05073150002863258,0.05188429995905608,0.09998269996140152,0.1008231999585405,0.3001552000641823
RSVPLG03,si,20260326-153211,1.0.2,20260219-152011,814,Experiment,Both,1,Automatic,main,63,20260326-153748,local,local,750,S,S,E,A,E-S.png,A-S.png,sS,sS,mask-4.png,mask-4.png,s,1,0.4046402999665588,h,0,0.5362684999126941,0.050169400055892766,0.05098669999279082,0.09994800004642457,0.10065899998880923,0.7490569000365213
RSVPLG03,si,20260326-153211,1.0.2,20260219-152011,814,Experiment,Both,1,Automatic,main,64,20260326-153753,local,local,300,S,H,A,E,A-S.png,E-H.png,sS,hH,mask-1.png,mask-2.png,s,1,0.5753431000048295,h,1,0.7034881000872701,0.04760549997445196,0.05042660003527999,0.09857509995345026,0.10114669997710735,0.2976550000021234
RSVPLG03,si,20260326-153211,1.0.2,20260219-152011,814,Experiment,Both,1,Automatic,main,65,20260326-153757,global,global,750,H,S,A,A,H-A.png,S-A.png,hH,sS,mask-4.png,mask-4.png,s,0,0.8043047999963164,s,1,0.06421430001500994,0.04950369999278337,0.05076959996949881,0.10053120006341487,0.09996750007849187,0.7489580999827012
RSVPLG03,si,20260326-153211,1.0.2,20260219-152011,814,Experiment,Both,1,Automatic,main,66,20260326-153802,local,global,750,S,S,E,A,E-S.png,S-A.png,sS,sS,mask-2.png,mask-2.png,s,1,0.9627817999571562,s,1,0.06368570006452501,0.04985920002218336,0.049560399958863854,0.1006504000397399,0.09817739995196462,0.7522581000812352
RSVPLG03,si,20260326-153211,1.0.2,20260219-152011,814,Experiment,Both,1,Automatic,main,67,20260326-153808,local,global,300,H,S,A,E,A-H.png,S-E.png,hH,sS,mask-3.png,mask-2.png,h,1,0.6964927000226453,s,1,0.8401522000785917,0.049173800041899085,0.04990059998817742,0.10093710001092404,0.09989980002865195,0.2983422999968752
RSVPLG03,si,20260326-153211,1.0.2,20260219-152011,814,Experiment,Both,1,Automatic,main,68,20260326-153812,global,global,750,H,H,E,A,H-E.png,H-A.png,hH,hH,mask-2.png,mask-2.png,h,1,0.9164727999595925,h,1,0.042164199985563755,0.046890700003132224,0.04896130005363375,0.09980329999234527,0.09976230002939701,0.748485799995251
RSVPLG03,si,20260326-153211,1.0.2,20260219-152011,814,Experiment,Both,1,Automatic,main,69,20260326-153817,local,local,750,H,H,E,A,E-H.png,A-H.png,hH,hH,mask-4.png,mask-1.png,s,0,0.22954059997573495,h,1,0.3571702999761328,0.048833100008778274,0.04885589994955808,0.09893660002853721,0.09962069999892265,0.7488954000873491
RSVPLG03,si,20260326-153211,1.0.2,20260219-152011,814,Experiment,Both,1,Automatic,main,70,20260326-153821,global,local,750,S,S,A,A,S-A.png,A-S.png,sS,sS,mask-2.png,mask-4.png,s,1,0.34806870005559176,s,1,0.055406900006346405,0.05127070005983114,0.05076739995274693,0.10206140007358044,0.10062949999701232,0.749031100072898
RSVPLG03,si,20260326-153211,1.0.2,20260219-152011,814,Experiment,Both,1,Automatic,main,71,20260326-153826,local,local,300,H,H,A,E,A-H.png,E-H.png,hH,hH,mask-3.png,mask-3.png,h,1,0.37780590006150305,s,0,0.2527175999712199,0.050547200022265315,0.04890180006623268,0.10245560004841536,0.09840670006815344,0.3009530999697745
RSVPLG03,si,20260326-153211,1.0.2,20260219-152011,814,Experiment,Both,1,Automatic,main,72,20260326-153830,global,local,750,S,H,E,A,S-E.png,A-H.png,sS,hH,mask-1.png,mask-2.png,s,1,0.3958723000250757,h,1,0.00906449998728931,0.0512616999913007,0.04986279993318021,0.10190919996239245,0.10111099993810058,0.7484477000543848
RSVPLG03,si,20260326-153211,1.0.2,20260219-152011,814,Experiment,Both,1,Automatic,main,73,20260326-153835,global,global,750,H,S,A,A,H-A.png,S-A.png,hH,sS,mask-1.png,mask-3.png,h,1,0.3390199000714347,s,1,0.03306220006197691,0.05059409991372377,0.05151359993033111,0.1009852000279352,0.10036229994148016,0.7475105000194162
RSVPLG03,si,20260326-153211,1.0.2,20260219-152011,814,Experiment,Both,1,Automatic,main,74,20260326-153839,local,global,750,S,S,E,E,E-S.png,S-E.png,sS,sS,mask-2.png,mask-3.png,s,1,0.5636138000991195,s,1,0.13804200000595301,0.04944870003964752,0.05062779993750155,0.10074350005015731,0.10028769995551556,0.7481528000207618
RSVPLG03,si,20260326-153211,1.0.2,20260219-152011,814,Experiment,Both,1,Automatic,main,75,20260326-153844,local,global,750,S,H,E,A,E-S.png,H-A.png,sS,hH,mask-2.png,mask-2.png,s,1,0.258525799959898,h,1,0.0334459999576211,0.05152540002018213,0.050491499947384,0.10140030004549772,0.1007994000101462,0.7500813000369817
RSVPLG03,si,20260326-153211,1.0.2,20260219-152011,814,Experiment,Both,1,Automatic,main,76,20260326-153854,global,global,750,H,S,E,E,H-E.png,S-E.png,hH,sS,mask-3.png,mask-1.png,h,1,0.23268889996688813,s,1,0.009627999970689416,0.049887700006365776,0.04914659995120019,0.10041239997372031,0.09857509995345026,0.7492811999982223
RSVPLG03,si,20260326-153211,1.0.2,20260219-152011,814,Experiment,Both,1,Automatic,main,77,20260326-153858,global,local,300,S,H,E,A,S-E.png,A-H.png,sS,hH,mask-3.png,mask-3.png,s,1,0.3153706999728456,h,1,0.525893299956806,0.051405000034719706,0.04829409997910261,0.10133440000936389,0.10007279994897544,0.3008997000288218
RSVPLG03,si,20260326-153211,1.0.2,20260219-152011,814,Experiment,Both,1,Automatic,main,78,20260326-153903,global,local,750,H,S,E,E,H-E.png,E-S.png,hH,sS,mask-4.png,mask-3.png,h,1,0.23033910000231117,s,1,0.024008800042793155,0.04894889995921403,0.05117049999535084,0.09936280001420528,0.0990557000041008,0.7489590999903157
RSVPLG03,si,20260326-153211,1.0.2,20260219-152011,814,Experiment,Both,1,Automatic,main,79,20260326-153907,local,global,750,H,H,A,E,A-H.png,H-E.png,hH,hH,mask-1.png,mask-2.png,h,1,0.2603998000267893,h,1,0.10419810004532337,0.04911280004307628,0.05214069993235171,0.1002357000252232,0.10127729992382228,0.7484033000655472
RSVPLG03,si,20260326-153211,1.0.2,20260219-152011,814,Experiment,Both,1,Automatic,main,80,20260326-153912,global,global,750,S,H,A,E,S-A.png,H-E.png,sS,hH,mask-1.png,mask-4.png,s,1,0.4138717999449,h,1,0.08033809997141361,0.049601900042034686,0.04977330006659031,0.09856970002874732,0.09908730001188815,0.7502857999643311
RSVPLG03,si,20260326-153211,1.0.2,20260219-152011,814,Experiment,Both,1,Automatic,main,81,20260326-153917,global,local,300,H,H,A,E,H-A.png,E-H.png,hH,hH,mask-3.png,mask-3.png,h,1,0.8996254000812769,s,0,0.02588500001002103,0.04940389993134886,0.05047040001954883,0.09940199996344745,0.10169689997565001,0.29839789995457977
RSVPLG03,si,20260326-153211,1.0.2,20260219-152011,814,Experiment,Both,1,Automatic,main,82,20260326-153921,local,global,750,H,S,A,E,A-H.png,S-E.png,hH,sS,mask-1.png,mask-1.png,h,1,1.3359615999506786,s,1,0.05593170004431158,0.04875989991705865,0.04911810008343309,0.09824479999952018,0.09918470005504787,0.7480924999108538
RSVPLG03,si,20260326-153211,1.0.2,20260219-152011,814,Experiment,Both,1,Automatic,main,83,20260326-153927,global,global,300,S,H,E,A,S-E.png,H-A.png,sS,hH,mask-2.png,mask-1.png,s,1,0.7233903000596911,h,1,0.020894700079225004,0.05001610005274415,0.049584200023673475,0.10114600008819252,0.10037390002980828,0.29928470007143915
RSVPLG03,si,20260326-153211,1.0.2,20260219-152011,814,Experiment,Both,1,Automatic,main,84,20260326-153931,local,local,300,H,S,E,E,E-H.png,E-S.png,hH,sS,mask-3.png,mask-4.png,h,1,0.5049057999858633,s,1,0.02731609996408224,0.04979640000965446,0.05272050003986806,0.10103730007540435,0.10097140003927052,0.29929430002812296
RSVPLG03,si,20260326-153211,1.0.2,20260219-152011,814,Experiment,Both,1,Automatic,main,85,20260326-153936,local,local,300,H,H,A,A,A-H.png,A-H.png,hH,hH,mask-2.png,mask-1.png,h,1,0.7100508000003174,h,1,0.06330740009434521,0.0503428999800235,0.050896800006739795,0.10229599999729544,0.09946240007411689,0.2989154999377206
RSVPLG03,si,20260326-153211,1.0.2,20260219-152011,814,Experiment,Both,1,Automatic,main,86,20260326-153940,local,global,300,S,S,E,A,E-S.png,S-A.png,sS,sS,mask-4.png,mask-4.png,s,1,0.6284996001049876,s,1,0.06281859998125583,0.04877839994151145,0.051163399941287935,0.09900789998937398,0.09998189995530993,0.2989628999494016
RSVPLG03,si,20260326-153211,1.0.2,20260219-152011,814,Experiment,Both,1,Automatic,main,87,20260326-153944,local,local,300,S,S,A,E,A-S.png,E-S.png,sS,sS,mask-3.png,mask-4.png,h,0,1.4072323000291362,s,1,0.049938999931328,0.0500707000028342,0.04985859990119934,0.09971560002304614,0.09983539988752455,0.3001404000679031
RSVPLG03,si,20260326-153211,1.0.2,20260219-152011,814,Experiment,Both,1,Automatic,main,88,20260326-153950,global,local,300,S,H,E,A,S-E.png,A-H.png,sS,hH,mask-2.png,mask-4.png,s,1,0.4367425999371335,h,1,0.04821699997410178,0.049894899944774806,0.049474300001747906,0.0996240999083966,0.09840709995478392,0.30008399998769164
RSVPLG03,si,20260326-153211,1.0.2,20260219-152011,814,Experiment,Both,1,Automatic,main,89,20260326-153954,global,local,750,S,H,E,E,S-E.png,E-H.png,sS,hH,mask-1.png,mask-3.png,s,1,0.45633499999530613,h,1,0.017967100022360682,0.049940999946556985,0.05022690002806485,0.10098109999671578,0.1018005000660196,0.7497183999512345
RSVPLG03,si,20260326-153211,1.0.2,20260219-152011,814,Experiment,Both,1,Automatic,main,90,20260326-153958,global,global,300,H,S,E,A,H-E.png,S-A.png,hH,sS,mask-2.png,mask-3.png,h,1,0.4956292000133544,s,1,0.08011360000818968,0.05020529998000711,0.04993199999444187,0.1013024999992922,0.10140669997781515,0.2982115000486374
RSVPLG03,si,20260326-153211,1.0.2,20260219-152011,814,Experiment,Both,1,Automatic,main,91,20260326-154003,local,local,300,S,S,A,A,A-S.png,A-S.png,sS,sS,mask-4.png,mask-4.png,s,1,0.48413340002298355,h,0,0.016253800014965236,0.050348500022664666,0.050008499994874,0.10084199998527765,0.09912190004251897,0.30026449996512383
RSVPLG03,si,20260326-153211,1.0.2,20260219-152011,814,Experiment,Both,1,Automatic,main,92,20260326-154007,local,local,300,S,S,E,A,E-S.png,A-S.png,sS,sS,mask-1.png,mask-1.png,s,1,0.4857373000122607,h,0,-2.780009526759386e-05,0.04705250007100403,0.04856610007118434,0.0971760000102222,0.1001365000847727,0.2974829999729991
RSVPLG03,si,20260326-153211,1.0.2,20260219-152011,814,Experiment,Both,1,Automatic,main,93,20260326-154011,local,local,750,H,S,E,E,E-H.png,E-S.png,hH,sS,mask-4.png,mask-3.png,h,1,0.27277630008757114,s,1,0.0577037000330165,0.050431700074113905,0.04988549998961389,0.10131689999252558,0.10107680002693087,0.7497461000457406
RSVPLG03,si,20260326-153211,1.0.2,20260219-152011,814,Experiment,Both,1,Automatic,main,94,20260326-154015,local,global,300,S,S,E,E,E-S.png,S-E.png,sS,sS,mask-1.png,mask-3.png,s,1,0.5001440000487491,s,1,0.04430449998471886,0.04958939994685352,0.04942230007145554,0.10108039993792772,0.0998496999964118,0.2994498999323696
RSVPLG03,si,20260326-153211,1.0.2,20260219-152011,814,Experiment,Both,1,Automatic,main,95,20260326-154020,global,global,750,H,H,A,E,H-A.png,H-E.png,hH,hH,mask-3.png,mask-3.png,h,1,0.6597912999568507,h,1,0.08322699996642768,0.05073869996704161,0.04985479998867959,0.10127530002500862,0.1012596000218764,0.7486006999388337
RSVPLG03,si,20260326-153211,1.0.2,20260219-152011,814,Experiment,Both,1,Automatic,main,96,20260326-154024,local,local,750,H,S,A,E,A-H.png,E-S.png,hH,sS,mask-1.png,mask-3.png,h,1,0.3155001000268385,s,1,0.04903420002665371,0.052014000015333295,0.050981500069610775,0.10142870002891868,0.10126540006604046,0.7496274999575689
RSVPLG03,si,20260326-153211,1.0.2,20260219-152011,814,Experiment,Both,1,Automatic,main,97,20260326-154029,local,local,750,H,H,A,E,A-H.png,E-H.png,hH,hH,mask-4.png,mask-4.png,h,1,0.3406262000789866,h,1,0.0982659999281168,0.049913300084881485,0.050230400054715574,0.09969509998336434,0.10181100002955645,0.7477085000136867
RSVPLG03,si,20260326-153211,1.0.2,20260219-152011,814,Experiment,Both,1,Automatic,main,98,20260326-154034,global,local,750,S,H,A,A,S-A.png,A-H.png,sS,hH,mask-3.png,mask-3.png,s,1,0.2850083999801427,h,1,0.04854479990899563,0.050145799992606044,0.050272699911147356,0.0999928000383079,0.10059419996105134,0.7498575000790879
RSVPLG03,si,20260326-153211,1.0.2,20260219-152011,814,Experiment,Both,1,Automatic,main,99,20260326-154038,local,global,750,S,S,A,A,A-S.png,S-A.png,sS,sS,mask-3.png,mask-4.png,s,1,0.47571819997392595,s,1,0.07325429993215948,0.04851470002904534,0.05133360007312149,0.09974600002169609,0.09866410004906356,0.747518099960871
RSVPLG03,si,20260326-153211,1.0.2,20260219-152011,814,Experiment,Both,1,Automatic,main,100,20260326-154043,global,local,750,S,S,A,E,S-A.png,E-S.png,sS,sS,mask-2.png,mask-1.png,s,1,0.33419129997491837,s,1,0.08118519990239292,0.04841420007869601,0.05071720003616065,0.09990350005682558,0.0983430000487715,0.7495725000044331
RSVPLG03,si,20260326-154134,1.0.2,20260219-152011,814,Experiment,Both,1,Automatic,warmup,1,20260326-154154,global,global,300,H,S,E,E,H-E.png,S-E.png,hH,sS,mask-2.png,mask-1.png,h,1,0.26394769991748035,s,1,0.3929724999470636,0.0392340999096632,0.049197499989531934,0.09048779995646328,0.09926359995733947,0.28920979995746166
RSVPLG03,si,20260326-154134,1.0.2,20260219-152011,814,Experiment,Both,1,Automatic,warmup,2,20260326-154158,local,local,750,H,H,A,A,A-H.png,A-H.png,hH,hH,mask-3.png,mask-2.png,h,1,0.302604699973017,h,1,0.0485064999666065,0.04952740005683154,0.04855639999732375,0.09884840005543083,0.09919400000944734,0.7493004000280052
RSVPLG03,si,20260326-154134,1.0.2,20260219-152011,814,Experiment,Both,1,Automatic,warmup,3,20260326-154203,local,global,300,H,S,A,A,A-H.png,S-A.png,hH,sS,mask-1.png,mask-1.png,h,1,0.22045139991678298,s,1,0.5089174000313506,0.049966299906373024,0.048961699940264225,0.0994762999471277,0.09888929990120232,0.3000563000096008
RSVPLG03,si,20260326-154134,1.0.2,20260219-152011,814,Experiment,Both,1,Automatic,warmup,4,20260326-154207,local,global,750,H,S,A,E,A-H.png,S-E.png,hH,sS,mask-4.png,mask-2.png,h,1,0.1738545000553131,s,1,0.4289225999964401,0.049071399960666895,0.04956890002358705,0.09898580005392432,0.0995838000671938,0.7504389999667183
RSVPLG03,si,20260326-154134,1.0.2,20260219-152011,814,Experiment,Both,1,Automatic,main,5,20260326-154212,local,global,750,S,H,A,A,A-S.png,H-A.png,sS,hH,mask-4.png,mask-3.png,s,1,1.0632765999762341,h,1,0.03850300004705787,0.04988659999798983,0.05139729997608811,0.09973520005587488,0.10069550003390759,0.748554400051944
RSVPLG03,si,20260326-154134,1.0.2,20260219-152011,814,Experiment,Both,1,Automatic,main,6,20260326-154217,local,global,300,H,H,A,E,A-H.png,H-E.png,hH,hH,mask-4.png,mask-4.png,h,1,0.4706049000378698,h,1,0.07282619993202388,0.04948409995995462,0.05204610002692789,0.10024129995144904,0.10075879993382841,0.2984472999814898
RSVPLG03,si,20260326-154134,1.0.2,20260219-152011,814,Experiment,Both,1,Automatic,main,7,20260326-154222,global,global,750,H,H,A,A,H-A.png,H-A.png,hH,hH,mask-3.png,mask-3.png,h,1,0.26557260006666183,h,1,0.08958730008453131,0.049903400009498,0.05093170003965497,0.10000049998052418,0.09987370006274432,0.751256899908185
RSVPLG03,si,20260326-154134,1.0.2,20260219-152011,814,Experiment,Both,1,Automatic,main,8,20260326-154226,local,local,750,S,S,A,E,A-S.png,E-S.png,sS,sS,mask-1.png,mask-1.png,h,0,0.3576434999704361,s,1,0.008992600021883845,0.05048830003943294,0.05015720007941127,0.10049179999623448,0.09922109998296946,0.7513774000108242
RSVPLG03,si,20260326-154134,1.0.2,20260219-152011,814,Experiment,Both,1,Automatic,main,9,20260326-154231,local,global,750,H,S,E,A,E-H.png,S-A.png,hH,sS,mask-2.png,mask-4.png,h,1,0.4367293999530375,s,1,0.05751990003045648,0.049881799961440265,0.049141100025735795,0.10027669998817146,0.09959889994934201,0.7514356999890879
RSVPLG03,si,20260326-154134,1.0.2,20260219-152011,814,Experiment,Both,1,Automatic,main,10,20260326-154235,global,global,750,H,S,E,E,H-E.png,S-E.png,hH,sS,mask-2.png,mask-4.png,h,1,0.8838607999496162,s,1,0.09639959991909564,0.049640299985185266,0.05098780000116676,0.10005280002951622,0.10018880001734942,0.7507016999879852
RSVPLG03,si,20260326-154134,1.0.2,20260219-152011,814,Experiment,Both,1,Automatic,main,11,20260326-154240,local,global,750,H,H,A,E,A-H.png,H-E.png,hH,hH,mask-1.png,mask-2.png,h,1,0.627465600031428,h,1,0.09376960003282875,0.048178100027143955,0.0504018000792712,0.09892630006652325,0.09983149997424334,0.7487495000241324
RSVPLG03,si,20260326-154134,1.0.2,20260219-152011,814,Experiment,Both,1,Automatic,main,12,20260326-154245,global,local,750,H,S,A,A,H-A.png,A-S.png,hH,sS,mask-1.png,mask-1.png,h,1,0.5751114999875426,h,0,0.06887159997131675,0.051606399938464165,0.050890900078229606,0.09995740000158548,0.10157749999780208,0.7504039999330416
RSVPLG03,si,20260326-154134,1.0.2,20260219-152011,814,Experiment,Both,1,Automatic,main,13,20260326-154250,global,global,750,S,H,A,A,S-A.png,H-A.png,sS,hH,mask-4.png,mask-4.png,s,1,0.34609609993640333,h,1,0.022386400029063225,0.048785600112751126,0.050616799970157444,0.10141220001969486,0.10334450006484985,0.7504803000483662
RSVPLG03,si,20260326-154134,1.0.2,20260219-152011,814,Experiment,Both,1,Automatic,main,14,20260326-154254,local,global,300,S,S,E,A,E-S.png,S-A.png,sS,sS,mask-3.png,mask-1.png,s,1,0.5219201999716461,h,0,0.05703989998437464,0.04971849999856204,0.0502030000789091,0.10092770005576313,0.10080800007563084,0.29924469999969006
RSVPLG03,si,20260326-154134,1.0.2,20260219-152011,814,Experiment,Both,1,Automatic,main,15,20260326-154259,local,global,300,S,H,E,E,E-S.png,H-E.png,sS,hH,mask-2.png,mask-4.png,s,1,0.2428847000701353,h,1,0.0390317999990657,0.049142500036396086,0.05046820000279695,0.09913350001443177,0.09997480001766235,0.3004130000481382
RSVPLG03,si,20260326-154134,1.0.2,20260219-152011,814,Experiment,Both,1,Automatic,main,16,20260326-154303,global,local,300,H,S,A,E,H-A.png,E-S.png,hH,sS,mask-4.png,mask-1.png,h,1,0.25019669998437166,s,1,0.08881650003604591,0.051031399983912706,0.04858450009487569,0.10040019999723881,0.10073000006377697,0.30169989995192736
RSVPLG03,si,20260326-154134,1.0.2,20260219-152011,814,Experiment,Both,1,Automatic,main,17,20260326-154307,local,local,750,S,H,E,A,E-S.png,A-H.png,sS,hH,mask-4.png,mask-1.png,s,1,0.046764599974267185,h,1,0.11396730004344136,0.04997979989275336,0.0505683000665158,0.0998303999658674,0.09941700007766485,0.7521870998898521
RSVPLG03,si,20260326-154134,1.0.2,20260219-152011,814,Experiment,Both,1,Automatic,main,18,20260326-154311,local,global,750,H,H,E,E,E-H.png,H-E.png,hH,hH,mask-3.png,mask-1.png,h,1,0.3690554000204429,h,1,0.143664599978365,0.04962220008019358,0.050249099964275956,0.10119930002838373,0.10113570000976324,0.74977370002307
RSVPLG03,si,20260326-154134,1.0.2,20260219-152011,814,Experiment,Both,1,Automatic,main,19,20260326-154316,global,global,300,S,S,E,A,S-E.png,S-A.png,sS,sS,mask-1.png,mask-1.png,s,1,0.40918780001811683,s,1,0.061842399998568,0.0493080000160262,0.04864260007161647,0.09805140004027635,0.09953890007454902,0.2997742999577895
RSVPLG03,si,20260326-154134,1.0.2,20260219-152011,814,Experiment,Both,1,Automatic,main,20,20260326-154320,local,local,750,H,H,E,E,E-H.png,E-H.png,hH,hH,mask-2.png,mask-1.png,s,0,0.7916680999333039,s,0,0.06474529998376966,0.04844969999976456,0.049501199973747134,0.09953629993833601,0.0995378999505192,0.7505674000130966
RSVPLG03,si,20260326-154134,1.0.2,20260219-152011,814,Experiment,Both,1,Automatic,main,21,20260326-154325,local,global,750,H,S,E,E,E-H.png,S-E.png,hH,sS,mask-3.png,mask-4.png,h,1,1.7273617000319064,s,1,0.031721799983642995,0.05050350003875792,0.05162949999794364,0.10015630000270903,0.10040289990138263,0.750924100051634
RSVPLG03,si,20260326-154134,1.0.2,20260219-152011,814,Experiment,Both,1,Automatic,main,22,20260326-154331,local,global,750,H,S,E,E,E-H.png,S-E.png,hH,sS,mask-1.png,mask-2.png,h,1,0.6869603999657556,s,1,0.07298669998999685,0.04910579998977482,0.048711300012655556,0.10004070005379617,0.09872440004255623,0.7501859000185505
RSVPLG03,si,20260326-154134,1.0.2,20260219-152011,814,Experiment,Both,1,Automatic,main,23,20260326-154336,local,local,300,S,S,E,A,E-S.png,A-S.png,sS,sS,mask-2.png,mask-4.png,s,1,0.6791425000410527,s,1,0.0692890000063926,0.04972290003206581,0.05054690001998097,0.10066070000175387,0.10012640000786632,0.3006816999986768
RSVPLG03,si,20260326-154134,1.0.2,20260219-152011,814,Experiment,Both,1,Automatic,main,24,20260326-154340,local,local,300,H,S,E,A,E-H.png,A-S.png,hH,sS,mask-1.png,mask-1.png,h,1,0.5124673000536859,s,1,0.07198939996305853,0.04962810000870377,0.05056280002463609,0.10011170001234859,0.09994670003652573,0.29997910000383854
RSVPLG03,si,20260326-154134,1.0.2,20260219-152011,814,Experiment,Both,1,Automatic,main,25,20260326-154344,local,local,750,H,S,E,E,E-H.png,E-S.png,hH,sS,mask-1.png,mask-3.png,s,0,0.5049927000654861,s,1,0.08982769993599504,0.05028750002384186,0.04899629997089505,0.09954329999163747,0.09912130003795028,0.7514884000411257
RSVPLG03,si,20260326-154134,1.0.2,20260219-152011,814,Experiment,Both,1,Automatic,main,26,20260326-154351,local,global,300,H,S,A,A,A-H.png,S-A.png,hH,sS,mask-3.png,mask-3.png,h,1,0.35610089998226613,s,1,0.06405020004604012,0.051144800032489,0.050006099976599216,0.10063200001604855,0.1015080000506714,0.30008830002043396
RSVPLG03,si,20260326-154134,1.0.2,20260219-152011,814,Experiment,Both,1,Automatic,main,27,20260326-154355,global,local,750,S,H,E,E,S-E.png,E-H.png,sS,hH,mask-3.png,mask-2.png,s,1,0.6109238000353798,h,1,0.18671359994914383,0.05032729997765273,0.049158599926158786,0.10043500002939254,0.09853199997451156,0.7523472000611946
RSVPLG03,si,20260326-154134,1.0.2,20260219-152011,814,Experiment,Both,1,Automatic,main,28,20260326-154400,global,global,300,H,H,A,E,H-A.png,H-E.png,hH,hH,mask-4.png,mask-2.png,h,1,0.365699699963443,s,0,0.0638113000895828,0.051937000011093915,0.04934980010148138,0.10086590005084872,0.09964500006753951,0.3017987000057474
RSVPLG03,si,20260326-154134,1.0.2,20260219-152011,814,Experiment,Both,1,Automatic,main,29,20260326-154404,local,global,300,S,S,E,E,E-S.png,S-E.png,sS,sS,mask-2.png,mask-1.png,s,1,0.25124919996596873,h,0,0.025644200039096177,0.05333599995356053,0.049996100016869605,0.1016722999047488,0.10085619997698814,0.30171919998247176
RSVPLG03,si,20260326-154134,1.0.2,20260219-152011,814,Experiment,Both,1,Automatic,main,30,20260326-154408,global,global,750,S,H,E,E,S-E.png,H-E.png,sS,hH,mask-3.png,mask-3.png,s,1,0.17571780004072934,h,1,0.036254000035114586,0.04896099993493408,0.049580999999307096,0.0989241999341175,0.09871839999686927,0.7500720999669284
RSVPLG03,si,20260326-154134,1.0.2,20260219-152011,814,Experiment,Both,1,Automatic,main,31,20260326-154413,global,local,750,H,H,A,A,H-A.png,A-H.png,hH,hH,mask-1.png,mask-4.png,h,1,1.0242158999899402,h,1,0.07148629997391254,0.05003839998971671,0.05059520003851503,0.10139129997696728,0.10089200001675636,0.7498073999304324
RSVPLG03,si,20260326-154134,1.0.2,20260219-152011,814,Experiment,Both,1,Automatic,main,32,20260326-154418,global,local,750,H,S,E,E,H-E.png,E-S.png,hH,sS,mask-1.png,mask-2.png,h,1,0.13359199999831617,s,1,0.09855500003322959,0.051289499970152974,0.050167900044471025,0.10127390001434833,0.10027409996837378,0.7503062000032514
RSVPLG03,si,20260326-154134,1.0.2,20260219-152011,814,Experiment,Both,1,Automatic,main,33,20260326-154422,global,local,300,S,S,A,E,S-A.png,E-S.png,sS,sS,mask-4.png,mask-3.png,s,1,0.3373406999744475,s,1,0.06579440005589277,0.049498400068841875,0.04786189994774759,0.09858940006233752,0.09790920000523329,0.3008527000201866
RSVPLG03,si,20260326-154134,1.0.2,20260219-152011,814,Experiment,Both,1,Automatic,main,34,20260326-154426,global,local,300,H,H,E,A,H-E.png,A-H.png,hH,hH,mask-3.png,mask-1.png,h,1,0.6417741999030113,h,1,0.057343400083482265,0.050111600081436336,0.051046599983237684,0.1011110000545159,0.10165840003173798,0.2998447000281885
RSVPLG03,si,20260326-154134,1.0.2,20260219-152011,814,Experiment,Both,1,Automatic,main,35,20260326-154431,global,global,750,H,S,E,E,H-E.png,S-E.png,hH,sS,mask-3.png,mask-2.png,h,1,0.26507770002353936,s,1,0.11959809996187687,0.04862330004107207,0.049697100068442523,0.10026960005052388,0.09861240000464022,0.7506886000046507
RSVPLG03,si,20260326-154134,1.0.2,20260219-152011,814,Experiment,Both,1,Automatic,main,36,20260326-154435,local,local,750,S,S,A,A,A-S.png,A-S.png,sS,sS,mask-2.png,mask-3.png,s,1,0.588132599950768,h,0,0.040176000096835196,0.04980150004848838,0.051385700004175305,0.09982240002136678,0.09992479998618364,0.7511752999853343
RSVPLG03,si,20260326-154134,1.0.2,20260219-152011,814,Experiment,Both,1,Automatic,main,37,20260326-154440,global,local,300,H,H,E,A,H-E.png,A-H.png,hH,hH,mask-3.png,mask-1.png,h,1,0.7254762999946252,h,1,0.10629410005640239,0.050558899994939566,0.052190500078722835,0.10173140000551939,0.10088240006007254,0.29984130000229925
RSVPLG03,si,20260326-154134,1.0.2,20260219-152011,814,Experiment,Both,1,Automatic,main,38,20260326-154444,local,local,750,S,S,A,A,A-S.png,A-S.png,sS,sS,mask-2.png,mask-3.png,s,1,0.25907820009160787,s,1,0.06542080000508577,0.050031600054353476,0.04942139994818717,0.0991185000166297,0.0994654999813065,0.7504248000914231
RSVPLG03,si,20260326-154134,1.0.2,20260219-152011,814,Experiment,Both,1,Automatic,main,39,20260326-154449,global,local,750,S,S,A,E,S-A.png,E-S.png,sS,sS,mask-4.png,mask-4.png,s,1,1.742456499952823,h,0,0.05531069997232407,0.050785799976438284,0.048969299998134375,0.09990959998685867,0.10133169998880476,0.7505643999902532
RSVPLG03,si,20260326-154134,1.0.2,20260219-152011,814,Experiment,Both,1,Automatic,main,40,20260326-154455,local,global,750,H,H,E,E,E-H.png,H-E.png,hH,hH,mask-2.png,mask-2.png,h,1,1.0078572999918833,h,1,0.07410720002371818,0.050933800055645406,0.05003130005206913,0.10097839997615665,0.10019570006988943,0.7508229999803007
RSVPLG03,si,20260326-154134,1.0.2,20260219-152011,814,Experiment,Both,1,Automatic,main,41,20260326-154500,global,local,300,S,H,A,E,S-A.png,E-H.png,sS,hH,mask-4.png,mask-4.png,s,1,0.6330118000041693,h,1,0.41441139997914433,0.0499349000165239,0.0497243000427261,0.10086130001582205,0.10092240001540631,0.300444099935703
RSVPLG03,si,20260326-154134,1.0.2,20260219-152011,814,Experiment,Both,1,Automatic,main,42,20260326-154505,global,global,750,S,H,E,E,S-E.png,H-E.png,sS,hH,mask-4.png,mask-1.png,s,1,0.2902925000526011,h,1,0.057040999992750585,0.04913449997548014,0.04870169993955642,0.09880389994941652,0.09882439998909831,0.7509906999766827
RSVPLG03,si,20260326-154134,1.0.2,20260219-152011,814,Experiment,Both,1,Automatic,main,43,20260326-154509,local,local,300,H,H,E,E,E-H.png,E-H.png,hH,hH,mask-3.png,mask-3.png,h,1,0.3989381999708712,s,0,0.13155879999976605,0.04924750002101064,0.050609400030225515,0.10064600000623614,0.10099209996405989,0.3014635000145063
RSVPLG03,si,20260326-154134,1.0.2,20260219-152011,814,Experiment,Both,1,Automatic,main,44,20260326-154513,global,global,300,S,S,A,E,S-A.png,S-E.png,sS,sS,mask-3.png,mask-3.png,s,1,0.3520057999994606,s,1,0.07360080000944436,0.049612500006332994,0.0501446999842301,0.09940369997639209,0.09997400001157075,0.2982296999543905
RSVPLG03,si,20260326-154134,1.0.2,20260219-152011,814,Experiment,Both,1,Automatic,main,45,20260326-154518,local,global,300,S,S,A,A,A-S.png,S-A.png,sS,sS,mask-2.png,mask-4.png,s,1,0.41021010000258684,s,1,0.098012899979949,0.04948259994853288,0.051637299940921366,0.09966199996415526,0.10026139998808503,0.29804939997848123
RSVPLG03,si,20260326-154134,1.0.2,20260219-152011,814,Experiment,Both,1,Automatic,main,46,20260326-154522,local,global,750,H,H,A,E,A-H.png,H-E.png,hH,hH,mask-4.png,mask-2.png,h,1,1.4590422000037506,h,1,0.06292499997653067,0.046450700028799474,0.04840440000407398,0.096362299984321,0.10024270007852465,0.7460394999943674
RSVPLG03,si,20260326-154134,1.0.2,20260219-152011,814,Experiment,Both,1,Automatic,main,47,20260326-154527,local,global,300,H,H,E,E,E-H.png,H-E.png,hH,hH,mask-4.png,mask-1.png,h,1,0.37212600000202656,s,0,0.056993599981069565,0.05092589999549091,0.04963520006276667,0.1012592000188306,0.10050090006552637,0.300755099975504
RSVPLG03,si,20260326-154134,1.0.2,20260219-152011,814,Experiment,Both,1,Automatic,main,48,20260326-154532,local,local,300,S,H,E,E,E-S.png,E-H.png,sS,hH,mask-2.png,mask-3.png,s,1,0.24515520001295954,h,1,0.026620899909175932,0.05030310002621263,0.04908649995923042,0.09988610004074872,0.10021239996422082,0.30028670001775026
RSVPLG03,si,20260326-154134,1.0.2,20260219-152011,814,Experiment,Both,1,Automatic,main,49,20260326-154535,local,global,300,S,H,E,A,E-S.png,H-A.png,sS,hH,mask-2.png,mask-3.png,s,1,0.13359729992225766,h,1,0.49154010007623583,0.049440399976447225,0.05099969997536391,0.10054270003456622,0.10132189991418272,0.300167900044471
RSVPLG03,si,20260326-154134,1.0.2,20260219-152011,814,Experiment,Both,1,Automatic,main,50,20260326-154540,local,global,750,S,H,E,A,E-S.png,H-A.png,sS,hH,mask-1.png,mask-3.png,s,1,0.05843139998614788,h,1,0.0907207999844104,0.05068589991424233,0.049766600015573204,0.10067670000717044,0.10124240000732243,0.7512299999361858
RSVPLG03,si,20260326-154134,1.0.2,20260219-152011,814,Experiment,Both,1,Automatic,main,51,20260326-154546,global,local,300,S,H,E,E,S-E.png,E-H.png,sS,hH,mask-2.png,mask-2.png,s,1,1.1205186999868602,h,1,0.365751100005582,0.05118120007682592,0.050858300062827766,0.0995569999795407,0.10019860009197146,0.30103249999228865
RSVPLG03,si,20260326-154134,1.0.2,20260219-152011,814,Experiment,Both,1,Automatic,main,52,20260326-154551,global,local,300,S,S,A,A,S-A.png,A-S.png,sS,sS,mask-2.png,mask-4.png,s,1,0.7995147000765428,s,1,0.06582409993279725,0.05205510009545833,0.049487699987366796,0.10074160003568977,0.1013683999190107,0.3009391000960022
RSVPLG03,si,20260326-154134,1.0.2,20260219-152011,814,Experiment,Both,1,Automatic,main,53,20260326-154555,global,global,300,H,H,E,E,H-E.png,H-E.png,hH,hH,mask-1.png,mask-1.png,h,1,0.5197695000097156,h,1,0.07897900009993464,0.049289199989289045,0.050831399974413216,0.10031819995492697,0.1002845000475645,0.30058529996313155
RSVPLG03,si,20260326-154134,1.0.2,20260219-152011,814,Experiment,Both,1,Automatic,main,54,20260326-154559,global,global,750,H,H,A,E,H-A.png,H-E.png,hH,hH,mask-2.png,mask-4.png,h,1,0.8426408999366686,h,1,0.0898688999004662,0.04880849993787706,0.049136799992993474,0.09869759995490313,0.09849169990047812,0.7504610000178218
RSVPLG03,si,20260326-154134,1.0.2,20260219-152011,814,Experiment,Both,1,Automatic,main,55,20260326-154604,local,local,300,S,H,A,E,A-S.png,E-H.png,sS,hH,mask-1.png,mask-4.png,s,1,0.4479764000279829,h,1,0.06819400005042553,0.04872369999065995,0.05054490000475198,0.10017220000736415,0.10092260001692921,0.2994513000594452
RSVPLG03,si,20260326-154134,1.0.2,20260219-152011,814,Experiment,Both,1,Automatic,main,56,20260326-154609,global,local,750,S,H,E,E,S-E.png,E-H.png,sS,hH,mask-3.png,mask-1.png,s,1,0.7572899999795482,h,1,0.08741700008977205,0.0511253000004217,0.04967239999677986,0.10151219996623695,0.099097799975425,0.7516977000050247
RSVPLG03,si,20260326-154134,1.0.2,20260219-152011,814,Experiment,Both,1,Automatic,main,57,20260326-154614,local,local,750,H,H,E,A,E-H.png,A-H.png,hH,hH,mask-3.png,mask-2.png,h,1,0.3097667000256479,h,1,0.0794633999466896,0.05136560008395463,0.05062250001356006,0.10128409997560084,0.09872600005473942,0.7516510999994352
RSVPLG03,si,20260326-154134,1.0.2,20260219-152011,814,Experiment,Both,1,Automatic,main,58,20260326-154618,global,global,750,S,H,E,A,S-E.png,H-A.png,sS,hH,mask-4.png,mask-1.png,s,1,0.18913259997498244,h,1,0.0708930001128465,0.049683500081300735,0.050396100035868585,0.1004599001025781,0.09854819998145103,0.7510755000403151
RSVPLG03,si,20260326-154134,1.0.2,20260219-152011,814,Experiment,Both,1,Automatic,main,59,20260326-154623,global,global,300,H,S,E,E,H-E.png,S-E.png,hH,sS,mask-1.png,mask-3.png,h,1,0.26717999996617436,s,1,0.09672640007920563,0.049568000016734004,0.050286200013943017,0.0986204999499023,0.09897519997321069,0.29976039996836334
RSVPLG03,si,20260326-154134,1.0.2,20260219-152011,814,Experiment,Both,1,Automatic,main,60,20260326-154627,global,local,750,S,H,A,E,S-A.png,E-H.png,sS,hH,mask-3.png,mask-3.png,s,1,0.7126157999737188,s,0,0.07909259991720319,0.05041269992943853,0.0506664999993518,0.10205650003626943,0.09843849996104836,0.7514197999844328
RSVPLG03,si,20260326-154134,1.0.2,20260219-152011,814,Experiment,Both,1,Automatic,main,61,20260326-154632,local,local,300,H,S,A,E,A-H.png,E-S.png,hH,sS,mask-3.png,mask-4.png,h,1,0.2780827999813482,s,1,0.20103419991210103,0.05175900005269796,0.050591800012625754,0.10104890004731715,0.10268230002839118,0.30061040003784
RSVPLG03,si,20260326-154134,1.0.2,20260219-152011,814,Experiment,Both,1,Automatic,main,62,20260326-154636,global,local,750,S,H,A,E,S-A.png,E-H.png,sS,hH,mask-3.png,mask-1.png,s,1,0.39848270011134446,s,0,0.07302639994304627,0.05108410003595054,0.04987839993555099,0.10089550004340708,0.09882959991227835,0.7521486000623554
RSVPLG03,si,20260326-154134,1.0.2,20260219-152011,814,Experiment,Both,1,Automatic,main,63,20260326-154640,local,local,300,S,S,E,A,E-S.png,A-S.png,sS,sS,mask-3.png,mask-4.png,s,1,0.660989600000903,h,0,0.5172459000023082,0.05201330001000315,0.04935980006121099,0.0995104000903666,0.09808440005872399,0.30026719998568296
RSVPLG03,si,20260326-154134,1.0.2,20260219-152011,814,Experiment,Both,1,Automatic,main,64,20260326-154645,global,local,750,H,S,E,E,H-E.png,E-S.png,hH,sS,mask-4.png,mask-2.png,h,1,0.20582929998636246,s,1,0.0722356999758631,0.0486424999544397,0.04974669998046011,0.09971139999106526,0.10216170002240688,0.749560600030236
RSVPLG03,si,20260326-154134,1.0.2,20260219-152011,814,Experiment,Both,1,Automatic,main,65,20260326-154650,global,local,300,S,H,E,A,S-E.png,A-H.png,sS,hH,mask-1.png,mask-4.png,s,1,0.18322359991725534,h,1,0.01410469994880259,0.0501688999356702,0.05196129996329546,0.09897910000290722,0.10050529998261482,0.2996910000219941
RSVPLG03,si,20260326-154134,1.0.2,20260219-152011,814,Experiment,Both,1,Automatic,main,66,20260326-154654,global,global,300,H,S,E,E,H-E.png,S-E.png,hH,sS,mask-3.png,mask-1.png,h,1,0.20420979999471456,s,1,0.027709699934348464,0.04962750000413507,0.051095300004817545,0.09836810000706464,0.10114179993979633,0.29842570004984736
RSVPLG03,si,20260326-154134,1.0.2,20260219-152011,814,Experiment,Both,1,Automatic,main,67,20260326-154658,global,local,300,S,H,A,E,S-A.png,E-H.png,sS,hH,mask-4.png,mask-4.png,s,1,0.3777966999914497,s,0,0.05221290001645684,0.050388699979521334,0.05034690001048148,0.10129839996807277,0.10049500002060086,0.299453999963589
RSVPLG03,si,20260326-154134,1.0.2,20260219-152011,814,Experiment,Both,1,Automatic,main,68,20260326-154702,local,local,300,H,H,A,A,A-H.png,A-H.png,hH,hH,mask-4.png,mask-1.png,s,0,0.6482787999557331,h,1,0.4254563000285998,0.04987099999561906,0.05098519998136908,0.09979390003718436,0.10198120004497468,0.298286100034602
RSVPLG03,si,20260326-154134,1.0.2,20260219-152011,814,Experiment,Both,1,Automatic,main,69,20260326-154707,local,global,750,S,H,A,E,A-S.png,H-E.png,sS,hH,mask-4.png,mask-1.png,h,0,0.5239106999943033,h,1,0.02746030001435429,0.049965100013650954,0.04851459991186857,0.10005020000971854,0.09948039997834712,0.7508345000678673
RSVPLG03,si,20260326-154134,1.0.2,20260219-152011,814,Experiment,Both,1,Automatic,main,70,20260326-154711,global,global,300,H,H,A,A,H-A.png,H-A.png,hH,hH,mask-4.png,mask-4.png,h,1,1.9664054999593645,s,0,0.04214000003412366,0.05140420002862811,0.050024199998006225,0.10008170001674443,0.09846140001900494,0.30164010007865727
RSVPLG03,si,20260326-154134,1.0.2,20260219-152011,814,Experiment,Both,1,Automatic,main,71,20260326-154717,local,local,750,H,H,A,A,A-H.png,A-H.png,hH,hH,mask-4.png,mask-2.png,h,1,0.3528490000171587,h,1,0.06512159993872046,0.04943540005479008,0.05110799998510629,0.09838780004065484,0.10113179998006672,0.7486639000708237
RSVPLG03,si,20260326-154134,1.0.2,20260219-152011,814,Experiment,Both,1,Automatic,main,72,20260326-154722,global,local,300,H,S,A,A,H-A.png,A-S.png,hH,sS,mask-4.png,mask-1.png,h,1,0.5581426999997348,h,0,0.07197650009766221,0.050805100006982684,0.05095389997586608,0.10216919996310025,0.1009970000013709,0.2997002999763936
RSVPLG03,si,20260326-154134,1.0.2,20260219-152011,814,Experiment,Both,1,Automatic,main,73,20260326-154726,global,global,300,S,S,A,A,S-A.png,S-A.png,sS,sS,mask-2.png,mask-2.png,s,1,0.3744711000472307,s,1,0.10372620006091893,0.05048690002877265,0.049545900081284344,0.10005000000819564,0.09978950000368059,0.3003026000224054
RSVPLG03,si,20260326-154134,1.0.2,20260219-152011,814,Experiment,Both,1,Automatic,main,74,20260326-154730,global,global,750,H,S,E,A,H-E.png,S-A.png,hH,sS,mask-2.png,mask-1.png,h,1,0.3706417999928817,s,1,0.09426050004549325,0.048440299928188324,0.050173799972981215,0.09976419992744923,0.10084069997537881,0.7498602999839932
RSVPLG03,si,20260326-154134,1.0.2,20260219-152011,814,Experiment,Both,1,Automatic,main,75,20260326-154735,global,local,750,H,H,A,E,H-A.png,E-H.png,hH,hH,mask-1.png,mask-1.png,h,1,0.17389259999617934,s,0,0.05444330000318587,0.05077359999995679,0.04807850008364767,0.09977589990012348,0.09800790005829185,0.7511815999168903
RSVPLG03,si,20260326-154134,1.0.2,20260219-152011,814,Experiment,Both,1,Automatic,main,76,20260326-154740,global,global,750,S,S,A,E,S-A.png,S-E.png,sS,sS,mask-2.png,mask-4.png,s,1,0.2883620000211522,s,1,0.21914899989496917,0.05326670000795275,0.05133639997802675,0.10085559997241944,0.1001541999867186,0.7524759999942034
RSVPLG03,si,20260326-154134,1.0.2,20260219-152011,814,Experiment,Both,1,Automatic,main,77,20260326-154745,global,global,300,H,H,A,A,H-A.png,H-A.png,hH,hH,mask-1.png,mask-4.png,h,1,0.5892231999896467,h,1,0.06194249994587153,0.04762430000118911,0.04829710000194609,0.09703439997974783,0.09905760001856834,0.2988512000301853
RSVPLG03,si,20260326-154134,1.0.2,20260219-152011,814,Experiment,Both,1,Automatic,main,78,20260326-154749,global,global,750,S,H,A,A,S-A.png,H-A.png,sS,hH,mask-1.png,mask-1.png,s,1,0.28994689998216927,h,1,0.0579338000388816,0.05028910003602505,0.047797400038689375,0.0998700000345707,0.09761070006061345,0.7520818000193685
RSVPLG03,si,20260326-154134,1.0.2,20260219-152011,814,Experiment,Both,1,Automatic,main,79,20260326-154754,local,local,750,H,H,A,A,A-H.png,A-H.png,hH,hH,mask-2.png,mask-4.png,h,1,0.41949510003905743,h,1,0.06937809998635203,0.05015829997137189,0.049686199985444546,0.10134920000564307,0.10000790003687143,0.7508880000095814
RSVPLG03,si,20260326-154134,1.0.2,20260219-152011,814,Experiment,Both,1,Automatic,main,80,20260326-154759,local,global,300,S,S,E,A,E-S.png,S-A.png,sS,sS,mask-3.png,mask-4.png,s,1,0.6073768999194726,s,1,0.0651858999626711,0.048918699962086976,0.05113350006286055,0.0985373998992145,0.0984859000891447,0.30028549989219755
RSVPLG03,si,20260326-154134,1.0.2,20260219-152011,814,Experiment,Both,1,Automatic,main,81,20260326-154803,global,global,750,H,H,A,A,H-A.png,H-A.png,hH,hH,mask-1.png,mask-1.png,h,1,0.5845285000978038,h,1,0.11625920003280044,0.05102189991157502,0.0504254000261426,0.09979679994285107,0.10057969996705651,0.750958799966611
RSVPLG03,si,20260326-154134,1.0.2,20260219-152011,814,Experiment,Both,1,Automatic,main,82,20260326-154808,global,local,750,S,S,A,E,S-A.png,E-S.png,sS,sS,mask-4.png,mask-3.png,s,1,0.25226029998157173,s,1,0.09474200010299683,0.045354200061410666,0.05166749993804842,0.0951969000743702,0.10119860002305359,0.7452515000477433
RSVPLG03,si,20260326-154134,1.0.2,20260219-152011,814,Experiment,Both,1,Automatic,main,83,20260326-154812,local,global,750,H,S,A,A,A-H.png,S-A.png,hH,sS,mask-2.png,mask-1.png,h,1,0.2793514000950381,s,1,0.08525620005093515,0.04947229998651892,0.048990000039339066,0.09912550006993115,0.1001302000368014,0.7501998000079766
RSVPLG03,si,20260326-154134,1.0.2,20260219-152011,814,Experiment,Both,1,Automatic,main,84,20260326-154817,local,global,300,S,H,E,A,E-S.png,H-A.png,sS,hH,mask-4.png,mask-3.png,s,1,0.3115997000131756,h,1,0.07448549999389797,0.049659600015729666,0.04964370001107454,0.1016045999713242,0.09978000004775822,0.29943819995969534
RSVPLG03,si,20260326-154134,1.0.2,20260219-152011,814,Experiment,Both,1,Automatic,main,85,20260326-154821,local,local,300,H,S,A,A,A-H.png,A-S.png,hH,sS,mask-2.png,mask-1.png,h,1,0.30012429994530976,h,0,0.19330709998030216,0.05103940004482865,0.05105780006852001,0.10146350006107241,0.10139399999752641,0.2995507000014186
RSVPLG03,si,20260326-154134,1.0.2,20260219-152011,814,Experiment,Both,1,Automatic,main,86,20260326-154825,local,local,300,S,S,A,A,A-S.png,A-S.png,sS,sS,mask-4.png,mask-3.png,h,0,0.41015319991856813,h,0,0.08166180003900081,0.05020850000437349,0.049419800052419305,0.1003838999895379,0.10163719998672605,0.30059389991220087
RSVPLG03,si,20260326-154134,1.0.2,20260219-152011,814,Experiment,Both,1,Automatic,main,87,20260326-154829,global,global,300,H,H,A,A,H-A.png,H-A.png,hH,hH,mask-1.png,mask-4.png,h,1,0.32094849995337427,h,1,0.09667899995110929,0.050341299967840314,0.051668799947947264,0.09988470003008842,0.10154659999534488,0.3003450999967754
RSVPLG03,si,20260326-154134,1.0.2,20260219-152011,814,Experiment,Both,1,Automatic,main,88,20260326-154833,local,local,750,S,S,A,E,A-S.png,E-S.png,sS,sS,mask-3.png,mask-3.png,s,1,1.5766232999740168,h,0,0.0013716999674215913,0.050659800064750016,0.0505494000390172,0.09961560007650405,0.09953030000906438,0.7521134000271559
RSVPLG03,si,20260326-154134,1.0.2,20260219-152011,814,Experiment,Both,1,Automatic,main,89,20260326-154839,global,global,300,S,S,E,A,S-E.png,S-A.png,sS,sS,mask-3.png,mask-1.png,h,0,0.5110296999337152,s,1,0.03439410007558763,0.04800130007788539,0.049862600048072636,0.09888519998639822,0.10082140006124973,0.2980072000063956
RSVPLG03,si,20260326-154134,1.0.2,20260219-152011,814,Experiment,Both,1,Automatic,main,90,20260326-154843,local,local,750,S,H,A,A,A-S.png,A-H.png,sS,hH,mask-2.png,mask-3.png,h,0,0.24807650002185255,h,1,0.12178809999022633,0.050224300008267164,0.04808000009506941,0.09970340004656464,0.09817740006837994,0.7516210000030696
RSVPLG03,si,20260326-154134,1.0.2,20260219-152011,814,Experiment,Both,1,Automatic,main,91,20260326-154848,local,local,300,S,S,E,E,E-S.png,E-S.png,sS,sS,mask-3.png,mask-4.png,s,1,0.5945550000760704,h,0,0.04923430003691465,0.0484821000136435,0.05093140003737062,0.10051450005266815,0.10079010005574673,0.29838719998952
RSVPLG03,si,20260326-154134,1.0.2,20260219-152011,814,Experiment,Both,1,Automatic,main,92,20260326-154852,global,local,750,S,H,A,A,S-A.png,A-H.png,sS,hH,mask-1.png,mask-2.png,s,1,0.18748959992080927,h,1,0.08254139998462051,0.05088450002949685,0.048779700067825615,0.10075049998704344,0.09859449998475611,0.751958700013347
RSVPLG03,si,20260326-154134,1.0.2,20260219-152011,814,Experiment,Both,1,Automatic,main,93,20260326-154856,local,global,750,H,S,E,E,E-H.png,S-E.png,hH,sS,mask-3.png,mask-4.png,h,1,0.2987589000258595,s,1,0.09683769999537617,0.04864679998718202,0.050338400062173605,0.09977700002491474,0.09854280005674809,0.7514873000327498
RSVPLG03,si,20260326-154134,1.0.2,20260219-152011,814,Experiment,Both,1,Automatic,main,94,20260326-154901,local,local,750,S,H,A,E,A-S.png,E-H.png,sS,hH,mask-4.png,mask-4.png,h,0,0.2225022999336943,s,0,0.5338841000339016,0.05060579988639802,0.049975099973380566,0.10088509996421635,0.10129769996274263,0.7499933999497443
RSVPLG03,si,20260326-154134,1.0.2,20260219-152011,814,Experiment,Both,1,Automatic,main,95,20260326-154906,local,global,300,S,S,A,E,A-S.png,S-E.png,sS,sS,mask-4.png,mask-3.png,h,0,0.5673357000341639,s,1,0.08169020002242178,0.04870909999590367,0.05019710003398359,0.09905249997973442,0.09952639997936785,0.2992585999891162
RSVPLG03,si,20260326-154134,1.0.2,20260219-152011,814,Experiment,Both,1,Automatic,main,96,20260326-154910,global,local,300,S,S,A,A,S-A.png,A-S.png,sS,sS,mask-1.png,mask-1.png,s,1,0.8149217000463977,h,0,0.032448900048621,0.049785900046117604,0.0484438999556005,0.09966840001288801,0.09944159991573542,0.3005244000814855
RSVPLG03,si,20260326-154134,1.0.2,20260219-152011,814,Experiment,Both,1,Automatic,main,97,20260326-154915,global,local,300,S,S,E,A,S-E.png,A-S.png,sS,sS,mask-4.png,mask-3.png,s,1,0.42363950004801154,h,0,0.07960960001219064,0.048919200082309544,0.05092680000234395,0.10057190002407879,0.09986970003228635,0.2991472000721842
RSVPLG03,si,20260326-154134,1.0.2,20260219-152011,814,Experiment,Both,1,Automatic,main,98,20260326-154919,local,local,300,H,H,A,A,A-H.png,A-H.png,hH,hH,mask-3.png,mask-1.png,h,1,0.3177191000431776,s,0,0.1294789999956265,0.05056739994324744,0.049458199995569885,0.09980460000224411,0.10097930009942502,0.3002912999363616
RSVPLG03,si,20260326-154134,1.0.2,20260219-152011,814,Experiment,Both,1,Automatic,main,99,20260326-154923,global,global,300,S,S,A,E,S-A.png,S-E.png,sS,sS,mask-2.png,mask-4.png,h,0,0.4349283999763429,s,1,0.5561329999472946,0.04971219995059073,0.051635899930261075,0.10094449995085597,0.10056069993879646,0.29973700002301484
RSVPLG03,si,20260326-154134,1.0.2,20260219-152011,814,Experiment,Both,1,Automatic,main,100,20260326-154928,local,global,300,H,H,E,E,E-H.png,H-E.png,hH,hH,mask-1.png,mask-3.png,h,1,1.2722313998965546,h,1,0.07121900003403425,0.05035929998848587,0.048997500096447766,0.10022090002894402,0.10013390006497502,0.301017599995248
