exp,exp_initials,runtime,ver,modtime,sub,blocktype,targets,cuetype,mode,trialtype,trial,trialtime,t1_level,t2_level,t2_lag,t1,t2,distractor1,distractor2,stimfile1,stimfile2,t1_corr,t2_corr,maskfile1,maskfile2,t1_resp,t1_acc,t1_rt,t2_resp,t2_acc,t2_rt,t1_dur,t2_dur,t1mask_soa,t2mask_soa,t1t2_soa
RSVPLG03,cs,20251030-124459,1.0.1,20251020-085245,727,Introduction,T1,1,Automatic,main,1,20251030-124525,global,local,750,H,H,E,E,H-E.png,E-H.png,hH,hH,mask-4.png,mask-3.png,h,1,0.13896999997086823,none,-5,0,0.09805450006388128,0.09613479999825358,0.19942429999355227,0.19880909996572882,0.7507164000999182
RSVPLG03,cs,20251030-124459,1.0.1,20251020-085245,727,Introduction,T1,1,Automatic,main,2,20251030-124529,local,global,750,S,S,A,A,A-S.png,S-A.png,sS,sS,mask-4.png,mask-3.png,s,1,0.7800636999309063,none,-5,0,0.09643270005472004,0.09772199997678399,0.1999079999513924,0.20151839999016374,0.7495234999805689
RSVPLG03,cs,20251030-124459,1.0.1,20251020-085245,727,Introduction,T1,1,Automatic,main,3,20251030-124534,global,global,750,S,S,A,A,S-A.png,S-A.png,sS,sS,mask-1.png,mask-1.png,s,1,0.32154449995141476,none,-5,0,0.09858689992688596,0.09899059997405857,0.20088739995844662,0.20226489997003227,0.7497084999922663
RSVPLG03,cs,20251030-124459,1.0.1,20251020-085245,727,Introduction,T1,1,Automatic,main,4,20251030-124539,local,local,750,S,H,A,E,A-S.png,E-H.png,sS,hH,mask-2.png,mask-2.png,h,0,0.6966937000397593,none,-5,0,0.0970770000712946,0.09889159991871566,0.2007230999879539,0.20124189998023212,0.7493985000764951
RSVPLG03,cs,20251030-124459,1.0.1,20251020-085245,727,Introduction,T1,1,Automatic,main,5,20251030-124544,local,global,750,S,H,A,E,A-S.png,H-E.png,sS,hH,mask-4.png,mask-4.png,h,0,1.747033099993132,none,-5,0,0.09782130003441125,0.09759709995705634,0.20052110007964075,0.19990639993920922,0.7511707000667229
RSVPLG03,cs,20251030-124459,1.0.1,20251020-085245,727,Introduction,T1,1,Automatic,main,6,20251030-124550,global,local,750,S,S,E,E,S-E.png,E-S.png,sS,sS,mask-4.png,mask-1.png,s,1,0.8643356000538915,none,-5,0,0.09943249996285886,0.09858280001208186,0.20239880005829036,0.20084069995209575,0.750080700032413
RSVPLG03,cs,20251030-124459,1.0.1,20251020-085245,727,Introduction,T1,1,Automatic,main,7,20251030-124555,local,global,750,H,S,E,E,E-H.png,S-E.png,hH,sS,mask-2.png,mask-4.png,s,0,0.5492402999661863,none,-5,0,0.09693479991983622,0.09543600003235042,0.19991909991949797,0.19787610007915646,0.7526461998932064
RSVPLG03,cs,20251030-124459,1.0.1,20251020-085245,727,Introduction,T1,1,Automatic,main,8,20251030-124559,global,global,750,H,H,A,E,H-A.png,H-E.png,hH,hH,mask-2.png,mask-1.png,h,1,0.45950269990134984,none,-5,0,0.09734849992673844,0.09866260003764182,0.19985269999597222,0.1995871999533847,0.7493097999831662
RSVPLG03,cs,20251030-124459,1.0.1,20251020-085245,727,Introduction,T1,1,Automatic,main,9,20251030-124604,global,local,750,H,S,A,E,H-A.png,E-S.png,hH,sS,mask-3.png,mask-2.png,h,1,0.33890870003961027,none,-5,0,0.09808820008765906,0.09583800006657839,0.20055910001974553,0.2001915000146255,0.7519717999966815
RSVPLG03,cs,20251030-124459,1.0.1,20251020-085245,727,Introduction,T1,1,Automatic,main,10,20251030-124609,global,global,750,S,H,E,A,S-E.png,H-A.png,sS,hH,mask-2.png,mask-2.png,s,1,0.3554135999875143,none,-5,0,0.09717220009770244,0.0971323000267148,0.19912590004969388,0.20081960002426058,0.7504781000316143
RSVPLG03,cs,20251030-124459,1.0.1,20251020-085245,727,Introduction,T1,1,Automatic,main,11,20251030-124613,local,local,750,S,S,E,A,E-S.png,A-S.png,sS,sS,mask-2.png,mask-2.png,h,0,0.8887791000306606,none,-5,0,0.09831259993370622,0.09735159995034337,0.20006159995682538,0.20007939997594804,0.7509414999512956
RSVPLG03,cs,20251030-124459,1.0.1,20251020-085245,727,Introduction,T1,1,Automatic,main,12,20251030-124618,global,local,750,S,H,E,A,S-E.png,A-H.png,sS,hH,mask-1.png,mask-4.png,s,1,0.6242863000370562,none,-5,0,0.09893410000950098,0.09743019996676594,0.20187480002641678,0.20032890001311898,0.7517766000237316
RSVPLG03,cs,20251030-124459,1.0.1,20251020-085245,727,Introduction,T1,1,Automatic,main,13,20251030-124623,local,local,750,S,S,A,A,A-S.png,A-S.png,sS,sS,mask-1.png,mask-2.png,s,1,0.8427171000512317,none,-5,0,0.09823869995307177,0.09755589999258518,0.20013629994355142,0.198839700082317,0.7502816999331117
RSVPLG03,cs,20251030-124459,1.0.1,20251020-085245,727,Introduction,T1,1,Automatic,main,14,20251030-124629,local,local,750,H,S,A,A,A-H.png,A-S.png,hH,sS,mask-4.png,mask-4.png,h,1,0.6464982000179589,none,-5,0,0.09755609999410808,0.09756500006187707,0.20042459992691875,0.2001029000384733,0.7505153999663889
RSVPLG03,cs,20251030-124459,1.0.1,20251020-085245,727,Introduction,T1,1,Automatic,main,15,20251030-124634,local,global,750,H,S,E,A,E-H.png,S-A.png,hH,sS,mask-3.png,mask-2.png,h,1,0.6054578000912443,none,-5,0,0.09748590004164726,0.09628960001282394,0.19797009998001158,0.2007021999452263,0.749374600010924
RSVPLG03,cs,20251030-124459,1.0.1,20251020-085245,727,Introduction,T1,1,Automatic,main,16,20251030-124638,global,global,750,H,H,A,A,H-A.png,H-A.png,hH,hH,mask-1.png,mask-4.png,h,1,0.5995222999481484,none,-5,0,0.09759489994030446,0.09748679993208498,0.19949889997951686,0.20044099993538111,0.7498016000026837
RSVPLG03,cs,20251030-124656,1.0.1,20251020-085245,727,Practice,T1,1,Automatic,main,1,20251030-124713,local,local,300,S,H,E,A,E-S.png,A-H.png,sS,hH,mask-1.png,mask-4.png,s,1,0.7127576000057161,none,-5,0,0.04028770001605153,0.047960399999283254,0.09314370003994554,0.10013089992571622,0.2938750000903383
RSVPLG03,cs,20251030-124656,1.0.1,20251020-085245,727,Practice,T1,1,Automatic,main,2,20251030-124718,local,local,300,S,H,E,A,E-S.png,A-H.png,sS,hH,mask-2.png,mask-3.png,s,1,0.9208570000482723,none,-5,0,0.046672599972225726,0.04674150003120303,0.10107370000332594,0.0987938999896869,0.3007957999361679
RSVPLG03,cs,20251030-124656,1.0.1,20251020-085245,727,Practice,T1,1,Automatic,main,3,20251030-124722,global,global,750,H,H,A,A,H-A.png,H-A.png,hH,hH,mask-2.png,mask-2.png,h,1,0.5780699999304488,none,-5,0,0.04767400003038347,0.04752900009043515,0.09991059999447316,0.09962140000425279,0.7512367999879643
RSVPLG03,cs,20251030-124656,1.0.1,20251020-085245,727,Practice,T1,1,Automatic,main,4,20251030-124727,global,local,750,S,H,E,E,S-E.png,E-H.png,sS,hH,mask-1.png,mask-2.png,s,1,0.4544949000701308,none,-5,0,0.04854830005206168,0.047557299956679344,0.10043920006137341,0.09863579994998872,0.7527276000473648
RSVPLG03,cs,20251030-124656,1.0.1,20251020-085245,727,Practice,T1,1,Automatic,main,5,20251030-124732,global,local,300,S,H,E,A,S-E.png,A-H.png,sS,hH,mask-3.png,mask-3.png,s,1,0.6508272000355646,none,-5,0,0.04753310000523925,0.04761160002090037,0.0995374999474734,0.09962650004308671,0.3001983999274671
RSVPLG03,cs,20251030-124656,1.0.1,20251020-085245,727,Practice,T1,1,Automatic,main,6,20251030-124736,local,local,750,H,S,E,A,E-H.png,A-S.png,hH,sS,mask-3.png,mask-1.png,h,1,0.5981474999571219,none,-5,0,0.04639350005891174,0.04675970005337149,0.09951269999146461,0.09977750002872199,0.7513741999864578
RSVPLG03,cs,20251030-124656,1.0.1,20251020-085245,727,Practice,T1,1,Automatic,main,7,20251030-124741,global,global,750,H,S,E,E,H-E.png,S-E.png,hH,sS,mask-2.png,mask-2.png,h,1,0.6010300999041647,none,-5,0,0.04733780003152788,0.04884960001800209,0.09935639996547252,0.09988230001181364,0.7504394999705255
RSVPLG03,cs,20251030-124656,1.0.1,20251020-085245,727,Practice,T1,1,Automatic,main,8,20251030-124745,local,global,300,H,S,A,A,A-H.png,S-A.png,hH,sS,mask-4.png,mask-1.png,h,1,0.569892100058496,none,-5,0,0.04563479998614639,0.048367800074629486,0.09978779999073595,0.10123999998904765,0.29937259992584586
RSVPLG03,cs,20251030-124656,1.0.1,20251020-085245,727,Practice,T1,1,Automatic,main,9,20251030-124750,global,global,300,H,H,A,A,H-A.png,H-A.png,hH,hH,mask-4.png,mask-2.png,h,1,0.4902938000159338,none,-5,0,0.04754019994288683,0.04854749992955476,0.10155569994822145,0.10069379990454763,0.30122360005043447
RSVPLG03,cs,20251030-124656,1.0.1,20251020-085245,727,Practice,T1,1,Automatic,main,10,20251030-124754,global,local,750,H,S,A,A,H-A.png,A-S.png,hH,sS,mask-4.png,mask-4.png,h,1,0.4425857999594882,none,-5,0,0.04752279992680997,0.04897120001260191,0.10057559993583709,0.10198250005487353,0.7503676998894662
RSVPLG03,cs,20251030-124656,1.0.1,20251020-085245,727,Practice,T1,1,Automatic,main,11,20251030-124758,global,local,300,S,S,A,E,S-A.png,E-S.png,sS,sS,mask-4.png,mask-1.png,s,1,0.43755359994247556,none,-5,0,0.04771089996211231,0.04857099999208003,0.09997969993855804,0.10083739995025098,0.29962519998662174
RSVPLG03,cs,20251030-124656,1.0.1,20251020-085245,727,Practice,T1,1,Automatic,main,12,20251030-124802,local,global,750,H,S,A,A,A-H.png,S-A.png,hH,sS,mask-3.png,mask-3.png,h,1,0.4030795000726357,none,-5,0,0.047185400035232306,0.04758180002681911,0.0985099000390619,0.09858649992384017,0.7520387000404298
RSVPLG03,cs,20251030-124656,1.0.1,20251020-085245,727,Practice,T1,1,Automatic,main,13,20251030-124807,local,global,750,H,S,A,A,A-H.png,S-A.png,hH,sS,mask-2.png,mask-1.png,h,1,0.4248690999811515,none,-5,0,0.04660040000453591,0.04748969990760088,0.09972190007101744,0.10000099998433143,0.7512216001050547
RSVPLG03,cs,20251030-124656,1.0.1,20251020-085245,727,Practice,T1,1,Automatic,main,14,20251030-124811,local,local,750,H,H,E,A,E-H.png,A-H.png,hH,hH,mask-1.png,mask-2.png,h,1,0.4140174000058323,none,-5,0,0.04771800001617521,0.04670469998382032,0.10091550007928163,0.0989542999304831,0.7525023000780493
RSVPLG03,cs,20251030-124656,1.0.1,20251020-085245,727,Practice,T1,1,Automatic,main,15,20251030-124816,local,global,300,H,H,A,A,A-H.png,H-A.png,hH,hH,mask-3.png,mask-2.png,h,1,0.4710425999946892,none,-5,0,0.04773009999189526,0.04762869991827756,0.10099050006829202,0.1008150998968631,0.30159490008372813
RSVPLG03,cs,20251030-124656,1.0.1,20251020-085245,727,Practice,T1,1,Automatic,main,16,20251030-124820,global,global,300,S,S,E,E,S-E.png,S-E.png,sS,sS,mask-4.png,mask-2.png,s,1,0.3875518999993801,none,-5,0,0.04768720001447946,0.04869119997601956,0.09996460005640984,0.10191959992516786,0.2999077000422403
RSVPLG03,cs,20251030-124938,1.0.1,20251020-085245,727,Practice,Both,1,Automatic,main,1,20251030-124957,global,local,300,S,H,A,A,S-A.png,A-H.png,sS,hH,mask-3.png,mask-3.png,s,1,0.9702742000808939,h,1,0.18821090005803853,0.041063199983909726,0.04664359998423606,0.09214670001529157,0.0986284000100568,0.2935255999909714
RSVPLG03,cs,20251030-124938,1.0.1,20251020-085245,727,Practice,Both,1,Automatic,main,2,20251030-125002,global,global,300,S,S,E,E,S-E.png,S-E.png,sS,sS,mask-3.png,mask-4.png,s,1,0.7150016999803483,h,0,0.1497502001002431,0.04605160001665354,0.045718599925749004,0.09930080000776798,0.10002050001639873,0.30077640002127737
RSVPLG03,cs,20251030-124938,1.0.1,20251020-085245,727,Practice,Both,1,Automatic,main,3,20251030-125006,local,global,300,H,H,A,A,A-H.png,H-A.png,hH,hH,mask-1.png,mask-3.png,h,1,1.2617345000617206,s,0,0.5508675000164658,0.04866209998726845,0.04768229997716844,0.10186499997507781,0.09987549996003509,0.30148130003362894
RSVPLG03,cs,20251030-124938,1.0.1,20251020-085245,727,Practice,Both,1,Automatic,main,4,20251030-125012,global,global,750,S,H,E,E,S-E.png,H-E.png,sS,hH,mask-3.png,mask-3.png,h,0,2.30378680001013,s,0,0.15478270000312477,0.04771660000551492,0.048578200046904385,0.09905860002618283,0.10023440001532435,0.7484526999760419
RSVPLG03,cs,20251030-124938,1.0.1,20251020-085245,727,Practice,Both,1,Automatic,main,5,20251030-125019,local,global,750,S,H,E,A,E-S.png,H-A.png,sS,hH,mask-3.png,mask-2.png,s,1,0.5927846999838948,h,1,0.16647119994740933,0.047382500022649765,0.04769689997192472,0.09870289999525994,0.09989399998448789,0.7484660000773147
RSVPLG03,cs,20251030-124938,1.0.1,20251020-085245,727,Practice,Both,1,Automatic,main,6,20251030-125023,local,global,300,S,H,E,A,E-S.png,H-A.png,sS,hH,mask-1.png,mask-1.png,s,1,1.0644540999783203,h,1,0.12173429992981255,0.046972000040113926,0.047755799954757094,0.10021810000762343,0.09904829994775355,0.2997841000324115
RSVPLG03,cs,20251030-124938,1.0.1,20251020-085245,727,Practice,Both,1,Automatic,main,7,20251030-125028,global,local,750,H,S,A,A,H-A.png,A-S.png,hH,sS,mask-2.png,mask-1.png,h,1,0.8020520999561995,s,1,0.1803901999955997,0.04772539995610714,0.045924599980935454,0.09900629997719079,0.09954039996955544,0.7500346000306308
RSVPLG03,cs,20251030-124938,1.0.1,20251020-085245,727,Practice,Both,1,Automatic,main,8,20251030-125034,local,local,300,H,H,E,A,E-H.png,A-H.png,hH,hH,mask-1.png,mask-4.png,h,1,0.5529932999052107,s,0,0.4275228000478819,0.04743939999025315,0.04765870003029704,0.0984415999846533,0.10067129996605217,0.2979449999984354
RSVPLG03,cs,20251030-124938,1.0.1,20251020-085245,727,Practice,Both,1,Automatic,main,9,20251030-125038,global,local,750,S,H,E,E,S-E.png,E-H.png,sS,hH,mask-3.png,mask-1.png,s,1,2.077418199973181,h,1,0.11726600001566112,0.047526199952699244,0.047504200018011034,0.0995272999862209,0.0995025000302121,0.7484784999396652
RSVPLG03,cs,20251030-124938,1.0.1,20251020-085245,727,Practice,Both,1,Automatic,main,10,20251030-125045,local,global,750,H,H,E,E,E-H.png,H-E.png,hH,hH,mask-2.png,mask-4.png,s,0,0.7598937000147998,h,1,0.15307560004293919,0.04861629998777062,0.04769159993156791,0.10066080000251532,0.1017501000314951,0.7497979999752715
RSVPLG03,cs,20251030-124938,1.0.1,20251020-085245,727,Practice,Both,1,Automatic,main,11,20251030-125050,global,global,750,H,S,A,A,H-A.png,S-A.png,hH,sS,mask-4.png,mask-3.png,h,1,0.7586465000640601,s,1,0.1402182000456378,0.047539500053972006,0.04754780000075698,0.09954780002590269,0.1015614999923855,0.7481911999639124
RSVPLG03,cs,20251030-124938,1.0.1,20251020-085245,727,Practice,Both,1,Automatic,main,12,20251030-125055,global,global,300,H,H,A,E,H-A.png,H-E.png,hH,hH,mask-1.png,mask-3.png,h,1,1.5787881999276578,h,1,0.9335317999357358,0.04570119990967214,0.04896069993264973,0.09979469992686063,0.10035379999317229,0.29842040000949055
RSVPLG03,cs,20251030-124938,1.0.1,20251020-085245,727,Practice,Both,1,Automatic,main,13,20251030-125101,local,local,750,H,H,A,E,A-H.png,E-H.png,hH,hH,mask-3.png,mask-2.png,h,1,1.6183182999957353,s,0,0.774120399961248,0.04700200003571808,0.04643069999292493,0.10075790004339069,0.09850329998880625,0.7511611001100391
RSVPLG03,cs,20251030-124938,1.0.1,20251020-085245,727,Practice,Both,1,Automatic,main,14,20251030-125108,local,local,750,S,H,A,A,A-S.png,A-H.png,sS,hH,mask-3.png,mask-1.png,s,1,1.1649142000824213,h,1,0.28400979994330555,0.04754639999009669,0.04762739990837872,0.1005660000955686,0.09964509995188564,0.7501346000935882
RSVPLG03,cs,20251030-124938,1.0.1,20251020-085245,727,Practice,Both,1,Automatic,main,15,20251030-125113,local,local,300,S,H,E,E,E-S.png,E-H.png,sS,hH,mask-2.png,mask-3.png,s,1,0.9981874999357387,h,1,1.4000284998910502,0.046631200006231666,0.047494699945673347,0.09984099993016571,0.09976279991678894,0.29947720002382994
RSVPLG03,cs,20251030-124938,1.0.1,20251020-085245,727,Practice,Both,1,Automatic,main,16,20251030-125119,global,local,300,H,H,A,A,H-A.png,A-H.png,hH,hH,mask-1.png,mask-3.png,h,1,0.7239145999774337,h,1,0.2521519000874832,0.04554439999628812,0.0471042999997735,0.09940419998019934,0.10017629992216825,0.2995531000196934
RSVPLG03,cs,20251030-125223,1.0.1,20251020-085245,727,Experiment,Both,1,Automatic,warmup,1,20251030-125329,local,local,750,S,S,A,E,A-S.png,E-S.png,sS,sS,mask-2.png,mask-4.png,h,0,1.3847915000515059,s,1,0.0396772000240162,0.04028319998178631,0.047697799978777766,0.0932836999418214,0.09990789997391403,0.7435486000031233
RSVPLG03,cs,20251030-125223,1.0.1,20251020-085245,727,Experiment,Both,1,Automatic,warmup,2,20251030-125334,global,local,750,S,S,A,E,S-A.png,E-S.png,sS,sS,mask-3.png,mask-3.png,s,1,0.4764625000534579,s,1,0.058605499914847314,0.04741129989270121,0.04797890002373606,0.09962399990763515,0.10106969997286797,0.7497037999564782
RSVPLG03,cs,20251030-125223,1.0.1,20251020-085245,727,Experiment,Both,1,Automatic,warmup,3,20251030-125339,local,local,300,H,S,E,A,E-H.png,A-S.png,hH,sS,mask-2.png,mask-3.png,h,1,0.6240562000311911,h,0,0.3795769999269396,0.0476143000414595,0.04751009994652122,0.09970100002828985,0.10054399992804974,0.2992387000704184
RSVPLG03,cs,20251030-125223,1.0.1,20251020-085245,727,Experiment,Both,1,Automatic,warmup,4,20251030-125343,local,global,300,H,H,A,E,A-H.png,H-E.png,hH,hH,mask-3.png,mask-4.png,h,1,0.9889983999310061,s,0,0.10018800001125783,0.04769730009138584,0.046711200033314526,0.10078370000701398,0.0994217999977991,0.3004876000341028
RSVPLG03,cs,20251030-125223,1.0.1,20251020-085245,727,Experiment,Both,1,Automatic,warmup,5,20251030-125348,global,global,300,H,S,E,A,H-E.png,S-A.png,hH,sS,mask-4.png,mask-2.png,h,1,0.8495704000815749,h,0,0.07297590002417564,0.04661680001299828,0.04752709995955229,0.10053669998887926,0.0995958000421524,0.3004491999745369
RSVPLG03,cs,20251030-125223,1.0.1,20251020-085245,727,Experiment,Both,1,Automatic,main,6,20251030-125353,local,local,750,H,S,A,A,A-H.png,A-S.png,hH,sS,mask-4.png,mask-2.png,h,1,0.5780818000202999,s,1,0.16847630008123815,0.04751260008197278,0.048510100110433996,0.09956140001304448,0.10052830004133284,0.7492166999727488
RSVPLG03,cs,20251030-125223,1.0.1,20251020-085245,727,Experiment,Both,1,Automatic,main,7,20251030-125358,local,local,300,S,H,A,E,A-S.png,E-H.png,sS,hH,mask-4.png,mask-2.png,h,0,0.7962329000001773,h,1,0.08970390004105866,0.04694020003080368,0.04771309997886419,0.09945029998198152,0.09990460006520152,0.299209599965252
RSVPLG03,cs,20251030-125223,1.0.1,20251020-085245,727,Experiment,Both,1,Automatic,main,8,20251030-125402,global,local,300,H,S,A,E,H-A.png,E-S.png,hH,sS,mask-2.png,mask-2.png,h,1,0.7315153999952599,h,0,0.939113299944438,0.04669910005759448,0.047544099972583354,0.10055880004074425,0.09862809989135712,0.3008297000778839
RSVPLG03,cs,20251030-125223,1.0.1,20251020-085245,727,Experiment,Both,1,Automatic,main,9,20251030-125408,global,global,300,S,S,E,A,S-E.png,S-A.png,sS,sS,mask-3.png,mask-2.png,h,0,0.6856438999529928,s,1,0.10240279999561608,0.04762219998519868,0.04853469994850457,0.09962910006288439,0.09958659997209907,0.29990390001330525
RSVPLG03,cs,20251030-125223,1.0.1,20251020-085245,727,Experiment,Both,1,Automatic,main,10,20251030-125412,global,local,300,H,H,A,A,H-A.png,A-H.png,hH,hH,mask-4.png,mask-3.png,h,1,1.069692900055088,s,0,0.6439126000041142,0.04723739996552467,0.04687610000837594,0.09845519997179508,0.10010829998645931,0.3000744000310078
RSVPLG03,cs,20251030-125223,1.0.1,20251020-085245,727,Experiment,Both,1,Automatic,main,11,20251030-125418,local,local,750,H,H,A,E,A-H.png,E-H.png,hH,hH,mask-1.png,mask-3.png,h,1,0.5569466999731958,s,0,0.3313249000348151,0.048590000020340085,0.04776550002861768,0.100086500053294,0.10091919999103993,0.7504823000635952
RSVPLG03,cs,20251030-125223,1.0.1,20251020-085245,727,Experiment,Both,1,Automatic,main,12,20251030-125423,global,global,750,S,S,A,A,S-A.png,S-A.png,sS,sS,mask-3.png,mask-3.png,s,1,1.0244188000215217,h,0,0.10885870002675802,0.04752580006606877,0.048509899992495775,0.10052139998879284,0.10049940005410463,0.7490379000082612
RSVPLG03,cs,20251030-125223,1.0.1,20251020-085245,727,Experiment,Both,1,Automatic,main,13,20251030-125428,local,global,750,H,H,A,A,A-H.png,H-A.png,hH,hH,mask-1.png,mask-3.png,h,1,2.2569356999592856,s,0,0.6814317000098526,0.04650259995833039,0.04645069991238415,0.0994722000323236,0.10042449994944036,0.7497740000253543
RSVPLG03,cs,20251030-125223,1.0.1,20251020-085245,727,Experiment,Both,1,Automatic,main,14,20251030-125435,global,global,300,S,S,E,E,S-E.png,S-E.png,sS,sS,mask-1.png,mask-2.png,s,1,0.9325443999841809,h,0,0.14993559999857098,0.04716810001991689,0.04588919994421303,0.09950909996405244,0.09988170000724494,0.2997530000284314
RSVPLG03,cs,20251030-125223,1.0.1,20251020-085245,727,Experiment,Both,1,Automatic,main,15,20251030-125440,local,local,750,S,H,A,E,A-S.png,E-H.png,sS,hH,mask-2.png,mask-1.png,h,0,0.6164630999555811,h,1,0.2762581999413669,0.04640700004529208,0.047585299937054515,0.09934590000193566,0.10065289994236082,0.7497679000953212
RSVPLG03,cs,20251030-125223,1.0.1,20251020-085245,727,Experiment,Both,1,Automatic,main,16,20251030-125445,local,global,300,H,H,E,E,E-H.png,H-E.png,hH,hH,mask-2.png,mask-2.png,s,0,2.229965800070204,h,1,0.04088190000038594,0.04762890003621578,0.047344200080260634,0.09956200001761317,0.10141300002578646,0.2988449999829754
RSVPLG03,cs,20251030-125223,1.0.1,20251020-085245,727,Experiment,Both,1,Automatic,main,17,20251030-125451,global,local,750,H,H,A,E,H-A.png,E-H.png,hH,hH,mask-2.png,mask-4.png,h,1,0.520538599928841,s,0,0.12523670005612075,0.04702320008073002,0.04868679994251579,0.10012280009686947,0.09991099999751896,0.750006000045687
RSVPLG03,cs,20251030-125223,1.0.1,20251020-085245,727,Experiment,Both,1,Automatic,main,18,20251030-125456,global,local,300,H,S,E,E,H-E.png,E-S.png,hH,sS,mask-3.png,mask-3.png,h,1,1.3579185999697074,s,1,0.268264599959366,0.046505400096066296,0.047677500057034194,0.09943530010059476,0.09986179997213185,0.29992100002709776
RSVPLG03,cs,20251030-125223,1.0.1,20251020-085245,727,Experiment,Both,1,Automatic,main,19,20251030-125501,local,local,300,H,H,E,E,E-H.png,E-H.png,hH,hH,mask-3.png,mask-1.png,s,0,0.7737363000633195,s,0,0.35227649996522814,0.04567029990721494,0.048681700020097196,0.10007689998019487,0.10086710005998611,0.2986971999052912
RSVPLG03,cs,20251030-125223,1.0.1,20251020-085245,727,Experiment,Both,1,Automatic,main,20,20251030-125506,local,global,750,H,S,A,E,A-H.png,S-E.png,hH,sS,mask-3.png,mask-2.png,h,1,0.5512941000051796,h,0,0.24430230003781617,0.04776360001415014,0.048862600000575185,0.09888459998182952,0.10111109993886203,0.7485932999989018
RSVPLG03,cs,20251030-125223,1.0.1,20251020-085245,727,Experiment,Both,1,Automatic,main,21,20251030-125511,global,global,300,H,H,A,A,H-A.png,H-A.png,hH,hH,mask-3.png,mask-1.png,h,1,0.6478029999416322,s,0,0.05583100009243935,0.045966000063344836,0.04851270001381636,0.09913380001671612,0.10083540005143732,0.2986942999996245
RSVPLG03,cs,20251030-125223,1.0.1,20251020-085245,727,Experiment,Both,1,Automatic,main,22,20251030-125515,local,global,300,S,S,A,A,A-S.png,S-A.png,sS,sS,mask-1.png,mask-3.png,s,1,1.5608967000152916,h,0,0.11373500002082437,0.0456724000396207,0.047817999962717295,0.09885369997937232,0.10027970001101494,0.29846860002726316
RSVPLG03,cs,20251030-125223,1.0.1,20251020-085245,727,Experiment,Both,1,Automatic,main,23,20251030-125521,global,global,300,S,H,E,E,S-E.png,H-E.png,sS,hH,mask-3.png,mask-3.png,s,1,0.8317750999704003,h,1,0.8057929000351578,0.048711400013417006,0.046967500005848706,0.0997169999172911,0.10026870004367083,0.30128879996482283
RSVPLG03,cs,20251030-125223,1.0.1,20251020-085245,727,Experiment,Both,1,Automatic,main,24,20251030-125526,global,global,300,H,S,A,E,H-A.png,S-E.png,hH,sS,mask-1.png,mask-3.png,h,1,0.5142313999822363,h,0,0.20406400004867464,0.046551399980671704,0.049394900095649064,0.10057979996781796,0.10042810009326786,0.2988636998925358
RSVPLG03,cs,20251030-125223,1.0.1,20251020-085245,727,Experiment,Both,1,Automatic,main,25,20251030-125531,global,global,750,H,S,E,A,H-E.png,S-A.png,hH,sS,mask-1.png,mask-4.png,h,1,0.3700948000187054,s,1,0.05729749996680766,0.04759019997436553,0.047413400025106966,0.09898489993065596,0.10064269998110831,0.749471899936907
RSVPLG03,cs,20251030-125223,1.0.1,20251020-085245,727,Experiment,Both,1,Automatic,main,26,20251030-125552,global,local,750,S,S,A,E,S-A.png,E-S.png,sS,sS,mask-2.png,mask-2.png,s,1,1.4083961999276653,s,1,0.08413620002102107,0.04869750002399087,0.04757020005490631,0.09986610000487417,0.10011470003519207,0.7499376999912784
RSVPLG03,cs,20251030-125223,1.0.1,20251020-085245,727,Experiment,Both,1,Automatic,main,27,20251030-125557,global,global,750,H,H,A,A,H-A.png,H-A.png,hH,hH,mask-2.png,mask-4.png,h,1,0.5418208000482991,h,1,0.39053400000557303,0.047140599926933646,0.048095099977217615,0.09944609995000064,0.10104059998411685,0.7493216999573633
RSVPLG03,cs,20251030-125223,1.0.1,20251020-085245,727,Experiment,Both,1,Automatic,main,28,20251030-125602,local,local,750,S,S,A,E,A-S.png,E-S.png,sS,sS,mask-2.png,mask-1.png,h,0,0.6753575999755412,s,1,0.039366599987261,0.0457655000500381,0.04741150001063943,0.10005390003789216,0.09853319998364896,0.749529300024733
RSVPLG03,cs,20251030-125223,1.0.1,20251020-085245,727,Experiment,Both,1,Automatic,main,29,20251030-125607,global,global,300,S,H,A,E,S-A.png,H-E.png,sS,hH,mask-3.png,mask-2.png,s,1,0.6934502000221983,h,1,0.0554619999602437,0.04880370001774281,0.047556999954394996,0.0996315999655053,0.09853960003238171,0.30126259999815375
RSVPLG03,cs,20251030-125223,1.0.1,20251020-085245,727,Experiment,Both,1,Automatic,main,30,20251030-125612,global,local,300,S,S,E,E,S-E.png,E-S.png,sS,sS,mask-4.png,mask-2.png,s,1,0.788486999925226,h,0,0.07746070006396621,0.047447800054214895,0.04751480009872466,0.1003292000386864,0.0987211000174284,0.30049649998545647
RSVPLG03,cs,20251030-125223,1.0.1,20251020-085245,727,Experiment,Both,1,Automatic,main,31,20251030-125616,local,global,300,H,S,E,A,E-H.png,S-A.png,hH,sS,mask-2.png,mask-2.png,h,1,0.5986656999448314,s,1,0.2691463000373915,0.04772099992260337,0.04769069992471486,0.10025989997666329,0.09874089993536472,0.301077299984172
RSVPLG03,cs,20251030-125223,1.0.1,20251020-085245,727,Experiment,Both,1,Automatic,main,32,20251030-125621,global,global,300,S,H,E,E,S-E.png,H-E.png,sS,hH,mask-2.png,mask-2.png,s,1,0.7625019000843167,h,1,0.0938243999844417,0.04749919997993857,0.04639509995467961,0.0994132999330759,0.09940760000608861,0.3006355999968946
RSVPLG03,cs,20251030-125223,1.0.1,20251020-085245,727,Experiment,Both,1,Automatic,main,33,20251030-125625,global,global,300,H,H,E,E,H-E.png,H-E.png,hH,hH,mask-2.png,mask-3.png,h,1,0.8620667000068352,h,1,0.0706704999320209,0.04673579998780042,0.047536400030367076,0.09885760000906885,0.09859010006766766,0.3000977999763563
RSVPLG03,cs,20251030-125223,1.0.1,20251020-085245,727,Experiment,Both,1,Automatic,main,34,20251030-125630,global,local,750,H,S,E,A,H-E.png,A-S.png,hH,sS,mask-3.png,mask-1.png,h,1,0.7751845000311732,s,1,0.0738744999980554,0.04726259992457926,0.04754739999771118,0.09926869999617338,0.09980079997330904,0.7483760999748483
RSVPLG03,cs,20251030-125223,1.0.1,20251020-085245,727,Experiment,Both,1,Automatic,main,35,20251030-125635,local,local,750,H,S,E,E,E-H.png,E-S.png,hH,sS,mask-2.png,mask-1.png,h,1,0.36358130001462996,s,1,0.11909439996816218,0.04763990000355989,0.047887700027786195,0.09897960000671446,0.10073109995573759,0.7485364000312984
RSVPLG03,cs,20251030-125223,1.0.1,20251020-085245,727,Experiment,Both,1,Automatic,main,36,20251030-125640,local,global,750,H,S,E,A,E-H.png,S-A.png,hH,sS,mask-2.png,mask-2.png,h,1,0.6894973999587819,h,0,0.0494992999592796,0.047607699991203845,0.0467194999800995,0.09981579997111112,0.09984700009226799,0.7503934999695048
RSVPLG03,cs,20251030-125223,1.0.1,20251020-085245,727,Experiment,Both,1,Automatic,main,37,20251030-125645,local,local,300,S,H,E,A,E-S.png,A-H.png,sS,hH,mask-1.png,mask-3.png,h,0,0.5309603000059724,s,0,0.117285699932836,0.047537900041788816,0.04898650001268834,0.0995659000473097,0.10098870005458593,0.29816919995937496
RSVPLG03,cs,20251030-125223,1.0.1,20251020-085245,727,Experiment,Both,1,Automatic,main,38,20251030-125649,global,global,750,H,H,A,E,H-A.png,H-E.png,hH,hH,mask-3.png,mask-4.png,s,0,0.7141618999885395,h,1,0.07605150004383177,0.04770470003131777,0.045905500068329275,0.09984669997356832,0.10006309999153018,0.7505345999961719
RSVPLG03,cs,20251030-125223,1.0.1,20251020-085245,727,Experiment,Both,1,Automatic,main,39,20251030-125654,local,local,750,S,S,E,E,E-S.png,E-S.png,sS,sS,mask-1.png,mask-4.png,s,1,0.5443261000327766,s,1,0.09248659992590547,0.047600099933333695,0.047494899947196245,0.10062159993685782,0.10053059994243085,0.749836300034076
RSVPLG03,cs,20251030-125223,1.0.1,20251020-085245,727,Experiment,Both,1,Automatic,main,40,20251030-125659,global,local,750,S,S,A,E,S-A.png,E-S.png,sS,sS,mask-1.png,mask-1.png,h,0,1.6147411999991164,s,1,0.07166380004491657,0.047508199932053685,0.04752090002875775,0.10068589996080846,0.10058230010326952,0.7498507999116555
RSVPLG03,cs,20251030-125223,1.0.1,20251020-085245,727,Experiment,Both,1,Automatic,main,41,20251030-125704,local,global,300,H,S,A,E,A-H.png,S-E.png,hH,sS,mask-2.png,mask-2.png,h,1,0.8777931000804529,s,1,0.10679959994740784,0.04754259996116161,0.04734010004904121,0.0988804999506101,0.09820670005865395,0.29994189995341003
RSVPLG03,cs,20251030-125223,1.0.1,20251020-085245,727,Experiment,Both,1,Automatic,main,42,20251030-125709,global,local,300,H,S,E,E,H-E.png,E-S.png,hH,sS,mask-3.png,mask-3.png,h,1,1.0251059000147507,s,1,0.043650100007653236,0.04771059995982796,0.04776360001415014,0.09991480002645403,0.09897950000595301,0.30025460000615567
RSVPLG03,cs,20251030-125223,1.0.1,20251020-085245,727,Experiment,Both,1,Automatic,main,43,20251030-125714,local,global,750,H,S,E,A,E-H.png,S-A.png,hH,sS,mask-1.png,mask-2.png,h,1,0.8139659999869764,h,0,0.08550090005155653,0.048668900039047,0.048791600042022765,0.0997870999854058,0.10100270004477352,0.7497740000253543
RSVPLG03,cs,20251030-125223,1.0.1,20251020-085245,727,Experiment,Both,1,Automatic,main,44,20251030-125719,global,local,750,S,S,E,E,S-E.png,E-S.png,sS,sS,mask-3.png,mask-1.png,h,0,0.7649376000044867,s,1,0.8600046000210568,0.04837319999933243,0.048069499898701906,0.10113720002118498,0.10056329995859414,0.7505061000119895
RSVPLG03,cs,20251030-125223,1.0.1,20251020-085245,727,Experiment,Both,1,Automatic,main,45,20251030-125725,local,global,750,S,S,E,E,E-S.png,S-E.png,sS,sS,mask-3.png,mask-3.png,s,1,1.3090879999799654,h,0,0.06867920001968741,0.04677150002680719,0.04817690001800656,0.1003095000050962,0.10125389997847378,0.7486977999797091
RSVPLG03,cs,20251030-125223,1.0.1,20251020-085245,727,Experiment,Both,1,Automatic,main,46,20251030-125730,local,local,300,H,S,A,E,A-H.png,E-S.png,hH,sS,mask-1.png,mask-1.png,s,0,2.1038757999194786,h,0,0.07487010001204908,0.04655339999590069,0.04686070000752807,0.09970229992177337,0.0998500999994576,0.29916910000611097
RSVPLG03,cs,20251030-125223,1.0.1,20251020-085245,727,Experiment,Both,1,Automatic,main,47,20251030-125736,local,global,300,S,S,A,E,A-S.png,S-E.png,sS,sS,mask-2.png,mask-4.png,s,1,1.2964514000341296,h,0,0.11320359993260354,0.04664690000936389,0.04766140005085617,0.09982949995901436,0.09985190001316369,0.299449099926278
RSVPLG03,cs,20251030-125223,1.0.1,20251020-085245,727,Experiment,Both,1,Automatic,main,48,20251030-125741,global,global,300,H,S,A,E,H-A.png,S-E.png,hH,sS,mask-2.png,mask-4.png,h,1,1.1686604999704286,s,1,0.011856500059366226,0.04703739995602518,0.048517400049604475,0.10005089989863336,0.09952980000525713,0.2989130999194458
RSVPLG03,cs,20251030-125223,1.0.1,20251020-085245,727,Experiment,Both,1,Automatic,main,49,20251030-125746,global,global,750,H,S,E,E,H-E.png,S-E.png,hH,sS,mask-2.png,mask-3.png,h,1,0.9327064999379218,s,1,0.001670899917371571,0.04572270007338375,0.045588199980556965,0.09994140011258423,0.09938839997630566,0.7499112000223249
RSVPLG03,cs,20251030-125223,1.0.1,20251020-085245,727,Experiment,Both,1,Automatic,main,50,20251030-125751,local,local,300,H,H,E,A,E-H.png,A-H.png,hH,hH,mask-2.png,mask-1.png,h,1,1.2658638999564573,s,0,0.00963800004683435,0.047394499997608364,0.046775100054219365,0.10030920000281185,0.10084690002258867,0.300432899966836
RSVPLG03,cs,20251030-125223,1.0.1,20251020-085245,727,Experiment,Both,1,Automatic,main,51,20251030-125804,global,local,300,H,H,E,A,H-E.png,A-H.png,hH,hH,mask-1.png,mask-1.png,h,1,0.547183399903588,h,1,0.0433247999753803,0.04752880008891225,0.04752629995346069,0.10054480005055666,0.10157910000998527,0.29926820006221533
RSVPLG03,cs,20251030-125223,1.0.1,20251020-085245,727,Experiment,Both,1,Automatic,main,52,20251030-125808,global,local,300,S,H,A,A,S-A.png,A-H.png,sS,hH,mask-4.png,mask-4.png,s,1,1.0147667999844998,h,1,0.06050549994688481,0.04711459996178746,0.047238799976184964,0.09831959998700768,0.09934489999432117,0.2998999999836087
RSVPLG03,cs,20251030-125223,1.0.1,20251020-085245,727,Experiment,Both,1,Automatic,main,53,20251030-125813,global,local,750,S,S,E,A,S-E.png,A-S.png,sS,sS,mask-1.png,mask-1.png,s,1,0.6224817000329494,h,0,0.12737290002405643,0.04567369993310422,0.04853600007481873,0.09983679989818484,0.09977780003100634,0.7487319998908788
RSVPLG03,cs,20251030-125223,1.0.1,20251020-085245,727,Experiment,Both,1,Automatic,main,54,20251030-125818,local,local,300,S,H,E,E,E-S.png,E-H.png,sS,hH,mask-2.png,mask-2.png,s,1,0.7400134999770671,h,1,0.039181499974802136,0.046769000007770956,0.04773600003682077,0.09992589999455959,0.0994494000915438,0.30012529995292425
RSVPLG03,cs,20251030-125223,1.0.1,20251020-085245,727,Experiment,Both,1,Automatic,main,55,20251030-125822,local,global,300,S,S,A,A,A-S.png,S-A.png,sS,sS,mask-3.png,mask-3.png,s,1,0.6269260999979451,h,0,0.02491449995432049,0.04764719994273037,0.04738130001351237,0.09889799996744841,0.09944420005194843,0.30033849994651973
RSVPLG03,cs,20251030-125223,1.0.1,20251020-085245,727,Experiment,Both,1,Automatic,main,56,20251030-125827,local,local,300,H,S,E,E,E-H.png,E-S.png,hH,sS,mask-1.png,mask-2.png,h,1,0.8878530999645591,s,1,0.045226900023408234,0.04836119990795851,0.04639010003302246,0.09896869992371649,0.10031890007667243,0.30001069989521056
RSVPLG03,cs,20251030-125223,1.0.1,20251020-085245,727,Experiment,Both,1,Automatic,main,57,20251030-125831,global,global,300,S,S,E,E,S-E.png,S-E.png,sS,sS,mask-3.png,mask-1.png,s,1,0.816061899997294,h,0,0.07608219992835075,0.0457268999889493,0.04797999991569668,0.09993590007070452,0.1006127999862656,0.298581900075078
RSVPLG03,cs,20251030-125223,1.0.1,20251020-085245,727,Experiment,Both,1,Automatic,main,58,20251030-125836,global,global,300,S,S,E,E,S-E.png,S-E.png,sS,sS,mask-3.png,mask-4.png,h,0,1.880027599981986,s,1,0.7142687999876216,0.046813599998131394,0.047330599976703525,0.09983349998947233,0.10059229994658381,0.29952130001038313
RSVPLG03,cs,20251030-125223,1.0.1,20251020-085245,727,Experiment,Both,1,Automatic,main,59,20251030-125842,global,local,300,S,S,A,E,S-A.png,E-S.png,sS,sS,mask-1.png,mask-1.png,s,1,0.6847919999854639,h,0,0.14057819999288768,0.04721760004758835,0.047591199981980026,0.09827760001644492,0.09910370002035052,0.2995562000432983
RSVPLG03,cs,20251030-125223,1.0.1,20251020-085245,727,Experiment,Both,1,Automatic,main,60,20251030-125847,local,global,750,H,S,E,E,E-H.png,S-E.png,hH,sS,mask-2.png,mask-3.png,h,1,0.800178200006485,s,1,0.1624340999405831,0.04680999997071922,0.04869880003388971,0.09831929998472333,0.0992496000835672,0.7487739999778569
RSVPLG03,cs,20251030-125223,1.0.1,20251020-085245,727,Experiment,Both,1,Automatic,main,61,20251030-125852,global,global,750,S,H,A,A,S-A.png,H-A.png,sS,hH,mask-2.png,mask-1.png,h,0,0.9094248999608681,s,0,0.09662059997208416,0.04672860004939139,0.048570799990557134,0.09947110002394766,0.09958679997362196,0.7487486000172794
RSVPLG03,cs,20251030-125223,1.0.1,20251020-085245,727,Experiment,Both,1,Automatic,main,62,20251030-125857,local,global,750,H,H,A,A,A-H.png,H-A.png,hH,hH,mask-4.png,mask-2.png,h,1,0.7103525000857189,h,1,0.08611309994012117,0.04731180006638169,0.047729099984280765,0.09975390008185059,0.09992690000217408,0.7483832000289112
RSVPLG03,cs,20251030-125223,1.0.1,20251020-085245,727,Experiment,Both,1,Automatic,main,63,20251030-125902,global,global,750,S,S,A,A,S-A.png,S-A.png,sS,sS,mask-2.png,mask-3.png,s,1,0.5482106000417843,h,0,0.07160460005979985,0.04754910001065582,0.047644599922932684,0.10155009990558028,0.09866429993417114,0.7514947999734432
RSVPLG03,cs,20251030-125223,1.0.1,20251020-085245,727,Experiment,Both,1,Automatic,main,64,20251030-125907,global,global,750,H,H,E,A,H-E.png,H-A.png,hH,hH,mask-3.png,mask-4.png,h,1,0.4975013000657782,h,1,0.1862498999107629,0.048684399924241006,0.04664720001164824,0.10188819991890341,0.0992227999959141,0.7510602999245748
RSVPLG03,cs,20251030-125223,1.0.1,20251020-085245,727,Experiment,Both,1,Automatic,main,65,20251030-125912,local,local,300,H,S,A,E,A-H.png,E-S.png,hH,sS,mask-4.png,mask-2.png,h,1,1.0637430000351742,s,1,0.16561419994104654,0.04863079998176545,0.04626430000644177,0.10168289998546243,0.09890169999562204,0.3014730999711901
RSVPLG03,cs,20251030-125223,1.0.1,20251020-085245,727,Experiment,Both,1,Automatic,main,66,20251030-125917,global,global,750,H,S,A,A,H-A.png,S-A.png,hH,sS,mask-2.png,mask-2.png,s,0,1.9686209000647068,s,1,1.193011400057003,0.04752579994965345,0.046585400006733835,0.09852849994786084,0.09957409999333322,0.7489299000008032
RSVPLG03,cs,20251030-125223,1.0.1,20251020-085245,727,Experiment,Both,1,Automatic,main,67,20251030-125924,global,local,300,H,H,E,A,H-E.png,A-H.png,hH,hH,mask-3.png,mask-3.png,h,1,0.9560110999736935,h,1,0.05836310004815459,0.04852820001542568,0.045555399963632226,0.10055450000800192,0.0995884999865666,0.30192859994713217
RSVPLG03,cs,20251030-125223,1.0.1,20251020-085245,727,Experiment,Both,1,Automatic,main,68,20251030-125929,local,global,750,H,S,E,E,E-H.png,S-E.png,hH,sS,mask-3.png,mask-2.png,h,1,1.9026237000944093,h,0,1.6067723999731243,0.04758559993933886,0.0487353999633342,0.10066949995234609,0.10178749996703118,0.749262599973008
RSVPLG03,cs,20251030-125223,1.0.1,20251020-085245,727,Experiment,Both,1,Automatic,main,69,20251030-125936,global,local,300,H,S,A,E,H-A.png,E-S.png,hH,sS,mask-4.png,mask-4.png,h,1,0.6121951000532135,s,1,0.1536674000089988,0.047794600017368793,0.04784349992405623,0.09898350003641099,0.10004609997849911,0.29853020003065467
RSVPLG03,cs,20251030-125223,1.0.1,20251020-085245,727,Experiment,Both,1,Automatic,main,70,20251030-125941,local,global,300,S,H,E,A,E-S.png,H-A.png,sS,hH,mask-1.png,mask-2.png,s,1,1.3958670001011342,h,1,0.21567659999709576,0.04768730001524091,0.047683299984782934,0.09992060007061809,0.09855530003551394,0.30160390003584325
RSVPLG03,cs,20251030-125223,1.0.1,20251020-085245,727,Experiment,Both,1,Automatic,main,71,20251030-125946,local,global,300,S,H,A,A,A-S.png,H-A.png,sS,hH,mask-2.png,mask-2.png,s,1,1.0290542000439018,h,1,0.03609820001292974,0.047511099954135716,0.047732200007885695,0.09886140003800392,0.09997760003898293,0.2984827000182122
RSVPLG03,cs,20251030-125223,1.0.1,20251020-085245,727,Experiment,Both,1,Automatic,main,72,20251030-125951,local,global,300,S,H,A,A,A-S.png,H-A.png,sS,hH,mask-3.png,mask-1.png,h,0,1.5518225999549031,h,1,0.7473239999962971,0.04841549997217953,0.04689480003435165,0.10031410004012287,0.10117369994986802,0.30010530003346503
RSVPLG03,cs,20251030-125223,1.0.1,20251020-085245,727,Experiment,Both,1,Automatic,main,73,20251030-125957,local,global,750,H,H,A,A,A-H.png,H-A.png,hH,hH,mask-2.png,mask-4.png,h,1,0.5722584000322968,h,1,0.08455350005533546,0.04673689999617636,0.04650609998498112,0.09874510008376092,0.09915209992323071,0.7486495000775903
RSVPLG03,cs,20251030-125223,1.0.1,20251020-085245,727,Experiment,Both,1,Automatic,main,74,20251030-130002,global,local,300,H,S,A,A,H-A.png,A-S.png,hH,sS,mask-3.png,mask-2.png,h,1,1.3104123000521213,h,0,0.13369029993191361,0.047791199991479516,0.047543799970299006,0.10157950001303107,0.10142560000531375,0.3003282999852672
RSVPLG03,cs,20251030-125223,1.0.1,20251020-085245,727,Experiment,Both,1,Automatic,main,75,20251030-130007,global,local,750,H,H,E,E,H-E.png,E-H.png,hH,hH,mask-1.png,mask-2.png,h,1,0.5111778000136837,s,0,0.9658026000251994,0.046693400014191866,0.046717500081285834,0.09883999999146909,0.09892410004977137,0.7498270999640226
RSVPLG03,cs,20251030-125223,1.0.1,20251020-085245,727,Experiment,Both,1,Automatic,main,76,20251030-130028,local,global,750,S,H,A,A,A-S.png,H-A.png,sS,hH,mask-4.png,mask-3.png,s,1,0.6640775999985635,h,1,0.8439336000010371,0.04767080000601709,0.04769729997497052,0.09980959992390126,0.09980309999082237,0.7498755999840796
RSVPLG03,cs,20251030-125223,1.0.1,20251020-085245,727,Experiment,Both,1,Automatic,main,77,20251030-130033,local,global,750,S,S,E,E,E-S.png,S-E.png,sS,sS,mask-3.png,mask-2.png,s,1,0.49592829996254295,h,0,0.08536399994045496,0.04781700007151812,0.04650860000401735,0.09983120008837432,0.10057210002560169,0.7498350000241771
RSVPLG03,cs,20251030-125223,1.0.1,20251020-085245,727,Experiment,Both,1,Automatic,main,78,20251030-130038,local,global,300,H,H,E,E,E-H.png,H-E.png,hH,hH,mask-1.png,mask-1.png,h,1,0.5022086000535637,h,1,0.07664739992469549,0.048548600054346025,0.04751449998002499,0.1005689000012353,0.10150160000193864,0.29984960006549954
RSVPLG03,cs,20251030-125223,1.0.1,20251020-085245,727,Experiment,Both,1,Automatic,main,79,20251030-130042,local,local,750,S,H,E,A,E-S.png,A-H.png,sS,hH,mask-4.png,mask-2.png,s,1,0.7161490999860689,h,1,0.05538249993696809,0.04742449999321252,0.04751649999525398,0.09938649996183813,0.10048990009818226,0.7503605999518186
RSVPLG03,cs,20251030-125223,1.0.1,20251020-085245,727,Experiment,Both,1,Automatic,main,80,20251030-130047,local,local,750,S,H,A,A,A-S.png,A-H.png,sS,hH,mask-2.png,mask-1.png,s,1,0.5214055000105873,h,1,0.07626040000468493,0.047496499959379435,0.04657589993439615,0.09942619991488755,0.09927060001064092,0.749902099953033
RSVPLG03,cs,20251030-125223,1.0.1,20251020-085245,727,Experiment,Both,1,Automatic,main,81,20251030-130052,global,global,750,H,H,A,E,H-A.png,H-E.png,hH,hH,mask-3.png,mask-1.png,h,1,1.0855371999787167,s,0,0.039949199999682605,0.047626900020986795,0.04853579995688051,0.09961240005213767,0.09947969997301698,0.7491384000750259
RSVPLG03,cs,20251030-125223,1.0.1,20251020-085245,727,Experiment,Both,1,Automatic,main,82,20251030-130057,global,global,300,H,S,A,A,H-A.png,S-A.png,hH,sS,mask-3.png,mask-2.png,h,1,0.6464482999872416,h,0,0.056541800033301115,0.04666190000716597,0.046708400011993945,0.09910029999446124,0.09991530003026128,0.30073060002177954
RSVPLG03,cs,20251030-125223,1.0.1,20251020-085245,727,Experiment,Both,1,Automatic,main,83,20251030-130102,local,local,750,S,H,E,A,E-S.png,A-H.png,sS,hH,mask-3.png,mask-2.png,s,1,0.6753657000372186,h,1,0.03990880004130304,0.04751850001048297,0.047339199925772846,0.10152840008959174,0.09836890001315624,0.751628200057894
RSVPLG03,cs,20251030-125223,1.0.1,20251020-085245,727,Experiment,Both,1,Automatic,main,84,20251030-130106,local,global,300,H,H,E,E,E-H.png,H-E.png,hH,hH,mask-4.png,mask-4.png,h,1,0.6267689999658614,h,1,0.22915540006943047,0.046700699953362346,0.047674600034952164,0.09833009995054454,0.10075400001369417,0.299142999923788
RSVPLG03,cs,20251030-125223,1.0.1,20251020-085245,727,Experiment,Both,1,Automatic,main,85,20251030-130111,local,local,750,H,H,A,A,A-H.png,A-H.png,hH,hH,mask-4.png,mask-2.png,h,1,0.350800099899061,h,1,0.09094959998037666,0.04870049993041903,0.047405000077560544,0.10051699995528907,0.10038480011280626,0.7508722998900339
RSVPLG03,cs,20251030-125223,1.0.1,20251020-085245,727,Experiment,Both,1,Automatic,main,86,20251030-130115,global,local,750,H,S,A,A,H-A.png,A-S.png,hH,sS,mask-2.png,mask-4.png,h,1,0.5480815999908373,s,1,0.030351900029927492,0.0488957999041304,0.04674579994753003,0.10112929996103048,0.0981726999161765,0.7509348000166938
RSVPLG03,cs,20251030-125223,1.0.1,20251020-085245,727,Experiment,Both,1,Automatic,main,87,20251030-130120,global,global,300,H,H,A,E,H-A.png,H-E.png,hH,hH,mask-3.png,mask-1.png,h,1,1.5405003000050783,s,0,0.02629549999255687,0.047603200073353946,0.047670100000686944,0.09984700009226799,0.09993360005319118,0.29963290004525334
RSVPLG03,cs,20251030-125223,1.0.1,20251020-085245,727,Experiment,Both,1,Automatic,main,88,20251030-130125,local,local,750,S,H,E,E,E-S.png,E-H.png,sS,hH,mask-3.png,mask-4.png,s,1,0.6064997999928892,h,1,0.04351210000459105,0.047487500007264316,0.04730909992940724,0.10070129996165633,0.10033479996491224,0.749940300011076
RSVPLG03,cs,20251030-125223,1.0.1,20251020-085245,727,Experiment,Both,1,Automatic,main,89,20251030-130130,global,local,750,H,S,A,E,H-A.png,E-S.png,hH,sS,mask-4.png,mask-3.png,h,1,0.3065635000821203,s,1,0.008514299988746643,0.04654150002170354,0.04682879999745637,0.09961110004223883,0.09912110003642738,0.749613199965097
RSVPLG03,cs,20251030-125223,1.0.1,20251020-085245,727,Experiment,Both,1,Automatic,main,90,20251030-130135,global,local,750,H,S,A,A,H-A.png,A-S.png,hH,sS,mask-3.png,mask-3.png,h,1,0.4326584000373259,s,1,0.049687699996866286,0.04567979997955263,0.04864160006400198,0.09987619996536523,0.10057090001646429,0.7475782999536023
RSVPLG03,cs,20251030-125223,1.0.1,20251020-085245,727,Experiment,Both,1,Automatic,main,91,20251030-130139,global,local,750,H,S,E,E,H-E.png,E-S.png,hH,sS,mask-2.png,mask-4.png,h,1,0.27279869990888983,s,1,0.02579480002168566,0.047692099935375154,0.047701100003905594,0.09973899996839464,0.10006500000599772,0.7495878000045195
RSVPLG03,cs,20251030-125223,1.0.1,20251020-085245,727,Experiment,Both,1,Automatic,main,92,20251030-130144,local,global,300,S,S,E,E,E-S.png,S-E.png,sS,sS,mask-4.png,mask-2.png,s,1,0.519281700020656,h,0,0.02277400007005781,0.04753849992994219,0.047542499960400164,0.098607899970375,0.09861579991411418,0.29992989997845143
RSVPLG03,cs,20251030-125223,1.0.1,20251020-085245,727,Experiment,Both,1,Automatic,main,93,20251030-130148,global,local,300,H,S,E,E,H-E.png,E-S.png,hH,sS,mask-4.png,mask-1.png,h,1,0.5515284000430256,s,1,0.1370574999600649,0.04752980009652674,0.04686259990558028,0.09956120001152158,0.10058369999751449,0.29835470009129494
RSVPLG03,cs,20251030-125223,1.0.1,20251020-085245,727,Experiment,Both,1,Automatic,main,94,20251030-130152,local,global,750,S,H,E,E,E-S.png,H-E.png,sS,hH,mask-1.png,mask-2.png,s,1,0.19997600000351667,h,1,0.03873340005520731,0.04843349999282509,0.04703700006939471,0.10056439996697009,0.10041460010688752,0.7501111999154091
RSVPLG03,cs,20251030-125223,1.0.1,20251020-085245,727,Experiment,Both,1,Automatic,main,95,20251030-130157,local,local,300,H,H,A,E,A-H.png,E-H.png,hH,hH,mask-1.png,mask-3.png,h,1,0.43773490004241467,h,1,0.06061719998251647,0.04859239992219955,0.04750849993433803,0.10064829990733415,0.10044179996475577,0.29995779995806515
RSVPLG03,cs,20251030-125223,1.0.1,20251020-085245,727,Experiment,Both,1,Automatic,main,96,20251030-130201,local,global,300,H,H,E,E,E-H.png,H-E.png,hH,hH,mask-4.png,mask-1.png,h,1,1.5330371001036838,h,1,0.07318229996599257,0.04752250004094094,0.04852409998420626,0.10052960005123168,0.10154309996869415,0.2987898000283167
RSVPLG03,cs,20251030-125223,1.0.1,20251020-085245,727,Experiment,Both,1,Automatic,main,97,20251030-130206,global,global,300,S,S,A,A,S-A.png,S-A.png,sS,sS,mask-3.png,mask-1.png,h,0,2.059753100038506,h,0,0.06901310000102967,0.04568609991110861,0.047679999959655106,0.09992339997552335,0.09988710004836321,0.2995453999610618
RSVPLG03,cs,20251030-125223,1.0.1,20251020-085245,727,Experiment,Both,1,Automatic,main,98,20251030-130212,global,local,750,S,S,A,A,S-A.png,A-S.png,sS,sS,mask-2.png,mask-2.png,s,1,0.6238547000102699,h,0,0.053368000080809,0.04666960006579757,0.0475907000945881,0.10088220005854964,0.09941550006624311,0.749995099962689
RSVPLG03,cs,20251030-125223,1.0.1,20251020-085245,727,Experiment,Both,1,Automatic,main,99,20251030-130217,local,local,300,S,H,A,A,A-S.png,A-H.png,sS,hH,mask-2.png,mask-2.png,h,0,0.6210057999705896,h,1,0.08753150003030896,0.04778510006144643,0.046902499976567924,0.10055580001790076,0.09907779993955046,0.3005530000664294
RSVPLG03,cs,20251030-125223,1.0.1,20251020-085245,727,Experiment,Both,1,Automatic,main,100,20251030-130221,local,global,300,H,S,E,A,E-H.png,S-A.png,hH,sS,mask-1.png,mask-1.png,h,1,0.7186135000083596,h,0,0.06764730007853359,0.04753179999534041,0.047526200069114566,0.0987404000479728,0.09841150010470301,0.30011449998710304
RSVPLG03,cs,20251030-125223,1.0.1,20251020-085245,727,Experiment,Both,1,Automatic,main,101,20251030-130227,global,global,300,H,S,A,E,H-A.png,S-E.png,hH,sS,mask-4.png,mask-3.png,h,1,0.6846458999207243,h,0,0.08635070000309497,0.047435899963602424,0.04840880003757775,0.10014490003231913,0.1013202000176534,0.2992063999408856
RSVPLG03,cs,20251030-125223,1.0.1,20251020-085245,727,Experiment,Both,1,Automatic,main,102,20251030-130231,local,local,300,S,S,A,E,A-S.png,E-S.png,sS,sS,mask-4.png,mask-1.png,s,1,0.5178322000429034,s,1,0.058701599948108196,0.04857859993353486,0.04751800000667572,0.09957890002988279,0.09854109992738813,0.3009107999969274
RSVPLG03,cs,20251030-125223,1.0.1,20251020-085245,727,Experiment,Both,1,Automatic,main,103,20251030-130236,local,local,750,S,H,E,E,E-S.png,E-H.png,sS,hH,mask-2.png,mask-3.png,s,1,0.5739013999700546,h,1,0.028396799927577376,0.04581160005182028,0.04759670002385974,0.09858840005472302,0.10051190003287047,0.7497273000190035
RSVPLG03,cs,20251030-125223,1.0.1,20251020-085245,727,Experiment,Both,1,Automatic,main,104,20251030-130240,global,local,750,H,H,A,A,H-A.png,A-H.png,hH,hH,mask-1.png,mask-1.png,h,1,0.7204601999837905,h,1,0.1521849000127986,0.0477393000619486,0.04769919998943806,0.10001299995929003,0.10017009999137372,0.7504054000601172
RSVPLG03,cs,20251030-125223,1.0.1,20251020-085245,727,Experiment,Both,1,Automatic,main,105,20251030-130245,global,local,300,S,S,E,E,S-E.png,E-S.png,sS,sS,mask-3.png,mask-3.png,s,1,0.4386753001017496,s,1,0.058731499942950904,0.04751920001581311,0.048671299940906465,0.10058399999979883,0.09992189996410161,0.30031680001411587
RSVPLG03,cs,20251030-125223,1.0.1,20251020-085245,727,Experiment,Both,1,Automatic,main,106,20251030-130249,local,local,750,S,S,A,A,A-S.png,A-S.png,sS,sS,mask-2.png,mask-2.png,s,1,0.8084998000413179,h,0,0.056105000083334744,0.04770750005263835,0.04749539995100349,0.10091170005034655,0.0995823999401182,0.7507822000188753
RSVPLG03,cs,20251030-125223,1.0.1,20251020-085245,727,Experiment,Both,1,Automatic,main,107,20251030-130254,local,global,750,S,H,A,E,A-S.png,H-E.png,sS,hH,mask-2.png,mask-1.png,s,1,1.9034810999874026,h,1,0.03754779999144375,0.047724700067192316,0.04771700000856072,0.09943130007013679,0.09951329999603331,0.7498546000570059
RSVPLG03,cs,20251030-125223,1.0.1,20251020-085245,727,Experiment,Both,1,Automatic,main,108,20251030-130300,local,global,750,S,H,A,E,A-S.png,H-E.png,sS,hH,mask-2.png,mask-2.png,s,1,0.7149096000939608,h,1,0.09308490005787462,0.047730799997225404,0.04839980008546263,0.10076590010430664,0.10021340008825064,0.7498311999952421
RSVPLG03,cs,20251030-125223,1.0.1,20251020-085245,727,Experiment,Both,1,Automatic,main,109,20251030-130305,global,local,750,S,S,A,A,S-A.png,A-S.png,sS,sS,mask-4.png,mask-4.png,s,1,0.4647666000528261,s,1,0.054079099907539785,0.04753620002884418,0.04753099998924881,0.09938300005160272,0.09940659999847412,0.7499815999763086
RSVPLG03,cs,20251030-125223,1.0.1,20251020-085245,727,Experiment,Both,1,Automatic,main,110,20251030-130310,global,global,750,S,S,A,E,S-A.png,S-E.png,sS,sS,mask-1.png,mask-1.png,s,1,0.685837599914521,s,1,0.08540740003809333,0.04773310001473874,0.047498000087216496,0.10058040008880198,0.099639100022614,0.750642400002107
RSVPLG03,cs,20251030-125223,1.0.1,20251020-085245,727,Experiment,Both,1,Automatic,main,111,20251030-130315,global,global,750,S,H,A,E,S-A.png,H-E.png,sS,hH,mask-4.png,mask-3.png,s,1,0.45704360003583133,h,1,0.09169230004772544,0.04750069999136031,0.04720839997753501,0.09951099997851998,0.09920279996003956,0.7497685999842361
RSVPLG03,cs,20251030-125223,1.0.1,20251020-085245,727,Experiment,Both,1,Automatic,main,112,20251030-130319,local,local,300,S,S,A,E,A-S.png,E-S.png,sS,sS,mask-1.png,mask-2.png,s,1,0.9120962000451982,h,0,0.0844123000279069,0.04567879997193813,0.048678899998776615,0.0998919999692589,0.09977369999978691,0.2987632999429479
RSVPLG03,cs,20251030-125223,1.0.1,20251020-085245,727,Experiment,Both,1,Automatic,main,113,20251030-130324,global,local,300,H,S,E,E,H-E.png,E-S.png,hH,sS,mask-4.png,mask-3.png,h,1,0.2582251999992877,s,1,0.03698510001413524,0.04752240004017949,0.0475330000044778,0.09954020008444786,0.09955889999400824,0.29981260001659393
RSVPLG03,cs,20251030-125223,1.0.1,20251020-085245,727,Experiment,Both,1,Automatic,main,114,20251030-130328,global,global,750,S,S,E,E,S-E.png,S-E.png,sS,sS,mask-3.png,mask-3.png,s,1,0.41686700005084276,s,1,0.07534039998427033,0.04749290004838258,0.046530599938705564,0.09951079997699708,0.09955319995060563,0.749484800035134
RSVPLG03,cs,20251030-125223,1.0.1,20251020-085245,727,Experiment,Both,1,Automatic,main,115,20251030-130333,local,local,300,S,S,A,A,A-S.png,A-S.png,sS,sS,mask-1.png,mask-4.png,s,1,0.7002533000195399,h,0,0.02791040006559342,0.04752579994965345,0.04851510003209114,0.10057889996096492,0.10052350000478327,0.2998924999265
RSVPLG03,cs,20251030-125223,1.0.1,20251020-085245,727,Experiment,Both,1,Automatic,main,116,20251030-130337,local,local,300,H,H,A,E,A-H.png,E-H.png,hH,hH,mask-3.png,mask-4.png,h,1,0.6621151999570429,h,1,0.07692309992853552,0.04751459998078644,0.04754599998705089,0.09852729993872344,0.09855570003855973,0.29965749999973923
RSVPLG03,cs,20251030-125223,1.0.1,20251020-085245,727,Experiment,Both,1,Automatic,main,117,20251030-130341,global,local,750,S,S,E,A,S-E.png,A-S.png,sS,sS,mask-4.png,mask-3.png,h,0,3.1030421999748796,h,0,0.09423579997383058,0.04666190000716597,0.046782499994151294,0.09986409998964518,0.09977970004547387,0.7491813999367878
RSVPLG03,cs,20251030-125223,1.0.1,20251020-085245,727,Experiment,Both,1,Automatic,main,118,20251030-130349,local,global,750,H,H,A,A,A-H.png,H-A.png,hH,hH,mask-4.png,mask-1.png,h,1,0.8997505999868736,s,0,0.019204000011086464,0.046241900068707764,0.047539700055494905,0.09808880009222776,0.09959100000560284,0.7497606000397354
RSVPLG03,cs,20251030-125223,1.0.1,20251020-085245,727,Experiment,Both,1,Automatic,main,119,20251030-130354,global,local,300,S,S,A,A,S-A.png,A-S.png,sS,sS,mask-3.png,mask-1.png,s,1,0.49056200007908046,h,0,0.09141360002104193,0.04665819997899234,0.04747160000260919,0.09966109995730221,0.10035570000763983,0.2997505000093952
RSVPLG03,cs,20251030-125223,1.0.1,20251020-085245,727,Experiment,Both,1,Automatic,main,120,20251030-130358,local,global,300,S,S,A,E,A-S.png,S-E.png,sS,sS,mask-2.png,mask-1.png,h,0,1.8818322999868542,s,1,0.7783287999918684,0.04769999999552965,0.04770279990043491,0.09988720004912466,0.09988919994793832,0.30057200009468943
RSVPLG03,cs,20251030-125223,1.0.1,20251020-085245,727,Experiment,Both,1,Automatic,main,121,20251030-130404,local,local,300,H,S,A,A,A-H.png,A-S.png,hH,sS,mask-1.png,mask-4.png,s,0,0.5447935999836773,h,0,0.5651166000170633,0.04672099999152124,0.0487235999898985,0.10091989999637008,0.0999513000715524,0.29953499999828637
RSVPLG03,cs,20251030-125223,1.0.1,20251020-085245,727,Experiment,Both,1,Automatic,main,122,20251030-130409,local,local,750,S,H,A,A,A-S.png,A-H.png,sS,hH,mask-2.png,mask-3.png,s,1,0.6337383999489248,h,1,0.05745950003620237,0.04677400004584342,0.047668499988503754,0.10101390001364052,0.10085099993739277,0.7493482000427321
RSVPLG03,cs,20251030-125223,1.0.1,20251020-085245,727,Experiment,Both,1,Automatic,main,123,20251030-130414,local,local,750,H,S,A,E,A-H.png,E-S.png,hH,sS,mask-2.png,mask-3.png,h,1,0.9698298999574035,s,1,0.03480219992343336,0.04844289994798601,0.046519899973645806,0.10146309994161129,0.09954919992014766,0.7512568000238389
RSVPLG03,cs,20251030-125223,1.0.1,20251020-085245,727,Experiment,Both,1,Automatic,main,124,20251030-130419,global,global,750,H,S,E,A,H-E.png,S-A.png,hH,sS,mask-4.png,mask-2.png,h,1,0.7198337999871001,h,0,0.5531954999314621,0.04753470001742244,0.048908400000073016,0.10060300002805889,0.10110039997380227,0.7491461000172421
RSVPLG03,cs,20251030-125223,1.0.1,20251020-085245,727,Experiment,Both,1,Automatic,main,125,20251030-130424,global,global,750,S,S,A,E,S-A.png,S-E.png,sS,sS,mask-2.png,mask-2.png,s,1,0.6949107000837103,h,0,0.08871029992587864,0.04772219993174076,0.04773710004519671,0.09990229993127286,0.10092680004891008,0.7496103999437764
RSVPLG03,cs,20251030-130514,1.0.1,20251020-085245,727,Experiment,Both,1,Automatic,warmup,1,20251030-130541,global,global,750,S,S,E,E,S-E.png,S-E.png,sS,sS,mask-2.png,mask-3.png,s,1,0.8226815999951214,s,1,0.5449127999600023,0.0409505000570789,0.04768690001219511,0.09257840004283935,0.10022439993917942,0.7410929000470787
RSVPLG03,cs,20251030-130514,1.0.1,20251020-085245,727,Experiment,Both,1,Automatic,warmup,2,20251030-130546,local,local,750,H,H,A,E,A-H.png,E-H.png,hH,hH,mask-3.png,mask-1.png,h,1,0.7326791000086814,h,1,0.13425520004238933,0.0486884000711143,0.04703619994688779,0.09993350005242974,0.0992975999834016,0.7485616001067683
RSVPLG03,cs,20251030-130514,1.0.1,20251020-085245,727,Experiment,Both,1,Automatic,warmup,3,20251030-130551,global,global,300,H,H,E,E,H-E.png,H-E.png,hH,hH,mask-3.png,mask-1.png,h,1,0.38367120001930743,h,1,0.06015210004989058,0.04673669999465346,0.046244399971328676,0.09990250004921108,0.10030419996473938,0.2982420000480488
RSVPLG03,cs,20251030-130514,1.0.1,20251020-085245,727,Experiment,Both,1,Automatic,warmup,4,20251030-130555,local,global,750,S,S,E,E,E-S.png,S-E.png,sS,sS,mask-2.png,mask-4.png,s,1,0.44469339994248,h,0,0.02141829999163747,0.04766520007979125,0.04651619994547218,0.09978560009039938,0.09893899993039668,0.7478974000550807
RSVPLG03,cs,20251030-130514,1.0.1,20251020-085245,727,Experiment,Both,1,Automatic,warmup,5,20251030-130600,global,local,750,H,H,A,E,H-A.png,E-H.png,hH,hH,mask-3.png,mask-2.png,h,1,0.3152492999797687,h,1,0.08551749994512647,0.04666290001478046,0.04836819996125996,0.09985259990207851,0.09963929990772158,0.7474784000078216
RSVPLG03,cs,20251030-130514,1.0.1,20251020-085245,727,Experiment,Both,1,Automatic,main,6,20251030-130604,local,local,750,S,S,E,A,E-S.png,A-S.png,sS,sS,mask-4.png,mask-2.png,s,1,0.428230999968946,s,1,0.1536088000284508,0.04770650004502386,0.04869089997373521,0.10094520007260144,0.09993949998170137,0.7481144000776112
RSVPLG03,cs,20251030-130514,1.0.1,20251020-085245,727,Experiment,Both,1,Automatic,main,7,20251030-130609,global,local,750,H,H,A,E,H-A.png,E-H.png,hH,hH,mask-3.png,mask-1.png,h,1,0.3075163000030443,h,1,0.06986799999140203,0.04855680000036955,0.047465500072576106,0.1007294999435544,0.09965410002041608,0.7489977999357507
RSVPLG03,cs,20251030-130514,1.0.1,20251020-085245,727,Experiment,Both,1,Automatic,main,8,20251030-130614,global,local,300,S,S,E,E,S-E.png,E-S.png,sS,sS,mask-3.png,mask-2.png,h,0,0.32169080001767725,s,1,0.003590599982999265,0.045658999937586486,0.047352700028568506,0.09806749993003905,0.10127550002653152,0.29764819995034486
RSVPLG03,cs,20251030-130514,1.0.1,20251020-085245,727,Experiment,Both,1,Automatic,main,9,20251030-130618,local,local,750,S,S,E,E,E-S.png,E-S.png,sS,sS,mask-4.png,mask-3.png,s,1,0.2764483999926597,s,1,0.10569220001343638,0.04762620001565665,0.046112700016237795,0.09981929999776185,0.09901879995595664,0.7490790000883862
RSVPLG03,cs,20251030-130514,1.0.1,20251020-085245,727,Experiment,Both,1,Automatic,main,10,20251030-130622,global,global,300,H,S,A,A,H-A.png,S-A.png,hH,sS,mask-4.png,mask-4.png,h,1,0.4396498000714928,s,1,0.11899370001628995,0.046692100004293025,0.04673750000074506,0.09869120002258569,0.09990759997162968,0.2993951999815181
RSVPLG03,cs,20251030-130514,1.0.1,20251020-085245,727,Experiment,Both,1,Automatic,main,11,20251030-130626,local,local,300,S,H,A,A,A-S.png,A-H.png,sS,hH,mask-2.png,mask-1.png,s,1,0.7719704000046477,h,1,0.042930299998261034,0.047822599997743964,0.0477511000353843,0.10011480003595352,0.09912669996265322,0.29970209999009967
RSVPLG03,cs,20251030-130514,1.0.1,20251020-085245,727,Experiment,Both,1,Automatic,main,12,20251030-130631,local,local,300,S,H,E,E,E-S.png,E-H.png,sS,hH,mask-4.png,mask-2.png,s,1,0.9029646000126377,h,1,0.016504300059750676,0.04738370003178716,0.0483652000548318,0.09860150003805757,0.1004416000796482,0.2989626999478787
RSVPLG03,cs,20251030-130514,1.0.1,20251020-085245,727,Experiment,Both,1,Automatic,main,13,20251030-130636,global,global,300,H,H,E,E,H-E.png,H-E.png,hH,hH,mask-4.png,mask-4.png,h,1,0.6791155999526381,h,1,0.05916459998115897,0.04754230007529259,0.04753540002275258,0.09925640001893044,0.09937349997926503,0.3000130000291392
RSVPLG03,cs,20251030-130514,1.0.1,20251020-085245,727,Experiment,Both,1,Automatic,main,14,20251030-130640,global,local,300,H,H,A,E,H-A.png,E-H.png,hH,hH,mask-2.png,mask-4.png,h,1,0.4072365000611171,h,1,0.0737271000398323,0.04770480003207922,0.04753210011404008,0.10000789992045611,0.09910620003938675,0.29964699991978705
RSVPLG03,cs,20251030-130514,1.0.1,20251020-085245,727,Experiment,Both,1,Automatic,main,15,20251030-130644,global,global,750,S,H,E,E,S-E.png,H-E.png,sS,hH,mask-3.png,mask-2.png,s,1,0.6274596999865025,h,1,0.04109189996961504,0.04754920001141727,0.047364700003527105,0.10066880006343126,0.10037979995831847,0.7485393000533804
RSVPLG03,cs,20251030-130514,1.0.1,20251020-085245,727,Experiment,Both,1,Automatic,main,16,20251030-130649,local,global,750,H,S,A,A,A-H.png,S-A.png,hH,sS,mask-1.png,mask-4.png,h,1,0.5026734999846667,h,0,0.07539859996177256,0.04750889993738383,0.047520400024950504,0.10052719991654158,0.09886310005094856,0.7480908998986706
RSVPLG03,cs,20251030-130514,1.0.1,20251020-085245,727,Experiment,Both,1,Automatic,main,17,20251030-130654,local,local,750,S,H,E,E,E-S.png,E-H.png,sS,hH,mask-1.png,mask-1.png,s,1,0.3618749000597745,h,1,0.0572880000108853,0.047493600053712726,0.04555060004349798,0.09947190003003925,0.0986387999728322,0.749572700005956
RSVPLG03,cs,20251030-130514,1.0.1,20251020-085245,727,Experiment,Both,1,Automatic,main,18,20251030-130658,local,local,300,H,H,A,A,A-H.png,A-H.png,hH,hH,mask-4.png,mask-2.png,h,1,1.0799267999827862,h,1,0.057881099986843765,0.0486187000060454,0.045517300022765994,0.10069609992206097,0.09960299998056144,0.30102239991538227
RSVPLG03,cs,20251030-130514,1.0.1,20251020-085245,727,Experiment,Both,1,Automatic,main,19,20251030-130703,global,local,750,H,S,A,A,H-A.png,A-S.png,hH,sS,mask-2.png,mask-3.png,h,1,0.4730726000852883,h,0,0.06391599995549768,0.04768730001524091,0.045673899934627116,0.09991520002949983,0.099639100022614,0.7491964000510052
RSVPLG03,cs,20251030-130514,1.0.1,20251020-085245,727,Experiment,Both,1,Automatic,main,20,20251030-130708,global,global,300,S,H,E,A,S-E.png,H-A.png,sS,hH,mask-3.png,mask-3.png,s,1,0.6810124000767246,h,1,0.02928389993030578,0.046974899945780635,0.046964599983766675,0.10034819995053113,0.09930620004888624,0.2989321999484673
RSVPLG03,cs,20251030-130514,1.0.1,20251020-085245,727,Experiment,Both,1,Automatic,main,21,20251030-130712,local,global,750,S,S,A,E,A-S.png,S-E.png,sS,sS,mask-3.png,mask-4.png,s,1,0.9633643999695778,h,0,0.0023249000078067183,0.04850479995366186,0.04637519991956651,0.10049560002516955,0.09841999993659556,0.7491052000550553
RSVPLG03,cs,20251030-130514,1.0.1,20251020-085245,727,Experiment,Both,1,Automatic,main,22,20251030-130717,global,global,300,S,S,A,A,S-A.png,S-A.png,sS,sS,mask-2.png,mask-3.png,s,1,0.7715274998918176,h,0,0.02798719995189458,0.047514299978502095,0.047526100068353117,0.09953260002657771,0.10054700006730855,0.2998220999725163
RSVPLG03,cs,20251030-130514,1.0.1,20251020-085245,727,Experiment,Both,1,Automatic,main,23,20251030-130722,local,local,300,S,H,E,A,E-S.png,A-H.png,sS,hH,mask-3.png,mask-3.png,s,1,0.3765928999055177,h,1,0.041898899944499135,0.047675700043328106,0.0479297999991104,0.0996889000525698,0.1010105999885127,0.2992494000354782
RSVPLG03,cs,20251030-130514,1.0.1,20251020-085245,727,Experiment,Both,1,Automatic,main,24,20251030-130726,global,local,750,H,S,A,E,H-A.png,E-S.png,hH,sS,mask-2.png,mask-2.png,h,1,0.5370435999939218,s,1,0.06047370005398989,0.048521499964408576,0.04751990002114326,0.09958529996220022,0.09854490007273853,0.7494914999697357
RSVPLG03,cs,20251030-130514,1.0.1,20251020-085245,727,Experiment,Both,1,Automatic,main,25,20251030-130731,global,local,300,H,H,E,E,H-E.png,E-H.png,hH,hH,mask-4.png,mask-4.png,h,1,0.5329942000098526,h,1,0.06735289993230253,0.045765700051561,0.04753999994136393,0.09987220005132258,0.0995348000433296,0.2992063000565395
RSVPLG03,cs,20251030-130514,1.0.1,20251020-085245,727,Experiment,Both,1,Automatic,main,26,20251030-130736,local,local,750,S,S,A,E,A-S.png,E-S.png,sS,sS,mask-1.png,mask-4.png,s,1,0.644402000005357,h,0,0.01876740006264299,0.0477196000283584,0.047668299986980855,0.09981020004488528,0.09985110000707209,0.7486059999791905
RSVPLG03,cs,20251030-130514,1.0.1,20251020-085245,727,Experiment,Both,1,Automatic,main,27,20251030-130740,global,local,750,H,H,E,E,H-E.png,E-H.png,hH,hH,mask-3.png,mask-2.png,h,1,0.32002020010259,s,0,0.04381420009303838,0.04787380003836006,0.04773630003910512,0.10106880008243024,0.09957429999485612,0.7482406999915838
RSVPLG03,cs,20251030-130514,1.0.1,20251020-085245,727,Experiment,Both,1,Automatic,main,28,20251030-130745,global,local,750,H,H,E,A,H-E.png,A-H.png,hH,hH,mask-2.png,mask-3.png,h,1,0.3484597000060603,h,1,0.09166929998900741,0.047123100026510656,0.04750029998831451,0.09816180006600916,0.10153439990244806,0.7463989000534639
RSVPLG03,cs,20251030-130514,1.0.1,20251020-085245,727,Experiment,Both,1,Automatic,main,29,20251030-130749,global,local,300,H,S,E,A,H-E.png,A-S.png,hH,sS,mask-2.png,mask-4.png,h,1,0.4564836999634281,h,0,0.08716330002062023,0.04750760004390031,0.046899399952962995,0.10058730002492666,0.0979195999680087,0.3005632000276819
RSVPLG03,cs,20251030-130514,1.0.1,20251020-085245,727,Experiment,Both,1,Automatic,main,30,20251030-130754,local,local,300,H,S,E,A,E-H.png,A-S.png,hH,sS,mask-3.png,mask-1.png,h,1,0.7126402999274433,h,0,0.07199670001864433,0.04730790003668517,0.04739199997857213,0.10060270002577454,0.10030279995407909,0.30056330002844334
RSVPLG03,cs,20251030-130514,1.0.1,20251020-085245,727,Experiment,Both,1,Automatic,main,31,20251030-130758,local,global,750,H,H,A,E,A-H.png,H-E.png,hH,hH,mask-3.png,mask-4.png,s,0,0.5978551000589505,s,0,0.3598354000132531,0.04679220006801188,0.047532299999147654,0.09964350005611777,0.09955990000162274,0.7484428000170738
RSVPLG03,cs,20251030-130514,1.0.1,20251020-085245,727,Experiment,Both,1,Automatic,main,32,20251030-130803,local,global,300,H,H,E,A,E-H.png,H-A.png,hH,hH,mask-2.png,mask-3.png,h,1,0.5172274999786168,h,1,0.06998569995630533,0.04853200004436076,0.047577899997122586,0.10166639997623861,0.09865519998129457,0.30079060001298785
RSVPLG03,cs,20251030-130514,1.0.1,20251020-085245,727,Experiment,Both,1,Automatic,main,33,20251030-130807,local,local,300,S,H,A,A,A-S.png,A-H.png,sS,hH,mask-4.png,mask-3.png,s,1,0.6031626999611035,h,1,0.13581370003521442,0.04749040002934635,0.04761320003308356,0.09939210000447929,0.10065889998804778,0.2977882999693975
RSVPLG03,cs,20251030-130514,1.0.1,20251020-085245,727,Experiment,Both,1,Automatic,main,34,20251030-130812,global,local,300,S,S,A,E,S-A.png,E-S.png,sS,sS,mask-1.png,mask-2.png,s,1,0.5167895000195131,h,0,0.602193999919109,0.04655089997686446,0.04668300005141646,0.09859599999617785,0.09988640004303306,0.2992380999494344
RSVPLG03,cs,20251030-130514,1.0.1,20251020-085245,727,Experiment,Both,1,Automatic,main,35,20251030-130817,local,global,300,S,H,E,A,E-S.png,H-A.png,sS,hH,mask-2.png,mask-4.png,s,1,0.3563502000179142,h,1,0.2184204999357462,0.047732100007124245,0.047733700019307435,0.09917969990056008,0.09992910001892596,0.29873569996561855
RSVPLG03,cs,20251030-130514,1.0.1,20251020-085245,727,Experiment,Both,1,Automatic,main,36,20251030-130821,global,global,300,H,S,E,E,H-E.png,S-E.png,hH,sS,mask-1.png,mask-1.png,h,1,0.9019457000540569,h,0,0.10467079991940409,0.04767229990102351,0.04869429999962449,0.09987539995927364,0.10073730000294745,0.29941199999302626
RSVPLG03,cs,20251030-130514,1.0.1,20251020-085245,727,Experiment,Both,1,Automatic,main,37,20251030-130826,local,global,750,H,S,A,E,A-H.png,S-E.png,hH,sS,mask-3.png,mask-3.png,h,1,0.44494040007703006,s,1,0.14462190004996955,0.04772280005272478,0.04668949998449534,0.09978180006146431,0.09987709997221828,0.7484175000572577
RSVPLG03,cs,20251030-130514,1.0.1,20251020-085245,727,Experiment,Both,1,Automatic,main,38,20251030-130830,local,local,750,S,H,A,E,A-S.png,E-H.png,sS,hH,mask-4.png,mask-1.png,h,0,1.0484114000573754,s,0,0.17228269996121526,0.048501300043426454,0.04759659990668297,0.10008779994677752,0.10064560000319034,0.7481858000392094
RSVPLG03,cs,20251030-130514,1.0.1,20251020-085245,727,Experiment,Both,1,Automatic,main,39,20251030-130836,global,local,750,S,S,E,A,S-E.png,A-S.png,sS,sS,mask-2.png,mask-4.png,s,1,0.2807920000050217,s,1,0.13286569993942976,0.047500999993644655,0.04740969999693334,0.10066520003601909,0.09888770000543445,0.7480871999869123
RSVPLG03,cs,20251030-130514,1.0.1,20251020-085245,727,Experiment,Both,1,Automatic,main,40,20251030-130840,global,local,300,S,S,A,A,S-A.png,A-S.png,sS,sS,mask-1.png,mask-3.png,s,1,0.7138316999189556,h,0,0.06627559999469668,0.04850650008302182,0.04762800002936274,0.10075120010878891,0.09972029994241893,0.3005850000772625
RSVPLG03,cs,20251030-130514,1.0.1,20251020-085245,727,Experiment,Both,1,Automatic,main,41,20251030-130845,global,global,750,S,H,E,A,S-E.png,H-A.png,sS,hH,mask-3.png,mask-4.png,s,1,0.36449359997641295,h,1,0.10543250001501292,0.04754639999009669,0.04670309997163713,0.09959110000636429,0.10065689997281879,0.7486667999764904
RSVPLG03,cs,20251030-130514,1.0.1,20251020-085245,727,Experiment,Both,1,Automatic,main,42,20251030-130849,local,global,750,S,S,E,A,E-S.png,S-A.png,sS,sS,mask-2.png,mask-3.png,s,1,1.9052495000651106,s,1,0.055682300007902086,0.04776939994189888,0.04672370001208037,0.09977910004090518,0.09889140003360808,0.748609000002034
RSVPLG03,cs,20251030-130514,1.0.1,20251020-085245,727,Experiment,Both,1,Automatic,main,43,20251030-130855,global,local,300,S,H,A,E,S-A.png,E-H.png,sS,hH,mask-1.png,mask-3.png,s,1,0.6299168999539688,h,1,0.02685689995996654,0.047328799962997437,0.046691900002770126,0.09932089992798865,0.0997334000421688,0.3005790999159217
RSVPLG03,cs,20251030-130514,1.0.1,20251020-085245,727,Experiment,Both,1,Automatic,main,44,20251030-130859,global,local,300,S,S,E,A,S-E.png,A-S.png,sS,sS,mask-1.png,mask-4.png,s,1,0.5924659000011161,h,0,0.06426370004191995,0.04569100006483495,0.046669899951666594,0.09789159998763353,0.09755259996745735,0.29899520007893443
RSVPLG03,cs,20251030-130514,1.0.1,20251020-085245,727,Experiment,Both,1,Automatic,main,45,20251030-130904,local,global,300,H,S,E,E,E-H.png,S-E.png,hH,sS,mask-1.png,mask-3.png,h,1,0.8284436999820173,s,1,0.07232380006462336,0.04773369990289211,0.04650609998498112,0.10075499990489334,0.09819839999545366,0.30089549999684095
RSVPLG03,cs,20251030-130514,1.0.1,20251020-085245,727,Experiment,Both,1,Automatic,main,46,20251030-130908,local,local,750,S,S,A,A,A-S.png,A-S.png,sS,sS,mask-2.png,mask-3.png,s,1,1.6608056999975815,h,0,0.06456170009914786,0.048186799976974726,0.04575619997922331,0.09936190000735223,0.09995980001986027,0.749324299977161
RSVPLG03,cs,20251030-130514,1.0.1,20251020-085245,727,Experiment,Both,1,Automatic,main,47,20251030-130914,global,global,750,H,S,A,A,H-A.png,S-A.png,hH,sS,mask-4.png,mask-2.png,h,1,0.8865104999858886,s,1,0.11789660004433244,0.04683070001192391,0.047538100043311715,0.09903629997279495,0.09863240004051477,0.7486571000190452
RSVPLG03,cs,20251030-130514,1.0.1,20251020-085245,727,Experiment,Both,1,Automatic,main,48,20251030-130919,global,global,750,S,H,E,A,S-E.png,H-A.png,sS,hH,mask-4.png,mask-2.png,s,1,0.7660392000107095,h,1,0.2501409000251442,0.04771660000551492,0.04669770004693419,0.09993909997865558,0.09965370001737028,0.7487682999344543
RSVPLG03,cs,20251030-130514,1.0.1,20251020-085245,727,Experiment,Both,1,Automatic,main,49,20251030-130925,local,global,750,S,S,A,E,A-S.png,S-E.png,sS,sS,mask-1.png,mask-4.png,s,1,0.4301558999577537,s,1,0.05895340000279248,0.04752699995879084,0.046728799934498966,0.09958149993326515,0.0997169999172911,0.7480146000161767
RSVPLG03,cs,20251030-130514,1.0.1,20251020-085245,727,Experiment,Both,1,Automatic,main,50,20251030-130929,global,global,750,H,H,E,E,H-E.png,H-E.png,hH,hH,mask-2.png,mask-2.png,h,1,0.4837518000276759,h,1,0.09765290003269911,0.045588400098495185,0.04689979995600879,0.09958630008623004,0.10068939998745918,0.7464732000371441
RSVPLG03,cs,20251030-130514,1.0.1,20251020-085245,727,Experiment,Both,1,Automatic,main,51,20251030-130935,global,global,750,H,S,A,E,H-A.png,S-E.png,hH,sS,mask-2.png,mask-1.png,h,1,0.3602511000353843,s,1,0.03840620000846684,0.04656090005300939,0.04752409993670881,0.09858240000903606,0.09962049999739975,0.7467532000737265
RSVPLG03,cs,20251030-130514,1.0.1,20251020-085245,727,Experiment,Both,1,Automatic,main,52,20251030-130940,global,global,300,H,H,A,E,H-A.png,H-E.png,hH,hH,mask-3.png,mask-4.png,h,1,0.6436128999339417,h,1,0.08715050003957003,0.04798579995986074,0.04698210000060499,0.10013609996531159,0.09822970000095665,0.2999859999399632
RSVPLG03,cs,20251030-130514,1.0.1,20251020-085245,727,Experiment,Both,1,Automatic,main,53,20251030-130944,local,local,750,H,H,A,A,A-H.png,A-H.png,hH,hH,mask-2.png,mask-2.png,h,1,0.7437736999709159,h,1,0.08371979999355972,0.04752290004398674,0.04749400005675852,0.0996157000772655,0.10150390001945198,0.7479700000258163
RSVPLG03,cs,20251030-130514,1.0.1,20251020-085245,727,Experiment,Both,1,Automatic,main,54,20251030-130949,global,local,300,H,S,E,A,H-E.png,A-S.png,hH,sS,mask-4.png,mask-2.png,h,1,0.5146595999831334,h,0,0.08699069998692721,0.04752280004322529,0.047529099974781275,0.0995545000769198,0.09955219994299114,0.300167000037618
RSVPLG03,cs,20251030-130514,1.0.1,20251020-085245,727,Experiment,Both,1,Automatic,main,55,20251030-130954,global,global,750,H,H,A,A,H-A.png,H-A.png,hH,hH,mask-2.png,mask-2.png,h,1,0.5956107000820339,h,1,0.08844680001493543,0.047558900085277855,0.0475447999779135,0.09858770004939288,0.09955229994375259,0.7481575000565499
RSVPLG03,cs,20251030-130514,1.0.1,20251020-085245,727,Experiment,Both,1,Automatic,main,56,20251030-130958,global,local,750,H,H,E,A,H-E.png,A-H.png,hH,hH,mask-3.png,mask-3.png,h,1,0.5015160000184551,h,1,0.5548200000775978,0.04752390005160123,0.04752699995879084,0.09958789998199791,0.09953979996498674,0.7481964000035077
RSVPLG03,cs,20251030-130514,1.0.1,20251020-085245,727,Experiment,Both,1,Automatic,main,57,20251030-131004,local,global,750,H,H,E,E,E-H.png,H-E.png,hH,hH,mask-1.png,mask-2.png,h,1,0.5428054000949487,h,1,0.12216619995888323,0.04597009997814894,0.04672049998771399,0.09867680002935231,0.0999198000645265,0.7477782999631017
RSVPLG03,cs,20251030-130514,1.0.1,20251020-085245,727,Experiment,Both,1,Automatic,main,58,20251030-131008,local,local,750,H,S,E,A,E-H.png,A-S.png,hH,sS,mask-2.png,mask-3.png,h,1,0.6173803999554366,s,1,0.03928889997769147,0.048513000016100705,0.0475021000020206,0.10065769997891039,0.09936150000430644,0.7493048999458551
RSVPLG03,cs,20251030-130514,1.0.1,20251020-085245,727,Experiment,Both,1,Automatic,main,59,20251030-131013,global,global,300,H,H,E,A,H-E.png,H-A.png,hH,hH,mask-3.png,mask-3.png,h,1,0.8559620000887662,s,0,0.16036099998746067,0.04726199992001057,0.04752660007216036,0.10026650002691895,0.09963339997921139,0.29994029994122684
RSVPLG03,cs,20251030-130514,1.0.1,20251020-085245,727,Experiment,Both,1,Automatic,main,60,20251030-131018,global,local,750,H,H,E,E,H-E.png,E-H.png,hH,hH,mask-3.png,mask-4.png,h,1,0.4428650999907404,h,1,0.08468500000890344,0.046523299999535084,0.047708299942314625,0.09956060000695288,0.09991709992755204,0.7480546000879258
RSVPLG03,cs,20251030-130514,1.0.1,20251020-085245,727,Experiment,Both,1,Automatic,main,61,20251030-131023,local,local,300,H,H,A,A,A-H.png,A-H.png,hH,hH,mask-4.png,mask-1.png,h,1,0.631537799956277,h,1,0.08532469999045134,0.04764220002107322,0.0477553999517113,0.09983319998718798,0.09987509995698929,0.2976418000180274
RSVPLG03,cs,20251030-130514,1.0.1,20251020-085245,727,Experiment,Both,1,Automatic,main,62,20251030-131027,local,local,300,S,S,A,E,A-S.png,E-S.png,sS,sS,mask-1.png,mask-4.png,h,0,0.9788829000899568,s,1,0.19949399994220585,0.04663230001460761,0.0486924999859184,0.10003420000430197,0.10089329991023988,0.29883950005751103
RSVPLG03,cs,20251030-130514,1.0.1,20251020-085245,727,Experiment,Both,1,Automatic,main,63,20251030-131032,local,global,300,S,S,E,A,E-S.png,S-A.png,sS,sS,mask-3.png,mask-4.png,h,0,0.5232086000032723,s,1,0.0547921999823302,0.047663999954238534,0.04672189999837428,0.09905759990215302,0.1000491000013426,0.29885019990615547
RSVPLG03,cs,20251030-130514,1.0.1,20251020-085245,727,Experiment,Both,1,Automatic,main,64,20251030-131036,global,global,300,S,S,A,E,S-A.png,S-E.png,sS,sS,mask-4.png,mask-3.png,s,1,0.44514770002570003,h,0,0.07717479998245835,0.04794640000909567,0.04770060000009835,0.09959180001169443,0.09996709995903075,0.2997433999553323
RSVPLG03,cs,20251030-130514,1.0.1,20251020-085245,727,Experiment,Both,1,Automatic,main,65,20251030-131040,local,global,750,H,H,A,A,A-H.png,H-A.png,hH,hH,mask-4.png,mask-2.png,s,0,0.43132199998945,s,0,0.682042200001888,0.04676150006707758,0.047750999918207526,0.09968570002820343,0.09966910001821816,0.7481106000486761
RSVPLG03,cs,20251030-130514,1.0.1,20251020-085245,727,Experiment,Both,1,Automatic,main,66,20251030-131045,local,global,750,S,S,A,A,A-S.png,S-A.png,sS,sS,mask-3.png,mask-4.png,s,1,0.4657566000241786,s,1,0.1188427999150008,0.04751449998002499,0.04752829996868968,0.10052109998650849,0.10054239991586655,0.7478055000538006
RSVPLG03,cs,20251030-130514,1.0.1,20251020-085245,727,Experiment,Both,1,Automatic,main,67,20251030-131050,global,global,300,H,H,A,A,H-A.png,H-A.png,hH,hH,mask-2.png,mask-4.png,h,1,0.8476733000716195,s,0,0.12433200003579259,0.04755550005938858,0.04845399991609156,0.10092080000322312,0.10044179996475577,0.2990823000436649
RSVPLG03,cs,20251030-130514,1.0.1,20251020-085245,727,Experiment,Both,1,Automatic,main,68,20251030-131055,local,global,750,H,H,A,E,A-H.png,H-E.png,hH,hH,mask-2.png,mask-3.png,s,0,0.4381561999907717,h,1,0.1556976999854669,0.048668700037524104,0.04766080004628748,0.09987220005132258,0.09885700000450015,0.7493095999816433
RSVPLG03,cs,20251030-130514,1.0.1,20251020-085245,727,Experiment,Both,1,Automatic,main,69,20251030-131100,global,global,750,S,H,E,E,S-E.png,H-E.png,sS,hH,mask-4.png,mask-1.png,h,0,0.763098799972795,s,0,0.06245149997994304,0.04770759993698448,0.04571179999038577,0.10003289999440312,0.0980439999839291,0.7496852999320254
RSVPLG03,cs,20251030-130514,1.0.1,20251020-085245,727,Experiment,Both,1,Automatic,main,70,20251030-131104,local,global,300,H,H,E,E,E-H.png,H-E.png,hH,hH,mask-3.png,mask-4.png,s,0,0.6076412999536842,h,1,0.08767859998624772,0.04753700003493577,0.047532099997624755,0.10058930004015565,0.1005621999502182,0.2999191000126302
RSVPLG03,cs,20251030-130514,1.0.1,20251020-085245,727,Experiment,Both,1,Automatic,main,71,20251030-131109,local,local,300,H,H,E,A,E-H.png,A-H.png,hH,hH,mask-1.png,mask-4.png,h,1,0.7085515999933705,s,0,0.8526794000063092,0.04651029990054667,0.048548499937169254,0.0989048999035731,0.10055109998211265,0.2982019999762997
RSVPLG03,cs,20251030-130514,1.0.1,20251020-085245,727,Experiment,Both,1,Automatic,main,72,20251030-131113,local,global,300,S,H,E,E,E-S.png,H-E.png,sS,hH,mask-3.png,mask-1.png,s,1,0.3863667999394238,h,1,0.04514479998033494,0.047526300069876015,0.0485251999925822,0.10155360004864633,0.09957740001846105,0.29985940002370626
RSVPLG03,cs,20251030-130514,1.0.1,20251020-085245,727,Experiment,Both,1,Automatic,main,73,20251030-131117,global,global,750,H,S,A,A,H-A.png,S-A.png,hH,sS,mask-2.png,mask-2.png,h,1,0.5343099000165239,h,0,0.08686050004325807,0.04867209994699806,0.0456834000069648,0.09988410002551973,0.09788060002028942,0.7495948999421671
RSVPLG03,cs,20251030-130514,1.0.1,20251020-085245,727,Experiment,Both,1,Automatic,main,74,20251030-131122,global,global,300,H,H,E,E,H-E.png,H-E.png,hH,hH,mask-4.png,mask-4.png,h,1,0.45246099994983524,s,0,0.09000309999100864,0.047678799950517714,0.04770589992403984,0.09984069992788136,0.10092160000931472,0.2994413999840617
RSVPLG03,cs,20251030-130514,1.0.1,20251020-085245,727,Experiment,Both,1,Automatic,main,75,20251030-131126,local,global,750,S,H,A,A,A-S.png,H-A.png,sS,hH,mask-1.png,mask-1.png,s,1,0.5189326000399888,s,0,0.07643430004827678,0.04802440002094954,0.048561199917458,0.10115700005553663,0.10057210002560169,0.7471975000808015
RSVPLG03,cs,20251030-130514,1.0.1,20251020-085245,727,Experiment,Both,1,Automatic,main,76,20251030-131132,global,local,750,H,H,A,E,H-A.png,E-H.png,hH,hH,mask-3.png,mask-4.png,h,1,0.3787067999364808,h,1,0.07407750003039837,0.04716379998717457,0.04752989998087287,0.09969679999630898,0.09859579999465495,0.7482730000047013
RSVPLG03,cs,20251030-130514,1.0.1,20251020-085245,727,Experiment,Both,1,Automatic,main,77,20251030-131137,local,local,300,S,H,A,A,A-S.png,A-H.png,sS,hH,mask-4.png,mask-3.png,s,1,0.40397609991487116,s,0,0.10101500002201647,0.047538200044073164,0.04579469992313534,0.10105569998268038,0.09978889999911189,0.299773900071159
RSVPLG03,cs,20251030-130514,1.0.1,20251020-085245,727,Experiment,Both,1,Automatic,main,78,20251030-131141,global,global,300,S,S,A,E,S-A.png,S-E.png,sS,sS,mask-1.png,mask-4.png,s,1,1.0182172000641003,h,0,0.05336919997353107,0.04558569996152073,0.048529100022278726,0.09862169995903969,0.10055490001104772,0.297716400003992
RSVPLG03,cs,20251030-130514,1.0.1,20251020-085245,727,Experiment,Both,1,Automatic,main,79,20251030-131146,global,global,300,H,S,E,A,H-E.png,S-A.png,hH,sS,mask-2.png,mask-3.png,h,1,0.5090833000140265,h,0,0.07322160003241152,0.04675620002672076,0.04638559999875724,0.09996760007925332,0.10023290000390261,0.2986374000320211
RSVPLG03,cs,20251030-130514,1.0.1,20251020-085245,727,Experiment,Both,1,Automatic,main,80,20251030-131150,local,local,750,S,H,A,E,A-S.png,E-H.png,sS,hH,mask-4.png,mask-2.png,s,1,0.2507360000163317,h,1,0.07117609994020313,0.047695300076156855,0.047775199986062944,0.09893830004148185,0.09995129995513707,0.7478242000797763
RSVPLG03,cs,20251030-130514,1.0.1,20251020-085245,727,Experiment,Both,1,Automatic,main,81,20251030-131154,global,local,750,S,H,A,E,S-A.png,E-H.png,sS,hH,mask-2.png,mask-1.png,s,1,0.4107426000991836,h,1,0.10810250008944422,0.047586900065653026,0.04770280001685023,0.09977860003709793,0.09984409995377064,0.748003700049594
RSVPLG03,cs,20251030-130514,1.0.1,20251020-085245,727,Experiment,Both,1,Automatic,main,82,20251030-131159,local,local,300,H,H,E,A,E-H.png,A-H.png,hH,hH,mask-1.png,mask-2.png,h,1,0.6824995999922976,h,1,0.090710400021635,0.048368999967351556,0.04743319994304329,0.0993085999507457,0.0993951999116689,0.29924810002557933
RSVPLG03,cs,20251030-130514,1.0.1,20251020-085245,727,Experiment,Both,1,Automatic,main,83,20251030-131203,local,global,300,H,H,A,A,A-H.png,H-A.png,hH,hH,mask-4.png,mask-2.png,h,1,0.543796900077723,h,1,0.09270949999336153,0.047521399916149676,0.04885549994651228,0.10070619999896735,0.10011709993705153,0.29846449999604374
RSVPLG03,cs,20251030-130514,1.0.1,20251020-085245,727,Experiment,Both,1,Automatic,main,84,20251030-131208,global,global,750,H,S,E,A,H-E.png,S-A.png,hH,sS,mask-2.png,mask-3.png,h,1,0.4974625000031665,s,1,0.12386719998903573,0.04756229999475181,0.048795900074765086,0.10008649993687868,0.1003603000426665,0.747209099936299
RSVPLG03,cs,20251030-130514,1.0.1,20251020-085245,727,Experiment,Both,1,Automatic,main,85,20251030-131213,local,global,300,H,H,A,A,A-H.png,H-A.png,hH,hH,mask-4.png,mask-1.png,h,1,0.9004032000666484,h,1,0.07036859996151179,0.04639809997752309,0.04759370000101626,0.09960479999426752,0.09967999998480082,0.2986047000158578
RSVPLG03,cs,20251030-130514,1.0.1,20251020-085245,727,Experiment,Both,1,Automatic,main,86,20251030-131217,local,global,300,S,H,A,E,A-S.png,H-E.png,sS,hH,mask-1.png,mask-2.png,s,1,0.6506843999959528,h,1,0.06888430006802082,0.0466145999962464,0.04762510000728071,0.09861880005337298,0.09964779997244477,0.2989108000183478
RSVPLG03,cs,20251030-130514,1.0.1,20251020-085245,727,Experiment,Both,1,Automatic,main,87,20251030-131222,local,local,300,S,H,A,E,A-S.png,E-H.png,sS,hH,mask-1.png,mask-2.png,s,1,0.6119697999674827,h,1,0.054845500038936734,0.04751619999296963,0.047548600006848574,0.10027319996152073,0.09858440002426505,0.29998339992016554
RSVPLG03,cs,20251030-130514,1.0.1,20251020-085245,727,Experiment,Both,1,Automatic,main,88,20251030-131226,global,local,750,S,H,E,E,S-E.png,E-H.png,sS,hH,mask-4.png,mask-4.png,s,1,0.6719473000848666,h,1,0.054397800005972385,0.04758159990888089,0.04557299998123199,0.09961149992886931,0.09964909998234361,0.7488993000006303
RSVPLG03,cs,20251030-130514,1.0.1,20251020-085245,727,Experiment,Both,1,Automatic,main,89,20251030-131231,local,global,750,H,S,A,A,A-H.png,S-A.png,hH,sS,mask-2.png,mask-4.png,h,1,0.8400096000405028,s,1,0.10821500001475215,0.047625300008803606,0.04741860006470233,0.10061189997941256,0.10042410006280988,0.7492875999305397
RSVPLG03,cs,20251030-130514,1.0.1,20251020-085245,727,Experiment,Both,1,Automatic,main,90,20251030-131236,global,local,300,S,H,A,A,S-A.png,A-H.png,sS,hH,mask-1.png,mask-4.png,s,1,0.4358363999053836,h,1,0.08038420008961111,0.04754599998705089,0.04758220002986491,0.09822259994689375,0.09950380004011095,0.29828909994103014
RSVPLG03,cs,20251030-130514,1.0.1,20251020-085245,727,Experiment,Both,1,Automatic,main,91,20251030-131240,global,global,300,H,S,E,A,H-E.png,S-A.png,hH,sS,mask-2.png,mask-4.png,h,1,0.791839100071229,h,0,0.060285800020210445,0.04755800007842481,0.04861010005697608,0.09996690007392317,0.10082870000042021,0.2987878000130877
RSVPLG03,cs,20251030-130514,1.0.1,20251020-085245,727,Experiment,Both,1,Automatic,main,92,20251030-131245,local,global,300,H,H,E,E,E-H.png,H-E.png,hH,hH,mask-1.png,mask-3.png,h,1,0.40626350010279566,h,1,0.08490130002610385,0.04812709998805076,0.04672089999075979,0.10119299998041242,0.09974819992203265,0.3004431000445038
RSVPLG03,cs,20251030-130514,1.0.1,20251020-085245,727,Experiment,Both,1,Automatic,main,93,20251030-131249,global,local,750,S,H,A,A,S-A.png,A-H.png,sS,hH,mask-1.png,mask-1.png,s,1,0.47219660005066544,h,1,0.10465430002659559,0.0486811000155285,0.04686140001285821,0.10084139998070896,0.0990640000673011,0.7484332999447361
RSVPLG03,cs,20251030-130514,1.0.1,20251020-085245,727,Experiment,Both,1,Automatic,main,94,20251030-131254,local,global,300,S,H,E,E,E-S.png,H-E.png,sS,hH,mask-3.png,mask-4.png,h,0,1.4500568999210373,s,0,0.11840410006698221,0.047499399981461465,0.04619819996878505,0.09948569990228862,0.09808089991565794,0.30055639997590333
RSVPLG03,cs,20251030-130514,1.0.1,20251020-085245,727,Experiment,Both,1,Automatic,main,95,20251030-131259,global,global,750,S,H,E,A,S-E.png,H-A.png,sS,hH,mask-4.png,mask-4.png,s,1,0.49705830006860197,h,1,0.05608000000938773,0.047517500002868474,0.04683010000735521,0.10054200002923608,0.0999619000358507,0.7479621999664232
RSVPLG03,cs,20251030-130514,1.0.1,20251020-085245,727,Experiment,Both,1,Automatic,main,96,20251030-131304,local,global,750,S,H,A,E,A-S.png,H-E.png,sS,hH,mask-1.png,mask-1.png,h,0,0.3275495000416413,h,1,0.08144580002408475,0.04751539998687804,0.0464660000288859,0.09955420007463545,0.09880230005364865,0.7495608000317588
RSVPLG03,cs,20251030-130514,1.0.1,20251020-085245,727,Experiment,Both,1,Automatic,main,97,20251030-131308,global,global,750,S,H,E,A,S-E.png,H-A.png,sS,hH,mask-1.png,mask-4.png,s,1,2.2134230999508873,h,1,0.029895300045609474,0.04737289994955063,0.04753390001133084,0.09930579992942512,0.09956650005187839,0.7469936999259517
RSVPLG03,cs,20251030-130514,1.0.1,20251020-085245,727,Experiment,Both,1,Automatic,main,98,20251030-131315,local,local,750,H,S,A,E,A-H.png,E-S.png,hH,sS,mask-4.png,mask-3.png,h,1,0.2941476000705734,s,1,0.043195400037802756,0.04757000005338341,0.04662419995293021,0.1005589000415057,0.09980209998320788,0.7492532000178471
RSVPLG03,cs,20251030-130514,1.0.1,20251020-085245,727,Experiment,Both,1,Automatic,main,99,20251030-131319,local,local,300,H,S,E,A,E-H.png,A-S.png,hH,sS,mask-3.png,mask-4.png,h,1,0.4577422000002116,s,1,0.005539099918678403,0.0466263999696821,0.047161599970422685,0.09971039998345077,0.1001918000401929,0.30014479998499155
RSVPLG03,cs,20251030-130514,1.0.1,20251020-085245,727,Experiment,Both,1,Automatic,main,100,20251030-131323,local,local,750,H,S,A,A,A-H.png,A-S.png,hH,sS,mask-4.png,mask-2.png,s,0,0.36742620007134974,s,1,1.0679218000732362,0.04884300008416176,0.04750029998831451,0.09982580004725605,0.09851629997137934,0.7494292000774294
RSVPLG03,cs,20251030-130514,1.0.1,20251020-085245,727,Experiment,Both,1,Automatic,main,101,20251030-131330,global,global,300,S,S,E,E,S-E.png,S-E.png,sS,sS,mask-1.png,mask-2.png,s,1,0.4019984999904409,h,0,0.10912009992171079,0.04751800000667572,0.04721840005367994,0.10053329996298999,0.09847720002289861,0.30030779994558543
RSVPLG03,cs,20251030-130514,1.0.1,20251020-085245,727,Experiment,Both,1,Automatic,main,102,20251030-131335,global,local,750,S,H,E,A,S-E.png,A-H.png,sS,hH,mask-1.png,mask-4.png,s,1,0.43998550006654114,h,1,0.16651870007626712,0.04741709993686527,0.04853129992261529,0.09870710002724081,0.10156899993307889,0.7474645000183955
RSVPLG03,cs,20251030-130514,1.0.1,20251020-085245,727,Experiment,Both,1,Automatic,main,103,20251030-131339,local,global,300,S,H,A,A,A-S.png,H-A.png,sS,hH,mask-2.png,mask-2.png,h,0,0.47183419996872544,s,0,0.15147110004909337,0.04754910001065582,0.04757990001235157,0.09955050004646182,0.09959230001550168,0.3001689000520855
RSVPLG03,cs,20251030-130514,1.0.1,20251020-085245,727,Experiment,Both,1,Automatic,main,104,20251030-131344,local,local,750,S,H,E,A,E-S.png,A-H.png,sS,hH,mask-1.png,mask-1.png,s,1,0.3769809000659734,h,1,0.07609640003647655,0.04750039998907596,0.047378199989907444,0.0988447000272572,0.09843340003862977,0.7491742999991402
RSVPLG03,cs,20251030-130514,1.0.1,20251020-085245,727,Experiment,Both,1,Automatic,main,105,20251030-131348,local,global,300,S,H,E,A,E-S.png,H-A.png,sS,hH,mask-4.png,mask-3.png,s,1,0.472181300050579,h,1,0.18914239993318915,0.048585700104013085,0.0475165001116693,0.1006392000708729,0.10055760003160685,0.30089569999836385
RSVPLG03,cs,20251030-130514,1.0.1,20251020-085245,727,Experiment,Both,1,Automatic,main,106,20251030-131353,global,global,750,H,H,E,E,H-E.png,H-E.png,hH,hH,mask-2.png,mask-1.png,h,1,0.4915882999775931,h,1,0.07617989997379482,0.04736289998982102,0.047373299952596426,0.10029380000196397,0.09980209998320788,0.7493942000437528
RSVPLG03,cs,20251030-130514,1.0.1,20251020-085245,727,Experiment,Both,1,Automatic,main,107,20251030-131357,local,local,300,S,S,A,E,A-S.png,E-S.png,sS,sS,mask-2.png,mask-2.png,s,1,0.5671808000188321,s,1,0.17753659992013127,0.04672380001284182,0.04840379999950528,0.09885820001363754,0.10087810002733022,0.2976350999670103
RSVPLG03,cs,20251030-130514,1.0.1,20251020-085245,727,Experiment,Both,1,Automatic,main,108,20251030-131402,local,local,750,S,S,E,A,E-S.png,A-S.png,sS,sS,mask-4.png,mask-4.png,s,1,0.44610579998698086,s,1,0.20811539993155748,0.04755410004872829,0.0465950999641791,0.09956160001456738,0.09866220003459603,0.7484427000163123
RSVPLG03,cs,20251030-130514,1.0.1,20251020-085245,727,Experiment,Both,1,Automatic,main,109,20251030-131407,local,local,300,S,S,A,A,A-S.png,A-S.png,sS,sS,mask-4.png,mask-2.png,s,1,0.5542131999973208,h,0,0.1602536999853328,0.04852740000933409,0.048517700051888824,0.09953450004104525,0.10053260007407516,0.29875219997484237
RSVPLG03,cs,20251030-130514,1.0.1,20251020-085245,727,Experiment,Both,1,Automatic,main,110,20251030-131411,local,local,750,S,S,E,E,E-S.png,E-S.png,sS,sS,mask-3.png,mask-1.png,s,1,0.3914291999535635,s,1,0.10433540004305542,0.04760879999957979,0.04650370008312166,0.10046240000519902,0.09958020003978163,0.7478708999697119
RSVPLG03,cs,20251030-130514,1.0.1,20251020-085245,727,Experiment,Both,1,Automatic,main,111,20251030-131416,local,global,300,H,H,E,E,E-H.png,H-E.png,hH,hH,mask-1.png,mask-2.png,h,1,0.46955389995127916,s,0,0.2215476999990642,0.04800990002695471,0.048475999967195094,0.10101049998775125,0.09929240006022155,0.3000387999927625
RSVPLG03,cs,20251030-130514,1.0.1,20251020-085245,727,Experiment,Both,1,Automatic,main,112,20251030-131420,local,local,750,S,H,A,E,A-S.png,E-H.png,sS,hH,mask-2.png,mask-1.png,s,1,0.4447844000533223,h,1,0.18907930003479123,0.04752969997934997,0.04652350000105798,0.10054889996536076,0.09961909998673946,0.7488742000423372
RSVPLG03,cs,20251030-130514,1.0.1,20251020-085245,727,Experiment,Both,1,Automatic,main,113,20251030-131425,local,global,750,H,H,A,E,A-H.png,H-E.png,hH,hH,mask-3.png,mask-3.png,h,1,0.39152299996931106,h,1,0.20537989994045347,0.047538100043311715,0.04555310006253421,0.09956130001228303,0.09959970007184893,0.7496587999630719
RSVPLG03,cs,20251030-130514,1.0.1,20251020-085245,727,Experiment,Both,1,Automatic,main,114,20251030-131429,global,global,750,H,H,E,E,H-E.png,H-E.png,hH,hH,mask-4.png,mask-4.png,h,1,0.5013712999643758,h,1,0.14120499999262393,0.047535300021991134,0.048549799947068095,0.10069809993728995,0.10056809999514371,0.7478149000089616
RSVPLG03,cs,20251030-130514,1.0.1,20251020-085245,727,Experiment,Both,1,Automatic,main,115,20251030-131434,global,local,750,S,H,E,E,S-E.png,E-H.png,sS,hH,mask-2.png,mask-3.png,s,1,0.46745489991735667,h,1,0.10941220005042851,0.04795619996730238,0.04573150002397597,0.0996817999985069,0.09792780003044754,0.7495119998930022
RSVPLG03,cs,20251030-130514,1.0.1,20251020-085245,727,Experiment,Both,1,Automatic,main,116,20251030-131439,global,local,300,H,H,A,A,H-A.png,A-H.png,hH,hH,mask-3.png,mask-2.png,h,1,0.5372396000893787,h,1,0.13475389999803156,0.04670619999524206,0.046713000047020614,0.09876930003520101,0.09997180011123419,0.2994563999818638
RSVPLG03,cs,20251030-130514,1.0.1,20251020-085245,727,Experiment,Both,1,Automatic,main,117,20251030-131443,global,local,750,H,H,E,A,H-E.png,A-H.png,hH,hH,mask-3.png,mask-2.png,h,1,0.3769379999721423,h,1,0.12355330004356802,0.04757900000549853,0.04823499999474734,0.0986623999197036,0.10034359991550446,0.7469891000073403
RSVPLG03,cs,20251030-130514,1.0.1,20251020-085245,727,Experiment,Both,1,Automatic,main,118,20251030-131448,global,local,300,S,H,A,A,S-A.png,A-H.png,sS,hH,mask-3.png,mask-3.png,s,1,0.5173167999600992,h,1,0.10616249998565763,0.04772400006186217,0.045982300071045756,0.09993819997180253,0.10027030005585402,0.3006341999862343
RSVPLG03,cs,20251030-130514,1.0.1,20251020-085245,727,Experiment,Both,1,Automatic,main,119,20251030-131452,global,global,300,H,S,E,E,H-E.png,S-E.png,hH,sS,mask-4.png,mask-2.png,h,1,0.4545034000184387,h,0,0.05401799990795553,0.04868859995622188,0.04753550002351403,0.10003269999288023,0.09959730005357414,0.29913009994197637
RSVPLG03,cs,20251030-130514,1.0.1,20251020-085245,727,Experiment,Both,1,Automatic,main,120,20251030-131456,global,local,300,H,H,A,A,H-A.png,A-H.png,hH,hH,mask-1.png,mask-1.png,h,1,0.47164779994636774,h,1,0.10603899997659028,0.047675700043328106,0.046689199982210994,0.09988520003389567,0.09987419995013624,0.2985614000353962
RSVPLG03,cs,20251030-130514,1.0.1,20251020-085245,727,Experiment,Both,1,Automatic,main,121,20251030-131501,global,local,300,H,S,E,E,H-E.png,E-S.png,hH,sS,mask-4.png,mask-4.png,h,1,0.48028230003546923,s,1,0.09811659995466471,0.045865299995057285,0.046786700026132166,0.09884480002801865,0.09986640000715852,0.29848280001897365
RSVPLG03,cs,20251030-130514,1.0.1,20251020-085245,727,Experiment,Both,1,Automatic,main,122,20251030-131505,local,global,750,S,H,E,E,E-S.png,H-E.png,sS,hH,mask-3.png,mask-2.png,s,1,0.2802629000507295,h,1,0.09225679992232472,0.04769549996126443,0.04667319997679442,0.09965270000975579,0.09976789995562285,0.7483485999982804
RSVPLG03,cs,20251030-130514,1.0.1,20251020-085245,727,Experiment,Both,1,Automatic,main,123,20251030-131509,global,global,750,S,H,E,A,S-E.png,H-A.png,sS,hH,mask-3.png,mask-3.png,s,1,0.32681960007175803,h,1,0.07062919996678829,0.0475206000264734,0.047515799989923835,0.09952819999307394,0.09952950000297278,0.7489984000567347
RSVPLG03,cs,20251030-130514,1.0.1,20251020-085245,727,Experiment,Both,1,Automatic,main,124,20251030-131514,global,local,300,S,H,E,A,S-E.png,A-H.png,sS,hH,mask-1.png,mask-4.png,s,1,0.45343389990739524,h,1,0.37919149990193546,0.04651809995993972,0.04569860000628978,0.0985350999981165,0.09876470000017434,0.2987997999880463
RSVPLG03,cs,20251030-130514,1.0.1,20251020-085245,727,Experiment,Both,1,Automatic,main,125,20251030-131519,local,global,300,S,H,A,E,A-S.png,H-E.png,sS,hH,mask-1.png,mask-2.png,s,1,0.6980862999334931,s,0,0.07749699999112636,0.04694789997301996,0.04676649998873472,0.09996320004574955,0.09989640000276268,0.30019560002256185
