exp,exp_initials,runtime,ver,modtime,sub,blocktype,targets,cuetype,mode,trialtype,trial,trialtime,t1_level,t2_level,t2_lag,t1,t2,distractor1,distractor2,stimfile1,stimfile2,t1_corr,t2_corr,maskfile1,maskfile2,t1_resp,t1_acc,t1_rt,t2_resp,t2_acc,t2_rt,t1_dur,t2_dur,t1mask_soa,t2mask_soa,t1t2_soa
RSVPLG03,si,20260408-082719,1.0.2,20260219-152011,817,Introduction,T1,1,Automatic,main,1,20260408-082743,local,global,750,S,S,E,E,E-S.png,S-E.png,sS,sS,mask-3.png,mask-2.png,s,1,0.23207050003111362,none,-5,0,0.09975720010697842,0.10021380009129643,0.20081589999608696,0.19936550012789667,0.7506695999763906
RSVPLG03,si,20260408-082719,1.0.2,20260219-152011,817,Introduction,T1,1,Automatic,main,2,20260408-082748,global,global,750,H,H,E,E,H-E.png,H-E.png,hH,hH,mask-3.png,mask-2.png,h,1,0.9807190999854356,none,-5,0,0.1012474000453949,0.1004385999403894,0.20109739992767572,0.20197460008785129,0.7500281999818981
RSVPLG03,si,20260408-082719,1.0.2,20260219-152011,817,Introduction,T1,1,Automatic,main,3,20260408-082753,local,local,750,S,S,A,A,A-S.png,A-S.png,sS,sS,mask-4.png,mask-3.png,s,1,0.3137922999449074,none,-5,0,0.09780299989506602,0.10114309983327985,0.19797879992984235,0.20138149987906218,0.7475616000592709
RSVPLG03,si,20260408-082719,1.0.2,20260219-152011,817,Introduction,T1,1,Automatic,main,4,20260408-082757,global,global,750,H,H,E,A,H-E.png,H-A.png,hH,hH,mask-3.png,mask-4.png,h,1,0.4988297999370843,none,-5,0,0.09971930016763508,0.10211520013399422,0.20020990003831685,0.1999925000127405,0.7500922000035644
RSVPLG03,si,20260408-082719,1.0.2,20260219-152011,817,Introduction,T1,1,Automatic,main,5,20260408-082802,local,local,750,S,S,A,E,A-S.png,E-S.png,sS,sS,mask-2.png,mask-1.png,s,1,0.8186176000162959,none,-5,0,0.10007669986225665,0.0999310000333935,0.2020220998674631,0.20040970016270876,0.7507276998367161
RSVPLG03,si,20260408-082719,1.0.2,20260219-152011,817,Introduction,T1,1,Automatic,main,6,20260408-082807,global,local,750,S,S,A,A,S-A.png,A-S.png,sS,sS,mask-4.png,mask-1.png,s,1,0.5901156000327319,none,-5,0,0.10123579995706677,0.09978509997017682,0.20010120002552867,0.19941559992730618,0.7502105999737978
RSVPLG03,si,20260408-082719,1.0.2,20260219-152011,817,Introduction,T1,1,Automatic,main,7,20260408-082812,global,global,750,S,H,A,E,S-A.png,H-E.png,sS,hH,mask-2.png,mask-1.png,h,0,0.48357619997113943,none,-5,0,0.0996748001780361,0.10106370016001165,0.19919560011476278,0.19926890009082854,0.74974330002442
RSVPLG03,si,20260408-082719,1.0.2,20260219-152011,817,Introduction,T1,1,Automatic,main,8,20260408-082816,global,local,750,H,S,E,E,H-E.png,E-S.png,hH,sS,mask-4.png,mask-4.png,h,1,1.6611214999575168,none,-5,0,0.09879330010153353,0.0984054000582546,0.19943310017697513,0.19918420002795756,0.7504602000117302
RSVPLG03,si,20260408-082719,1.0.2,20260219-152011,817,Introduction,T1,1,Automatic,main,9,20260408-082822,local,global,750,S,S,A,E,A-S.png,S-E.png,sS,sS,mask-2.png,mask-4.png,h,0,2.7665851002093405,none,-5,0,0.09841120010241866,0.10007509985007346,0.19847499998286366,0.19951429986394942,0.7488144000526518
RSVPLG03,si,20260408-082719,1.0.2,20260219-152011,817,Introduction,T1,1,Automatic,main,10,20260408-082829,local,global,750,H,H,E,E,E-H.png,H-E.png,hH,hH,mask-3.png,mask-3.png,s,0,4.052618800196797,none,-5,0,0.10014659981243312,0.09995260019786656,0.20041379984468222,0.20025700004771352,0.7502936997916549
RSVPLG03,si,20260408-082719,1.0.2,20260219-152011,817,Introduction,T1,1,Automatic,main,11,20260408-082837,global,local,750,S,H,E,A,S-E.png,A-H.png,sS,hH,mask-2.png,mask-3.png,s,1,1.4895531998481601,none,-5,0,0.10005999985150993,0.09979140013456345,0.19881219998933375,0.2017173001077026,0.7486401998903602
RSVPLG03,si,20260408-082719,1.0.2,20260219-152011,817,Introduction,T1,1,Automatic,main,12,20260408-082843,local,local,750,S,H,E,E,E-S.png,E-H.png,sS,hH,mask-1.png,mask-1.png,s,1,1.3805042000021785,none,-5,0,0.10132899996824563,0.10167600004933774,0.20148109993897378,0.20162690011784434,0.7502671999391168
RSVPLG03,si,20260408-082719,1.0.2,20260219-152011,817,Introduction,T1,1,Automatic,main,13,20260408-082848,global,local,750,S,S,E,A,S-E.png,A-S.png,sS,sS,mask-1.png,mask-4.png,s,1,1.297234599944204,none,-5,0,0.10065299994312227,0.09862919989973307,0.20045799994841218,0.19950379990041256,0.7494163999799639
RSVPLG03,si,20260408-082719,1.0.2,20260219-152011,817,Introduction,T1,1,Automatic,main,14,20260408-082854,global,global,750,H,S,E,A,H-E.png,S-A.png,hH,sS,mask-2.png,mask-3.png,h,1,0.8924533999525011,none,-5,0,0.10105060017667711,0.0985483000986278,0.19990830007009208,0.20052199997007847,0.7511632000096142
RSVPLG03,si,20260408-082719,1.0.2,20260219-152011,817,Introduction,T1,1,Automatic,main,15,20260408-082859,local,global,750,S,S,E,A,E-S.png,S-A.png,sS,sS,mask-4.png,mask-4.png,s,1,0.7088618001434952,none,-5,0,0.09932920010760427,0.09820630005560815,0.20031760004349053,0.19906549993902445,0.7501004000660032
RSVPLG03,si,20260408-082719,1.0.2,20260219-152011,817,Introduction,T1,1,Automatic,main,16,20260408-082904,local,local,750,H,S,E,A,E-H.png,A-S.png,hH,sS,mask-4.png,mask-3.png,h,1,0.5394650001544505,none,-5,0,0.10075820004567504,0.10002729995176196,0.2004060000181198,0.19992519984953105,0.7504765000194311
RSVPLG03,si,20260408-082921,1.0.2,20260219-152011,817,Practice,T1,1,Automatic,main,1,20260408-082940,local,local,300,S,S,E,E,E-S.png,E-S.png,sS,sS,mask-1.png,mask-3.png,s,1,0.7288351999595761,none,-5,0,0.04033229988999665,0.04970790003426373,0.08918290003202856,0.1009778999723494,0.2877005999907851
RSVPLG03,si,20260408-082921,1.0.2,20260219-152011,817,Practice,T1,1,Automatic,main,2,20260408-082944,global,local,750,S,S,E,E,S-E.png,E-S.png,sS,sS,mask-4.png,mask-3.png,h,0,0.8596557998098433,none,-5,0,0.049849299946799874,0.049286300083622336,0.09961619996465743,0.10016770008951426,0.7483815997838974
RSVPLG03,si,20260408-082921,1.0.2,20260219-152011,817,Practice,T1,1,Automatic,main,3,20260408-082949,global,global,750,S,S,A,A,S-A.png,S-A.png,sS,sS,mask-3.png,mask-3.png,s,1,0.8308062998112291,none,-5,0,0.0495960998814553,0.05046430020593107,0.09932779986411333,0.10092000011354685,0.7484823998529464
RSVPLG03,si,20260408-082921,1.0.2,20260219-152011,817,Practice,T1,1,Automatic,main,4,20260408-082954,global,global,300,H,H,E,A,H-E.png,H-A.png,hH,hH,mask-2.png,mask-1.png,h,1,0.6464601999614388,none,-5,0,0.05125640006735921,0.04939440009184182,0.10051310015842319,0.09895260003395379,0.3009279000107199
RSVPLG03,si,20260408-082921,1.0.2,20260219-152011,817,Practice,T1,1,Automatic,main,5,20260408-082958,global,global,300,S,H,A,E,S-A.png,H-E.png,sS,hH,mask-1.png,mask-1.png,s,1,0.36636899993754923,none,-5,0,0.05005459999665618,0.04840369988232851,0.09984160005114973,0.09851549984887242,0.30071840016171336
RSVPLG03,si,20260408-082921,1.0.2,20260219-152011,817,Practice,T1,1,Automatic,main,6,20260408-083002,global,local,750,S,H,E,A,S-E.png,A-H.png,sS,hH,mask-2.png,mask-4.png,h,0,1.0116191999986768,none,-5,0,0.05205820011906326,0.04859430016949773,0.10163080017082393,0.09860779996961355,0.7504620000254363
RSVPLG03,si,20260408-082921,1.0.2,20260219-152011,817,Practice,T1,1,Automatic,main,7,20260408-083007,local,global,300,S,H,E,E,E-S.png,H-E.png,sS,hH,mask-2.png,mask-2.png,s,1,1.311176200164482,none,-5,0,0.04988109995611012,0.04982739989645779,0.09892480005510151,0.09989010007120669,0.29960469994693995
RSVPLG03,si,20260408-082921,1.0.2,20260219-152011,817,Practice,T1,1,Automatic,main,8,20260408-083012,local,local,750,S,H,E,A,E-S.png,A-H.png,sS,hH,mask-4.png,mask-3.png,s,1,0.23091230005957186,none,-5,0,0.049074900103732944,0.05009869998320937,0.09885860001668334,0.09892460005357862,0.7483215001411736
RSVPLG03,si,20260408-082921,1.0.2,20260219-152011,817,Practice,T1,1,Automatic,main,9,20260408-083016,local,local,750,S,S,E,A,E-S.png,A-S.png,sS,sS,mask-4.png,mask-4.png,s,1,0.27547340001910925,none,-5,0,0.048141400096938014,0.04950040020048618,0.10006650001741946,0.09961280017159879,0.7477456999476999
RSVPLG03,si,20260408-082921,1.0.2,20260219-152011,817,Practice,T1,1,Automatic,main,10,20260408-083020,local,global,750,H,S,A,A,A-H.png,S-A.png,hH,sS,mask-1.png,mask-1.png,h,1,0.3173926998861134,none,-5,0,0.049899700097739697,0.049500699853524566,0.10026239999569952,0.09831240004859865,0.7494767000898719
RSVPLG03,si,20260408-082921,1.0.2,20260219-152011,817,Practice,T1,1,Automatic,main,11,20260408-083025,global,global,750,S,H,E,E,S-E.png,H-E.png,sS,hH,mask-1.png,mask-1.png,s,1,0.1826703001279384,none,-5,0,0.05011840001679957,0.048707100097090006,0.10018049995414913,0.0985501001123339,0.749107499839738
RSVPLG03,si,20260408-082921,1.0.2,20260219-152011,817,Practice,T1,1,Automatic,main,12,20260408-083029,local,local,300,H,H,A,A,A-H.png,A-H.png,hH,hH,mask-1.png,mask-2.png,none,-6,0,none,-5,0,0.04907820001244545,0.05029639997519553,0.09820770006626844,0.09925279999151826,0.29943270003423095
RSVPLG03,si,20260408-083057,1.0.2,20260219-152011,817,Introduction,Both,1,Automatic,main,1,20260408-083117,global,local,750,H,S,E,A,H-E.png,A-S.png,hH,sS,mask-1.png,mask-1.png,s,0,2.584939199965447,h,0,0.6862101000733674,0.09911449998617172,0.09792120009660721,0.19858299987390637,0.19965289998799562,0.7491871998645365
RSVPLG03,si,20260408-083057,1.0.2,20260219-152011,817,Introduction,Both,1,Automatic,main,2,20260408-083125,global,local,750,S,H,A,A,S-A.png,A-H.png,sS,hH,mask-1.png,mask-3.png,h,0,2.020099300192669,s,0,0.6769951998721808,0.09874069993384182,0.10106880008243024,0.19864189997315407,0.20114720007404685,0.7475338999647647
RSVPLG03,si,20260408-083057,1.0.2,20260219-152011,817,Introduction,Both,1,Automatic,main,3,20260408-083132,local,global,750,S,S,E,E,E-S.png,S-E.png,sS,sS,mask-1.png,mask-1.png,s,1,1.2737673001829535,h,0,0.20474080019630492,0.10009720013476908,0.09937379998154938,0.19968780013732612,0.19893740001134574,0.7509061000309885
RSVPLG03,si,20260408-083057,1.0.2,20260219-152011,817,Introduction,Both,1,Automatic,main,4,20260408-083137,local,local,750,H,S,E,A,E-H.png,A-S.png,hH,sS,mask-4.png,mask-3.png,h,1,1.4650291001889855,s,1,0.21806179988197982,0.09982869983650744,0.09748320002108812,0.19926509982906282,0.19826109986752272,0.7507303999736905
RSVPLG03,si,20260408-083057,1.0.2,20260219-152011,817,Introduction,Both,1,Automatic,main,5,20260408-083143,global,global,750,S,H,A,E,S-A.png,H-E.png,sS,hH,mask-1.png,mask-2.png,s,1,1.573981000110507,h,1,0.24058940005488694,0.09928159997798502,0.1007180002052337,0.19959690002724528,0.20144350011833012,0.7482480998151004
RSVPLG03,si,20260408-083057,1.0.2,20260219-152011,817,Introduction,Both,1,Automatic,main,6,20260408-083149,local,local,750,H,H,E,E,E-H.png,E-H.png,hH,hH,mask-3.png,mask-3.png,h,1,1.2581432000733912,h,1,0.23606960009783506,0.10000859992578626,0.10119950002990663,0.200686699943617,0.1998876000288874,0.747864699922502
RSVPLG03,si,20260408-083057,1.0.2,20260219-152011,817,Introduction,Both,1,Automatic,main,7,20260408-083155,global,global,750,S,S,A,A,S-A.png,S-A.png,sS,sS,mask-4.png,mask-1.png,s,1,1.3755418001674116,s,1,0.18406589981168509,0.0992695998866111,0.09918840019963682,0.20101019996218383,0.19985980005003512,0.7493872998747975
RSVPLG03,si,20260408-083057,1.0.2,20260219-152011,817,Introduction,Both,1,Automatic,main,8,20260408-083201,local,global,750,S,H,A,E,A-S.png,H-E.png,sS,hH,mask-1.png,mask-1.png,s,1,1.1154587999917567,h,1,0.041555400006473064,0.09991339989937842,0.10005940007977188,0.19877070002257824,0.19974810001440346,0.7489835999440402
RSVPLG03,si,20260408-083057,1.0.2,20260219-152011,817,Introduction,Both,1,Automatic,main,9,20260408-083206,global,global,750,H,H,A,E,H-A.png,H-E.png,hH,hH,mask-1.png,mask-4.png,h,1,1.50978419999592,h,1,0.1445472000632435,0.09980259998701513,0.10085279983468354,0.20046889991499484,0.20046879979781806,0.7486070001032203
RSVPLG03,si,20260408-083057,1.0.2,20260219-152011,817,Introduction,Both,1,Automatic,main,10,20260408-083212,local,global,750,H,S,A,E,A-H.png,S-E.png,hH,sS,mask-4.png,mask-2.png,h,1,0.9094463000074029,s,1,0.08168509998358786,0.09843670018017292,0.099554100073874,0.20011740014888346,0.20044689998030663,0.7481869000475854
RSVPLG03,si,20260408-083057,1.0.2,20260219-152011,817,Introduction,Both,1,Automatic,main,11,20260408-083217,local,global,750,S,S,E,A,E-S.png,S-A.png,sS,sS,mask-2.png,mask-1.png,s,1,1.4909606999717653,s,1,0.12820350006222725,0.10006169998086989,0.0992581001482904,0.20172780007123947,0.1987531001213938,0.750632599927485
RSVPLG03,si,20260408-083057,1.0.2,20260219-152011,817,Introduction,Both,1,Automatic,main,12,20260408-083223,global,local,750,S,S,E,E,S-E.png,E-S.png,sS,sS,mask-3.png,mask-4.png,s,1,0.29538160003721714,s,1,0.9866287999320775,0.10067710001021624,0.09938309993594885,0.19962479989044368,0.20127480011433363,0.7495138999074697
RSVPLG03,si,20260408-083057,1.0.2,20260219-152011,817,Introduction,Both,1,Automatic,main,13,20260408-083229,local,local,750,S,S,A,E,A-S.png,E-S.png,sS,sS,mask-2.png,mask-1.png,none,-6,0,none,-6,0,0.09883879986591637,0.09891900001093745,0.20001069991849363,0.20088270003907382,0.7491142998915166
RSVPLG03,si,20260408-083249,1.0.2,20260219-152011,817,Practice,Both,1,Automatic,main,1,20260408-083307,local,local,750,S,S,A,A,A-S.png,A-S.png,sS,sS,mask-2.png,mask-1.png,s,1,0.8640103000216186,s,1,0.19376849988475442,0.0495919999666512,0.04826630000025034,0.1009506001137197,0.099075400037691,0.7529184999875724
RSVPLG03,si,20260408-083249,1.0.2,20260219-152011,817,Practice,Both,1,Automatic,main,2,20260408-083312,global,local,300,H,H,E,A,H-E.png,A-H.png,hH,hH,mask-3.png,mask-1.png,h,1,1.5844737999141216,s,0,0.25698750000447035,0.05022069998085499,0.053887799847871065,0.09979710006155074,0.10026489989832044,0.30036530015058815
RSVPLG03,si,20260408-083249,1.0.2,20260219-152011,817,Practice,Both,1,Automatic,main,3,20260408-083318,local,local,300,H,H,A,E,A-H.png,E-H.png,hH,hH,mask-2.png,mask-1.png,h,1,1.2624254999682307,h,1,0.0629016999155283,0.049249400151893497,0.05126950005069375,0.09954069997183979,0.09991410002112389,0.29911500005982816
RSVPLG03,si,20260408-083249,1.0.2,20260219-152011,817,Practice,Both,1,Automatic,main,4,20260408-083323,local,global,300,H,S,A,E,A-H.png,S-E.png,hH,sS,mask-1.png,mask-4.png,h,1,0.4778348000254482,s,1,0.22335450001992285,0.049977799877524376,0.05000639986246824,0.10003289999440312,0.10201619984582067,0.30076520005241036
RSVPLG03,si,20260408-083249,1.0.2,20260219-152011,817,Practice,Both,1,Automatic,main,5,20260408-083327,global,local,750,S,S,E,E,S-E.png,E-S.png,sS,sS,mask-1.png,mask-3.png,s,1,0.49940939992666245,s,1,0.27361929998733103,0.049265599809587,0.0510173998773098,0.0977394999936223,0.10121789993718266,0.7495347999501973
RSVPLG03,si,20260408-083249,1.0.2,20260219-152011,817,Practice,Both,1,Automatic,main,6,20260408-083332,local,local,750,S,S,A,A,A-S.png,A-S.png,sS,sS,mask-1.png,mask-2.png,h,0,1.1618428002111614,s,1,0.0323702001478523,0.04764400003477931,0.048437200020998716,0.09804180008359253,0.09904200001619756,0.7515484001487494
RSVPLG03,si,20260408-083249,1.0.2,20260219-152011,817,Practice,Both,1,Automatic,main,7,20260408-083337,global,global,750,H,H,E,A,H-E.png,H-A.png,hH,hH,mask-4.png,mask-3.png,h,1,0.9328415000345558,h,1,0.1296773999929428,0.047551299910992384,0.05041599995456636,0.09759859996847808,0.09908329998143017,0.7499375999905169
RSVPLG03,si,20260408-083249,1.0.2,20260219-152011,817,Practice,Both,1,Automatic,main,8,20260408-083342,global,local,300,H,S,A,E,H-A.png,E-S.png,hH,sS,mask-1.png,mask-4.png,h,1,0.9164599999785423,s,1,0.07938340003602207,0.05084159993566573,0.04934939998202026,0.1035434000659734,0.09955130005255342,0.30200539994984865
RSVPLG03,si,20260408-083249,1.0.2,20260219-152011,817,Practice,Both,1,Automatic,main,9,20260408-083347,local,local,300,H,S,A,E,A-H.png,E-S.png,hH,sS,mask-2.png,mask-4.png,h,1,0.8119125000666827,s,1,0.06919039995409548,0.05155890015885234,0.05059039988555014,0.10023560002446175,0.10016679996624589,0.2997773000970483
RSVPLG03,si,20260408-083249,1.0.2,20260219-152011,817,Practice,Both,1,Automatic,main,10,20260408-083352,local,global,750,H,S,A,A,A-H.png,S-A.png,hH,sS,mask-3.png,mask-1.png,h,1,1.019554000115022,s,1,0.07734939991496503,0.04851639992557466,0.049844399793073535,0.09822849999181926,0.09952069981954992,0.7510713001247495
RSVPLG03,si,20260408-083249,1.0.2,20260219-152011,817,Practice,Both,1,Automatic,main,11,20260408-083357,global,global,300,H,S,A,E,H-A.png,S-E.png,hH,sS,mask-4.png,mask-1.png,h,1,0.41685339994728565,s,1,0.12902659992687404,0.049923700047656894,0.04973029997199774,0.09917739988304675,0.10002909996546805,0.29937759996391833
RSVPLG03,si,20260408-083249,1.0.2,20260219-152011,817,Practice,Both,1,Automatic,main,12,20260408-083401,global,global,750,H,S,E,A,H-E.png,S-A.png,hH,sS,mask-3.png,mask-3.png,h,1,1.0598035000730306,s,1,0.09466659999452531,0.049609099980443716,0.048103899927809834,0.09897410008125007,0.09894279995933175,0.7516312000807375
RSVPLG03,si,20260408-083249,1.0.2,20260219-152011,817,Practice,Both,1,Automatic,main,13,20260408-083406,local,global,300,S,S,E,A,E-S.png,S-A.png,sS,sS,mask-3.png,mask-2.png,s,1,0.4929782999679446,s,1,0.37043839995749295,0.04942350019700825,0.05219989991746843,0.10006320010870695,0.10342890000902116,0.2987902001477778
RSVPLG03,si,20260408-083249,1.0.2,20260219-152011,817,Practice,Both,1,Automatic,main,14,20260408-083411,global,local,750,H,H,A,A,H-A.png,A-H.png,hH,hH,mask-1.png,mask-3.png,h,1,1.1679823999293149,h,1,0.48922570003196597,0.0505061000585556,0.05125790019519627,0.1000365000218153,0.10086760018020868,0.7511306998785585
RSVPLG03,si,20260408-083249,1.0.2,20260219-152011,817,Practice,Both,1,Automatic,main,15,20260408-083417,local,global,750,H,S,A,A,A-H.png,S-A.png,hH,sS,mask-2.png,mask-3.png,h,1,0.9631405000109226,s,1,0.09649809985421598,0.04992599994875491,0.04868380003608763,0.09889940009452403,0.09851870010606945,0.752020499901846
RSVPLG03,si,20260408-083249,1.0.2,20260219-152011,817,Practice,Both,1,Automatic,main,16,20260408-083422,global,global,300,H,S,A,E,H-A.png,S-E.png,hH,sS,mask-2.png,mask-4.png,h,1,1.03048439999111,s,1,0.08850719989277422,0.04852730012498796,0.05246990011073649,0.09967899997718632,0.10135870007798076,0.2985445000231266
RSVPLG03,si,20260408-083505,1.0.2,20260219-152011,817,Experiment,Both,1,Automatic,warmup,1,20260408-083524,global,local,750,S,H,E,A,S-E.png,A-H.png,sS,hH,mask-2.png,mask-1.png,s,1,0.8981831001583487,h,1,0.0384593999478966,0.037911999970674515,0.05000589997507632,0.08857160015031695,0.10088440007530153,0.7356823000591248
RSVPLG03,si,20260408-083505,1.0.2,20260219-152011,817,Experiment,Both,1,Automatic,warmup,2,20260408-083529,local,local,750,S,H,A,E,A-S.png,E-H.png,sS,hH,mask-3.png,mask-1.png,s,1,0.5264765999745578,h,1,0.06542979995720088,0.049877499928697944,0.05157599993981421,0.10015369998291135,0.10203050007112324,0.7476055999286473
RSVPLG03,si,20260408-083505,1.0.2,20260219-152011,817,Experiment,Both,1,Automatic,warmup,3,20260408-083533,global,local,300,H,S,A,E,H-A.png,E-S.png,hH,sS,mask-2.png,mask-4.png,h,1,1.5553933999035507,s,1,0.034019900020211935,0.04953480022959411,0.049438999965786934,0.1005575000308454,0.09844100009649992,0.30069950013421476
RSVPLG03,si,20260408-083505,1.0.2,20260219-152011,817,Experiment,Both,1,Automatic,warmup,4,20260408-083539,local,global,300,H,S,A,A,A-H.png,S-A.png,hH,sS,mask-4.png,mask-2.png,h,1,0.3854666000697762,s,1,0.032710199942812324,0.049850699957460165,0.05098380008712411,0.09956939984112978,0.10053739999420941,0.29789439984597266
RSVPLG03,si,20260408-083505,1.0.2,20260219-152011,817,Experiment,Both,1,Automatic,main,5,20260408-083543,global,local,300,H,H,E,A,H-E.png,A-H.png,hH,hH,mask-1.png,mask-3.png,h,1,0.5937868000473827,h,1,0.09017159999348223,0.0481204001698643,0.051179599948227406,0.09830810013227165,0.09959929995238781,0.29839050001464784
RSVPLG03,si,20260408-083505,1.0.2,20260219-152011,817,Experiment,Both,1,Automatic,main,6,20260408-083547,local,local,750,H,S,E,E,E-H.png,E-S.png,hH,sS,mask-1.png,mask-4.png,h,1,1.535629800055176,s,1,0.12116700015030801,0.04938690015114844,0.0488136000931263,0.09950110013596714,0.10001359996385872,0.7488478000741452
RSVPLG03,si,20260408-083505,1.0.2,20260219-152011,817,Experiment,Both,1,Automatic,main,7,20260408-083553,local,local,300,H,S,E,E,E-H.png,E-S.png,hH,sS,mask-4.png,mask-2.png,h,1,1.0044499000068754,s,1,0.08221719996072352,0.04957280005328357,0.050334899919107556,0.09875559993088245,0.10048709996044636,0.2965949000790715
RSVPLG03,si,20260408-083505,1.0.2,20260219-152011,817,Experiment,Both,1,Automatic,main,8,20260408-083558,local,local,750,S,H,A,A,A-S.png,A-H.png,sS,hH,mask-1.png,mask-2.png,h,0,0.9474366002250463,h,1,0.06396610010415316,0.049521900014951825,0.048850399907678366,0.09909679996781051,0.09933639992959797,0.7490292000584304
RSVPLG03,si,20260408-083505,1.0.2,20260219-152011,817,Experiment,Both,1,Automatic,main,9,20260408-083603,global,global,300,S,S,A,A,S-A.png,S-A.png,sS,sS,mask-2.png,mask-3.png,s,1,0.5578832000028342,s,1,0.13378240005113184,0.05033500003628433,0.05108170001767576,0.1014338000677526,0.09823390003293753,0.300677000079304
RSVPLG03,si,20260408-083505,1.0.2,20260219-152011,817,Experiment,Both,1,Automatic,main,10,20260408-083607,local,local,300,H,H,A,A,A-H.png,A-H.png,hH,hH,mask-4.png,mask-4.png,h,1,0.42830299981869757,s,0,0.06495769997127354,0.051546999951824546,0.04980859998613596,0.10056149982847273,0.09865949978120625,0.3000004000496119
RSVPLG03,si,20260408-083505,1.0.2,20260219-152011,817,Experiment,Both,1,Automatic,main,11,20260408-083611,local,local,300,S,H,A,A,A-S.png,A-H.png,sS,hH,mask-4.png,mask-1.png,h,0,0.33985150000080466,h,1,0.11033219983801246,0.04887440009042621,0.050401899963617325,0.09884319989942014,0.10006660013459623,0.2989632999524474
RSVPLG03,si,20260408-083505,1.0.2,20260219-152011,817,Experiment,Both,1,Automatic,main,12,20260408-083615,global,local,300,H,S,A,E,H-A.png,E-S.png,hH,sS,mask-3.png,mask-1.png,h,1,0.3358823999296874,s,1,0.010337000014260411,0.04737050016410649,0.04902569996193051,0.09815490012988448,0.09746990003623068,0.29848420014604926
RSVPLG03,si,20260408-083505,1.0.2,20260219-152011,817,Experiment,Both,1,Automatic,main,13,20260408-083619,global,local,300,S,H,E,E,S-E.png,E-H.png,sS,hH,mask-4.png,mask-2.png,s,1,0.37831160007044673,s,0,0.10450030001811683,0.050751900067552924,0.04848730005323887,0.09986170008778572,0.10012529999949038,0.2995575999375433
RSVPLG03,si,20260408-083505,1.0.2,20260219-152011,817,Experiment,Both,1,Automatic,main,14,20260408-083623,local,global,750,H,S,A,A,A-H.png,S-A.png,hH,sS,mask-1.png,mask-3.png,h,1,0.24255770002491772,s,1,0.03112750011496246,0.04887369996868074,0.049090399872511625,0.0995114000979811,0.10068969987332821,0.7487282000947744
RSVPLG03,si,20260408-083505,1.0.2,20260219-152011,817,Experiment,Both,1,Automatic,main,15,20260408-083628,global,local,750,H,H,E,A,H-E.png,A-H.png,hH,hH,mask-2.png,mask-4.png,h,1,0.39805279998108745,h,1,0.10937410010956228,0.050957199884578586,0.05089380010031164,0.10053230007179081,0.10190020012669265,0.7487307998817414
RSVPLG03,si,20260408-083505,1.0.2,20260219-152011,817,Experiment,Both,1,Automatic,main,16,20260408-083632,global,local,300,S,S,A,A,S-A.png,A-S.png,sS,sS,mask-3.png,mask-1.png,s,1,0.4898524999152869,h,0,0.1151746001560241,0.05012529995292425,0.04900420014746487,0.09800520003773272,0.09988740016706288,0.29895580001175404
RSVPLG03,si,20260408-083505,1.0.2,20260219-152011,817,Experiment,Both,1,Automatic,main,17,20260408-083636,local,global,750,H,H,E,A,E-H.png,H-A.png,hH,hH,mask-3.png,mask-3.png,h,1,1.5699671998154372,h,1,0.37825419986620545,0.0526941001880914,0.05000229994766414,0.10158600006252527,0.0997639000415802,0.7490356001071632
RSVPLG03,si,20260408-083505,1.0.2,20260219-152011,817,Experiment,Both,1,Automatic,main,18,20260408-083643,global,global,300,H,S,A,A,H-A.png,S-A.png,hH,sS,mask-1.png,mask-4.png,h,1,0.3350593999493867,s,1,0.04694409994408488,0.04953310010023415,0.04958579991944134,0.09983960003592074,0.09929629997350276,0.29930110019631684
RSVPLG03,si,20260408-083505,1.0.2,20260219-152011,817,Experiment,Both,1,Automatic,main,19,20260408-083647,local,global,750,S,H,A,A,A-S.png,H-A.png,sS,hH,mask-1.png,mask-4.png,s,1,0.7703539999201894,h,1,0.8904006998054683,0.05014760000631213,0.05162599985487759,0.10129150003194809,0.1016484999563545,0.747811600100249
RSVPLG03,si,20260408-083505,1.0.2,20260219-152011,817,Experiment,Both,1,Automatic,main,20,20260408-083652,local,global,300,H,H,A,A,A-H.png,H-A.png,hH,hH,mask-1.png,mask-4.png,h,1,0.5297942000906914,h,1,0.09645610000006855,0.050454300129786134,0.050238899886608124,0.10031210002489388,0.09914919990114868,0.3006347001064569
RSVPLG03,si,20260408-083505,1.0.2,20260219-152011,817,Experiment,Both,1,Automatic,main,21,20260408-083656,local,local,300,S,H,A,E,A-S.png,E-H.png,sS,hH,mask-4.png,mask-4.png,s,1,0.407696699956432,h,1,0.03201500000432134,0.048188399989157915,0.05019039986655116,0.09877460007555783,0.10026969993487,0.29803310008719563
RSVPLG03,si,20260408-083505,1.0.2,20260219-152011,817,Experiment,Both,1,Automatic,main,22,20260408-083700,global,global,750,S,H,A,A,S-A.png,H-A.png,sS,hH,mask-4.png,mask-1.png,s,1,0.11803430016152561,s,0,1.4090998999308795,0.05123069998808205,0.04810099978931248,0.10040340013802052,0.09822179982438684,0.7492602001875639
RSVPLG03,si,20260408-083505,1.0.2,20260219-152011,817,Experiment,Both,1,Automatic,main,23,20260408-083706,local,local,750,H,H,A,A,A-H.png,A-H.png,hH,hH,mask-1.png,mask-4.png,h,1,0.3531340998597443,h,1,0.10470320004969835,0.04997139982879162,0.04908479982987046,0.1021788998041302,0.09784609987400472,0.7501320999581367
RSVPLG03,si,20260408-083505,1.0.2,20260219-152011,817,Experiment,Both,1,Automatic,main,24,20260408-083710,local,global,300,H,H,E,A,E-H.png,H-A.png,hH,hH,mask-4.png,mask-1.png,h,1,0.30427569989115,s,0,0.05021309992298484,0.045269700000062585,0.04901109985075891,0.09513960010372102,0.09891940001398325,0.29451630008406937
RSVPLG03,si,20260408-083505,1.0.2,20260219-152011,817,Experiment,Both,1,Automatic,main,25,20260408-083714,global,local,750,H,H,A,E,H-A.png,E-H.png,hH,hH,mask-4.png,mask-4.png,h,1,0.4169620000757277,h,1,0.09714649990200996,0.04885989986360073,0.049668600084260106,0.09846009989269078,0.09865300008095801,0.7490878999233246
RSVPLG03,si,20260408-083505,1.0.2,20260219-152011,817,Experiment,Both,1,Automatic,main,26,20260408-083730,global,global,300,S,S,E,E,S-E.png,S-E.png,sS,sS,mask-3.png,mask-3.png,s,1,0.43835049984045327,s,1,0.08050159993581474,0.0511051001958549,0.04968529986217618,0.10232790000736713,0.09975459985435009,0.3009594001341611
RSVPLG03,si,20260408-083505,1.0.2,20260219-152011,817,Experiment,Both,1,Automatic,main,27,20260408-083734,global,local,300,H,H,A,A,H-A.png,A-H.png,hH,hH,mask-1.png,mask-4.png,h,1,0.21502620005048811,h,1,0.09818549989722669,0.05099479993805289,0.05265150009654462,0.09971969993785024,0.10188760003075004,0.29885709984228015
RSVPLG03,si,20260408-083505,1.0.2,20260219-152011,817,Experiment,Both,1,Automatic,main,28,20260408-083738,global,local,300,S,S,A,E,S-A.png,E-S.png,sS,sS,mask-3.png,mask-4.png,s,1,0.14706210000440478,s,1,0.31519730016589165,0.04992930009029806,0.05118219996802509,0.10010819998569787,0.10040790005587041,0.29805959993973374
RSVPLG03,si,20260408-083505,1.0.2,20260219-152011,817,Experiment,Both,1,Automatic,main,29,20260408-083742,local,local,750,S,S,A,A,A-S.png,A-S.png,sS,sS,mask-4.png,mask-2.png,s,1,0.391631199978292,s,1,0.08569870004430413,0.050965200178325176,0.04903190000914037,0.10002160002477467,0.09862040006555617,0.7497660000808537
RSVPLG03,si,20260408-083505,1.0.2,20260219-152011,817,Experiment,Both,1,Automatic,main,30,20260408-083746,global,global,750,H,S,E,E,H-E.png,S-E.png,hH,sS,mask-1.png,mask-1.png,h,1,0.35985890007577837,s,1,0.03309980011545122,0.050348500022664666,0.04851199989207089,0.10128479986451566,0.0976199998985976,0.7517377999611199
RSVPLG03,si,20260408-083505,1.0.2,20260219-152011,817,Experiment,Both,1,Automatic,main,31,20260408-083751,global,local,750,H,S,A,E,H-A.png,E-S.png,hH,sS,mask-4.png,mask-2.png,h,1,1.2777623999863863,s,1,0.03641439997591078,0.05035259993746877,0.05072669987566769,0.09948879992589355,0.09969879989512265,0.7482662999536842
RSVPLG03,si,20260408-083505,1.0.2,20260219-152011,817,Experiment,Both,1,Automatic,main,32,20260408-083756,local,global,750,H,H,A,A,A-H.png,H-A.png,hH,hH,mask-3.png,mask-1.png,h,1,0.5509677999652922,h,1,0.1145597998984158,0.049653599970042706,0.04929650016129017,0.09766279999166727,0.09720219997689128,0.7496644998900592
RSVPLG03,si,20260408-083505,1.0.2,20260219-152011,817,Experiment,Both,1,Automatic,main,33,20260408-083801,local,global,300,S,S,E,A,E-S.png,S-A.png,sS,sS,mask-1.png,mask-4.png,s,1,0.38079650001600385,s,1,0.8711608001030982,0.04986690008081496,0.04960540006868541,0.0992955002002418,0.1004729000851512,0.30006000003777444
RSVPLG03,si,20260408-083505,1.0.2,20260219-152011,817,Experiment,Both,1,Automatic,main,34,20260408-083806,local,local,750,H,H,E,A,E-H.png,A-H.png,hH,hH,mask-1.png,mask-4.png,h,1,1.6335473000071943,h,1,0.072916200151667,0.0492143000010401,0.04987529991194606,0.09818450012244284,0.0996620999649167,0.7480779001489282
RSVPLG03,si,20260408-083505,1.0.2,20260219-152011,817,Experiment,Both,1,Automatic,main,35,20260408-083812,global,local,300,H,H,E,E,H-E.png,E-H.png,hH,hH,mask-2.png,mask-4.png,h,1,0.37951549980789423,h,1,0.09335680003277957,0.04966889997012913,0.05030760006047785,0.10030049993656576,0.09921470005065203,0.2991368998773396
RSVPLG03,si,20260408-083505,1.0.2,20260219-152011,817,Experiment,Both,1,Automatic,main,36,20260408-083816,global,local,750,H,S,A,A,H-A.png,A-S.png,hH,sS,mask-3.png,mask-4.png,h,1,0.2865146999247372,s,1,0.024730300065129995,0.04918930004350841,0.04882659995928407,0.10014360002242029,0.09941069991327822,0.7483946001157165
RSVPLG03,si,20260408-083505,1.0.2,20260219-152011,817,Experiment,Both,1,Automatic,main,37,20260408-083820,global,global,300,H,H,E,E,H-E.png,H-E.png,hH,hH,mask-3.png,mask-4.png,h,1,0.35867609991692007,h,1,0.08148510009050369,0.04955700016580522,0.050781500060111284,0.10172340017743409,0.0994478000793606,0.29980330006219447
RSVPLG03,si,20260408-083505,1.0.2,20260219-152011,817,Experiment,Both,1,Automatic,main,38,20260408-083824,global,local,750,H,H,E,E,H-E.png,E-H.png,hH,hH,mask-4.png,mask-1.png,h,1,0.2771159000694752,h,1,0.1463522999547422,0.04882330005057156,0.05130230006761849,0.09920480009168386,0.10067380010150373,0.747593600070104
RSVPLG03,si,20260408-083505,1.0.2,20260219-152011,817,Experiment,Both,1,Automatic,main,39,20260408-083829,global,global,300,H,H,E,E,H-E.png,H-E.png,hH,hH,mask-1.png,mask-1.png,h,1,0.24751080013811588,h,1,0.09765140013769269,0.0495303999632597,0.050069999881088734,0.10058009997010231,0.10114079993218184,0.29859740007668734
RSVPLG03,si,20260408-083505,1.0.2,20260219-152011,817,Experiment,Both,1,Automatic,main,40,20260408-083833,local,global,750,H,S,A,A,A-H.png,S-A.png,hH,sS,mask-4.png,mask-2.png,h,1,0.3108705000486225,s,1,0.026299600023776293,0.04959099995903671,0.04949130001477897,0.09928769990801811,0.09912830009125173,0.7491108998656273
RSVPLG03,si,20260408-083505,1.0.2,20260219-152011,817,Experiment,Both,1,Automatic,main,41,20260408-083837,local,local,300,S,H,E,A,E-S.png,A-H.png,sS,hH,mask-2.png,mask-3.png,s,1,0.42872109985910356,s,0,0.1292431999463588,0.049652199959382415,0.04952279990538955,0.10038230009377003,0.10140139982104301,0.2981680000666529
RSVPLG03,si,20260408-083505,1.0.2,20260219-152011,817,Experiment,Both,1,Automatic,main,42,20260408-083842,local,global,750,H,H,A,A,A-H.png,H-A.png,hH,hH,mask-1.png,mask-4.png,h,1,0.33076529996469617,h,1,0.10537100001238286,0.04863979993388057,0.05075450008735061,0.09781370009295642,0.0996006999630481,0.7465429999865592
RSVPLG03,si,20260408-083505,1.0.2,20260219-152011,817,Experiment,Both,1,Automatic,main,43,20260408-083846,global,global,300,S,H,A,E,S-A.png,H-E.png,sS,hH,mask-1.png,mask-1.png,s,1,0.32391789997927845,h,1,0.04466790007427335,0.04832429997622967,0.04994320007972419,0.09813249995931983,0.10002720006741583,0.29897839995101094
RSVPLG03,si,20260408-083505,1.0.2,20260219-152011,817,Experiment,Both,1,Automatic,main,44,20260408-083850,local,local,300,H,H,A,E,A-H.png,E-H.png,hH,hH,mask-4.png,mask-1.png,h,1,0.4398435999173671,s,0,0.05506350006908178,0.05069590010680258,0.04815759998746216,0.09899830003269017,0.0985960999969393,0.3002802000846714
RSVPLG03,si,20260408-083505,1.0.2,20260219-152011,817,Experiment,Both,1,Automatic,main,45,20260408-083854,local,global,300,H,S,A,E,A-H.png,S-E.png,hH,sS,mask-1.png,mask-3.png,h,1,0.2308900998905301,s,1,0.03340870002284646,0.04978509992361069,0.05063750012777746,0.09936219989322126,0.09946880000643432,0.29915449977852404
RSVPLG03,si,20260408-083505,1.0.2,20260219-152011,817,Experiment,Both,1,Automatic,main,46,20260408-083858,local,global,300,H,H,E,A,E-H.png,H-A.png,hH,hH,mask-1.png,mask-1.png,s,0,0.33403369993902743,h,1,0.4507218999788165,0.04881819989532232,0.05028799991123378,0.09957379987463355,0.09965609991922975,0.29782609990797937
RSVPLG03,si,20260408-083505,1.0.2,20260219-152011,817,Experiment,Both,1,Automatic,main,47,20260408-083903,local,local,750,S,H,E,A,E-S.png,A-H.png,sS,hH,mask-3.png,mask-2.png,s,1,0.3108253001701087,h,1,0.28329930012114346,0.051981399999931455,0.05052529997192323,0.10040860017761588,0.09973590006120503,0.7503210001159459
RSVPLG03,si,20260408-083505,1.0.2,20260219-152011,817,Experiment,Both,1,Automatic,main,48,20260408-083907,global,global,750,S,S,A,A,S-A.png,S-A.png,sS,sS,mask-3.png,mask-2.png,s,1,0.8875186000950634,s,1,0.10642759990878403,0.05053759994916618,0.04934510006569326,0.09988399990834296,0.10053710010834038,0.7495643999427557
RSVPLG03,si,20260408-083505,1.0.2,20260219-152011,817,Experiment,Both,1,Automatic,main,49,20260408-083912,local,global,750,S,H,A,E,A-S.png,H-E.png,sS,hH,mask-4.png,mask-3.png,s,1,0.2509794000070542,h,1,0.1527825000230223,0.05057529988698661,0.050806600134819746,0.09873509989120066,0.09965700004249811,0.7490816998761147
RSVPLG03,si,20260408-083505,1.0.2,20260219-152011,817,Experiment,Both,1,Automatic,main,50,20260408-083917,local,local,750,H,H,A,E,A-H.png,E-H.png,hH,hH,mask-2.png,mask-1.png,h,1,0.2038401998579502,h,1,0.11086659994907677,0.05053200013935566,0.04791429988108575,0.0984253000933677,0.098655000096187,0.7493724001105875
RSVPLG03,si,20260408-083505,1.0.2,20260219-152011,817,Experiment,Both,1,Automatic,main,51,20260408-083929,global,global,750,H,S,E,E,H-E.png,S-E.png,hH,sS,mask-3.png,mask-2.png,h,1,0.8913305001333356,s,1,0.0741826999001205,0.048377100145444274,0.05043260008096695,0.09941920009441674,0.10161420004442334,0.7471429000142962
RSVPLG03,si,20260408-083505,1.0.2,20260219-152011,817,Experiment,Both,1,Automatic,main,52,20260408-083934,local,global,300,H,S,A,A,A-H.png,S-A.png,hH,sS,mask-1.png,mask-4.png,h,1,0.2839446000289172,s,1,0.033956200117245317,0.050290799932554364,0.049814000027254224,0.0989579998422414,0.1007113999221474,0.29989639995619655
RSVPLG03,si,20260408-083505,1.0.2,20260219-152011,817,Experiment,Both,1,Automatic,main,53,20260408-083938,global,local,750,S,S,A,A,S-A.png,A-S.png,sS,sS,mask-2.png,mask-4.png,s,1,0.20968049997463822,s,1,0.1594636000227183,0.04970029997639358,0.049656599992886186,0.0984865000937134,0.09965509991161525,0.7487091000657529
RSVPLG03,si,20260408-083505,1.0.2,20260219-152011,817,Experiment,Both,1,Automatic,main,54,20260408-083943,local,local,750,S,H,A,E,A-S.png,E-H.png,sS,hH,mask-3.png,mask-1.png,s,1,0.24031969998031855,h,1,0.12943869992159307,0.048930800054222345,0.04944840003736317,0.10087529988959432,0.10196580016054213,0.748117399867624
RSVPLG03,si,20260408-083505,1.0.2,20260219-152011,817,Experiment,Both,1,Automatic,main,55,20260408-083947,local,global,300,H,S,E,E,E-H.png,S-E.png,hH,sS,mask-4.png,mask-2.png,h,1,0.4099681999068707,s,1,0.025874799815937877,0.048124299850314856,0.05124280019663274,0.09806209988892078,0.1006819000467658,0.29732869984582067
RSVPLG03,si,20260408-083505,1.0.2,20260219-152011,817,Experiment,Both,1,Automatic,main,56,20260408-083951,global,global,750,H,H,E,E,H-E.png,H-E.png,hH,hH,mask-1.png,mask-4.png,h,1,0.1933071999810636,h,1,0.09769829991273582,0.051382599864155054,0.05101200006902218,0.10003510001115501,0.10075580002740026,0.7489030999131501
RSVPLG03,si,20260408-083505,1.0.2,20260219-152011,817,Experiment,Both,1,Automatic,main,57,20260408-083956,local,local,750,H,H,A,E,A-H.png,E-H.png,hH,hH,mask-4.png,mask-3.png,h,1,0.29784130002371967,h,1,0.13054169993847609,0.04686939995735884,0.050624600145965815,0.09510939987376332,0.09983890014700592,0.7436175998300314
RSVPLG03,si,20260408-083505,1.0.2,20260219-152011,817,Experiment,Both,1,Automatic,main,58,20260408-084000,local,local,300,H,H,A,E,A-H.png,E-H.png,hH,hH,mask-4.png,mask-3.png,h,1,0.34872850007377565,s,0,0.17005089996382594,0.04913969989866018,0.049288100097328424,0.09876689990051091,0.10020689992234111,0.29876419994980097
RSVPLG03,si,20260408-083505,1.0.2,20260219-152011,817,Experiment,Both,1,Automatic,main,59,20260408-084004,global,global,750,H,S,E,E,H-E.png,S-E.png,hH,sS,mask-1.png,mask-4.png,h,1,0.2927802000194788,s,1,0.05594099988229573,0.049197099870070815,0.049775300081819296,0.09904509992338717,0.09972580010071397,0.7484255998861045
RSVPLG03,si,20260408-083505,1.0.2,20260219-152011,817,Experiment,Both,1,Automatic,main,60,20260408-084009,local,global,750,H,S,A,E,A-H.png,S-E.png,hH,sS,mask-3.png,mask-2.png,h,1,0.37970330007374287,s,1,0.06745010009035468,0.049753000028431416,0.04954410018399358,0.0986820999532938,0.09862940013408661,0.7502180999144912
RSVPLG03,si,20260408-083505,1.0.2,20260219-152011,817,Experiment,Both,1,Automatic,main,61,20260408-084013,global,local,750,S,S,A,A,S-A.png,A-S.png,sS,sS,mask-4.png,mask-1.png,s,1,0.15393460006453097,s,1,0.1373254000209272,0.04909330001100898,0.049687699880450964,0.09899109997786582,0.09830509987659752,0.7491629000287503
RSVPLG03,si,20260408-083505,1.0.2,20260219-152011,817,Experiment,Both,1,Automatic,main,62,20260408-084018,global,local,300,S,H,E,E,S-E.png,E-H.png,sS,hH,mask-4.png,mask-2.png,s,1,0.33876479999162257,s,0,0.2237292998470366,0.05092870001681149,0.05065350001677871,0.10132959997281432,0.10144939995370805,0.29978550015948713
RSVPLG03,si,20260408-083505,1.0.2,20260219-152011,817,Experiment,Both,1,Automatic,main,63,20260408-084022,global,local,750,H,H,A,E,H-A.png,E-H.png,hH,hH,mask-2.png,mask-3.png,h,1,0.6556359999813139,s,0,0.5255821999162436,0.04952890006825328,0.050155899953097105,0.10103200003504753,0.09805239993147552,0.7500678000506014
RSVPLG03,si,20260408-083505,1.0.2,20260219-152011,817,Experiment,Both,1,Automatic,main,64,20260408-084027,local,global,750,H,H,A,A,A-H.png,H-A.png,hH,hH,mask-2.png,mask-3.png,h,1,0.2534788001794368,h,1,0.12548130005598068,0.05018939985893667,0.05004760017618537,0.10128850000910461,0.09993969998322427,0.7501059998758137
RSVPLG03,si,20260408-083505,1.0.2,20260219-152011,817,Experiment,Both,1,Automatic,main,65,20260408-084032,local,local,750,S,S,E,E,E-S.png,E-S.png,sS,sS,mask-2.png,mask-3.png,s,1,0.9011863002087921,h,0,0.009225300047546625,0.04940239991992712,0.050733899930492043,0.10129959997721016,0.10083350003696978,0.7478602998889983
RSVPLG03,si,20260408-083505,1.0.2,20260219-152011,817,Experiment,Both,1,Automatic,main,66,20260408-084037,global,local,750,S,H,E,E,S-E.png,E-H.png,sS,hH,mask-3.png,mask-3.png,s,1,0.6195872998796403,s,0,0.2405183999799192,0.048646199982613325,0.04948049993254244,0.09893490001559258,0.0994063001126051,0.7469321000389755
RSVPLG03,si,20260408-083505,1.0.2,20260219-152011,817,Experiment,Both,1,Automatic,main,67,20260408-084042,global,global,750,H,H,E,E,H-E.png,H-E.png,hH,hH,mask-1.png,mask-3.png,h,1,0.26579360011965036,h,1,0.13301030010916293,0.04831390012986958,0.04902009991928935,0.10063869995065033,0.10040670004673302,0.7484480000566691
RSVPLG03,si,20260408-083505,1.0.2,20260219-152011,817,Experiment,Both,1,Automatic,main,68,20260408-084046,local,local,300,H,H,E,A,E-H.png,A-H.png,hH,hH,mask-1.png,mask-3.png,h,1,0.3916954000014812,h,1,0.11406619986519217,0.051332500064745545,0.05040890001691878,0.09955959999933839,0.09991160011850297,0.30054239998571575
RSVPLG03,si,20260408-083505,1.0.2,20260219-152011,817,Experiment,Both,1,Automatic,main,69,20260408-084050,global,local,300,S,S,E,A,S-E.png,A-S.png,sS,sS,mask-1.png,mask-1.png,s,1,0.7409028001129627,h,0,0.092018699971959,0.05069910013116896,0.05133130005560815,0.10069170012138784,0.10089280013926327,0.299586100038141
RSVPLG03,si,20260408-083505,1.0.2,20260219-152011,817,Experiment,Both,1,Automatic,main,70,20260408-084055,global,global,300,H,S,A,A,H-A.png,S-A.png,hH,sS,mask-4.png,mask-2.png,h,1,1.434941900195554,s,1,0.5857538999989629,0.052155799930915236,0.05042559979483485,0.10028449981473386,0.10316419997252524,0.3006998000200838
RSVPLG03,si,20260408-083505,1.0.2,20260219-152011,817,Experiment,Both,1,Automatic,main,71,20260408-084101,local,local,300,S,S,E,E,E-S.png,E-S.png,sS,sS,mask-1.png,mask-1.png,s,1,0.279952900018543,s,1,0.3613239999394864,0.05018929997459054,0.04902460006996989,0.1016673999838531,0.09692370006814599,0.302519999910146
RSVPLG03,si,20260408-083505,1.0.2,20260219-152011,817,Experiment,Both,1,Automatic,main,72,20260408-084105,global,global,750,S,S,A,A,S-A.png,S-A.png,sS,sS,mask-4.png,mask-1.png,s,1,0.4779378999955952,s,1,0.1841390999034047,0.04881180007942021,0.048554399982094765,0.0976000998634845,0.10021309996955097,0.7486616000533104
RSVPLG03,si,20260408-083505,1.0.2,20260219-152011,817,Experiment,Both,1,Automatic,main,73,20260408-084110,global,global,300,H,S,A,A,H-A.png,S-A.png,hH,sS,mask-4.png,mask-2.png,h,1,1.2762583999428898,s,1,0.09757549990899861,0.05064140004105866,0.05002769990824163,0.09873560001142323,0.09983680001460016,0.2992924000136554
RSVPLG03,si,20260408-083505,1.0.2,20260219-152011,817,Experiment,Both,1,Automatic,main,74,20260408-084115,local,global,300,S,H,E,A,E-S.png,H-A.png,sS,hH,mask-3.png,mask-2.png,s,1,0.6982304998673499,h,1,0.06568420003168285,0.049677500035613775,0.048801699886098504,0.10089830006472766,0.09822400007396936,0.30061960010789335
RSVPLG03,si,20260408-083505,1.0.2,20260219-152011,817,Experiment,Both,1,Automatic,main,75,20260408-084119,global,local,750,S,H,E,A,S-E.png,A-H.png,sS,hH,mask-2.png,mask-4.png,s,1,0.32761769997887313,h,1,0.2107425001449883,0.0496783999260515,0.05104120005853474,0.10054529993794858,0.1007872000336647,0.7499086998868734
RSVPLG03,si,20260408-083505,1.0.2,20260219-152011,817,Experiment,Both,1,Automatic,main,76,20260408-084125,local,global,750,H,S,A,A,A-H.png,S-A.png,hH,sS,mask-2.png,mask-1.png,h,1,1.0593526000156999,s,1,0.2059340998530388,0.04855400021187961,0.050117899896577,0.0986540000885725,0.0982858999632299,0.7500140001066029
RSVPLG03,si,20260408-083505,1.0.2,20260219-152011,817,Experiment,Both,1,Automatic,main,77,20260408-084130,local,local,300,H,H,E,E,E-H.png,E-H.png,hH,hH,mask-4.png,mask-2.png,h,1,0.6212468000594527,h,1,0.3784411000087857,0.050083199981600046,0.05037329997867346,0.101511400192976,0.10023589991033077,0.29934420017525554
RSVPLG03,si,20260408-083505,1.0.2,20260219-152011,817,Experiment,Both,1,Automatic,main,78,20260408-084135,global,local,750,H,H,E,E,H-E.png,E-H.png,hH,hH,mask-4.png,mask-3.png,h,1,0.38056720001623034,h,1,0.15780839999206364,0.05127719999291003,0.05059499992057681,0.10187849984504282,0.09975559986196458,0.748981999931857
RSVPLG03,si,20260408-083505,1.0.2,20260219-152011,817,Experiment,Both,1,Automatic,main,79,20260408-084139,global,local,300,H,H,E,E,H-E.png,E-H.png,hH,hH,mask-2.png,mask-3.png,h,1,0.3424280001781881,s,0,0.13977849995717406,0.04781130002811551,0.04990500002168119,0.09846549993380904,0.09973890008404851,0.29799210000783205
RSVPLG03,si,20260408-083505,1.0.2,20260219-152011,817,Experiment,Both,1,Automatic,main,80,20260408-084143,global,global,300,H,H,E,A,H-E.png,H-A.png,hH,hH,mask-2.png,mask-1.png,h,1,0.3924144001211971,h,1,0.09653110010549426,0.049532199976965785,0.049858600134029984,0.09942360012792051,0.1006581000983715,0.29742660000920296
RSVPLG03,si,20260408-083505,1.0.2,20260219-152011,817,Experiment,Both,1,Automatic,main,81,20260408-084148,local,local,750,S,H,E,E,E-S.png,E-H.png,sS,hH,mask-2.png,mask-1.png,s,1,1.0363237999845296,h,1,0.10631590010598302,0.04914329992607236,0.04886269988492131,0.09767339983955026,0.099585099844262,0.7487623000051826
RSVPLG03,si,20260408-083505,1.0.2,20260219-152011,817,Experiment,Both,1,Automatic,main,82,20260408-084153,local,global,750,S,H,E,A,E-S.png,H-A.png,sS,hH,mask-4.png,mask-4.png,s,1,0.4629401001147926,h,1,0.06500060018151999,0.047834099968895316,0.050668499898165464,0.09965130011551082,0.09998109983280301,0.7480662001762539
RSVPLG03,si,20260408-083505,1.0.2,20260219-152011,817,Experiment,Both,1,Automatic,main,83,20260408-084157,local,global,750,S,H,A,A,A-S.png,H-A.png,sS,hH,mask-1.png,mask-3.png,s,1,0.376001900061965,h,1,0.04966329992748797,0.049720299895852804,0.048022500006482005,0.09937769989483058,0.09877509996294975,0.7492414999287575
RSVPLG03,si,20260408-083505,1.0.2,20260219-152011,817,Experiment,Both,1,Automatic,main,84,20260408-084202,global,local,300,S,H,A,A,S-A.png,A-H.png,sS,hH,mask-1.png,mask-3.png,s,1,0.5076762000098825,h,1,0.01816249988041818,0.05098790000192821,0.04944740002974868,0.09959589992649853,0.0996401000302285,0.3004471999593079
RSVPLG03,si,20260408-083505,1.0.2,20260219-152011,817,Experiment,Both,1,Automatic,main,85,20260408-084206,global,global,750,H,S,A,A,H-A.png,S-A.png,hH,sS,mask-1.png,mask-2.png,h,1,0.2694683999288827,s,1,0.035190199967473745,0.05035690008662641,0.04945500008761883,0.10080279991962016,0.09968929993920028,0.7492394000291824
RSVPLG03,si,20260408-083505,1.0.2,20260219-152011,817,Experiment,Both,1,Automatic,main,86,20260408-084211,global,global,300,S,H,A,A,S-A.png,H-A.png,sS,hH,mask-4.png,mask-3.png,s,1,0.32176210009492934,h,1,0.09204280003905296,0.051634299801662564,0.04960849997587502,0.10022479994222522,0.1000253998208791,0.29912290000356734
RSVPLG03,si,20260408-083505,1.0.2,20260219-152011,817,Experiment,Both,1,Automatic,main,87,20260408-084215,global,global,750,H,S,A,E,H-A.png,S-E.png,hH,sS,mask-1.png,mask-3.png,h,1,0.24582519987598062,s,1,0.04030520003288984,0.04967660014517605,0.04989750008098781,0.09996040002442896,0.1006636000238359,0.749044300056994
RSVPLG03,si,20260408-083505,1.0.2,20260219-152011,817,Experiment,Both,1,Automatic,main,88,20260408-084219,local,local,300,S,S,E,A,E-S.png,A-S.png,sS,sS,mask-2.png,mask-3.png,h,0,0.3634832000825554,s,1,0.04011330008506775,0.05219880002550781,0.0503087998367846,0.09902690001763403,0.10115809994749725,0.3001042001415044
RSVPLG03,si,20260408-083505,1.0.2,20260219-152011,817,Experiment,Both,1,Automatic,main,89,20260408-084223,global,global,750,S,H,A,A,S-A.png,H-A.png,sS,hH,mask-1.png,mask-3.png,s,1,0.38034860021434724,h,1,0.42178299999795854,0.051447599893435836,0.05086179985664785,0.09994499990716577,0.10091789998114109,0.7490642999764532
RSVPLG03,si,20260408-083505,1.0.2,20260219-152011,817,Experiment,Both,1,Automatic,main,90,20260408-084228,local,global,300,S,S,A,A,A-S.png,S-A.png,sS,sS,mask-1.png,mask-4.png,s,1,0.45218769996427,h,0,0.20692870020866394,0.05092880013398826,0.05046689999289811,0.09905790002085268,0.09862859989516437,0.3000312000513077
RSVPLG03,si,20260408-083505,1.0.2,20260219-152011,817,Experiment,Both,1,Automatic,main,91,20260408-084232,global,local,750,S,H,A,E,S-A.png,E-H.png,sS,hH,mask-2.png,mask-4.png,s,1,0.5931264997925609,h,1,0.05113489995710552,0.0479186000302434,0.051403700141236186,0.09860229981131852,0.10036280006170273,0.7473046998493373
RSVPLG03,si,20260408-083505,1.0.2,20260219-152011,817,Experiment,Both,1,Automatic,main,92,20260408-084237,local,global,300,H,S,A,E,A-H.png,S-E.png,hH,sS,mask-3.png,mask-1.png,h,1,0.4271815000101924,s,1,0.42473169998265803,0.04952379991300404,0.050313200103119016,0.09858869994059205,0.09937920002266765,0.29772139992564917
RSVPLG03,si,20260408-083505,1.0.2,20260219-152011,817,Experiment,Both,1,Automatic,main,93,20260408-084242,global,global,750,H,S,E,A,H-E.png,S-A.png,hH,sS,mask-4.png,mask-1.png,h,1,0.2798888999968767,s,1,0.05755740008316934,0.049016600009053946,0.050413499819114804,0.09861530014313757,0.10018009995110333,0.7469189001712948
RSVPLG03,si,20260408-083505,1.0.2,20260219-152011,817,Experiment,Both,1,Automatic,main,94,20260408-084246,local,local,300,H,H,A,E,A-H.png,E-H.png,hH,hH,mask-3.png,mask-2.png,h,1,0.34127139998599887,h,1,0.29262359999120235,0.05010319990105927,0.05105930007994175,0.10005619982257485,0.09979000012390316,0.2996999998576939
RSVPLG03,si,20260408-083505,1.0.2,20260219-152011,817,Experiment,Both,1,Automatic,main,95,20260408-084251,local,global,300,S,S,E,E,E-S.png,S-E.png,sS,sS,mask-2.png,mask-4.png,s,1,1.2766711001750082,s,1,0.09814250003546476,0.04910869989544153,0.04908860009163618,0.10003479989245534,0.09987200004979968,0.2990591998677701
RSVPLG03,si,20260408-083505,1.0.2,20260219-152011,817,Experiment,Both,1,Automatic,main,96,20260408-084256,global,global,300,H,H,E,A,H-E.png,H-A.png,hH,hH,mask-2.png,mask-3.png,h,1,0.5306515998672694,h,1,0.10581550002098083,0.050103799905627966,0.048997299978509545,0.0992475999519229,0.10027509997598827,0.2995927999727428
RSVPLG03,si,20260408-083505,1.0.2,20260219-152011,817,Experiment,Both,1,Automatic,main,97,20260408-084300,local,global,300,H,S,E,A,E-H.png,S-A.png,hH,sS,mask-3.png,mask-3.png,s,0,0.7078859000466764,h,0,0.034465800039470196,0.0501052001491189,0.0496389998588711,0.10069230012595654,0.1002542998176068,0.29831730015575886
RSVPLG03,si,20260408-083505,1.0.2,20260219-152011,817,Experiment,Both,1,Automatic,main,98,20260408-084304,global,local,300,H,S,A,E,H-A.png,E-S.png,hH,sS,mask-2.png,mask-2.png,h,1,0.5484890998341143,h,0,0.23532620002515614,0.050072799902409315,0.049564799992367625,0.10068279993720353,0.09980849991552532,0.3001969000324607
RSVPLG03,si,20260408-083505,1.0.2,20260219-152011,817,Experiment,Both,1,Automatic,main,99,20260408-084309,global,global,300,S,H,E,A,S-E.png,H-A.png,sS,hH,mask-2.png,mask-3.png,s,1,0.31461500003933907,h,1,0.1300963000394404,0.04875220009125769,0.05045510013587773,0.09822029992938042,0.10027420008555055,0.29852019995450974
RSVPLG03,si,20260408-083505,1.0.2,20260219-152011,817,Experiment,Both,1,Automatic,main,100,20260408-084313,local,local,750,H,S,A,E,A-H.png,E-S.png,hH,sS,mask-4.png,mask-2.png,h,1,0.8825352001003921,s,1,0.014403700130060315,0.049711500061675906,0.05024050013162196,0.1011606000829488,0.09975860011763871,0.7482775000389665
RSVPLG03,si,20260408-084345,1.0.2,20260219-152011,817,Experiment,Both,1,Automatic,warmup,1,20260408-084402,local,global,300,S,S,E,A,E-S.png,S-A.png,sS,sS,mask-2.png,mask-4.png,s,1,0.2089935999829322,s,1,0.06196990003809333,0.04421880003064871,0.050132300006225705,0.09368510008789599,0.09913989994674921,0.29253540001809597
RSVPLG03,si,20260408-084345,1.0.2,20260219-152011,817,Experiment,Both,1,Automatic,warmup,2,20260408-084406,local,local,750,H,S,E,E,E-H.png,E-S.png,hH,sS,mask-1.png,mask-3.png,h,1,0.2851864998228848,s,1,0.0008523999713361263,0.04986800020560622,0.04908220004290342,0.09898460004478693,0.09703419986180961,0.7469294001348317
RSVPLG03,si,20260408-084345,1.0.2,20260219-152011,817,Experiment,Both,1,Automatic,warmup,3,20260408-084411,global,local,750,H,S,A,A,H-A.png,A-S.png,hH,sS,mask-3.png,mask-3.png,h,1,0.252149699954316,s,1,0.009588300017639995,0.04825640004128218,0.04899220005609095,0.0981531001161784,0.09799770009703934,0.7454657999332994
RSVPLG03,si,20260408-084345,1.0.2,20260219-152011,817,Experiment,Both,1,Automatic,warmup,4,20260408-084415,global,local,300,H,H,E,E,H-E.png,E-H.png,hH,hH,mask-1.png,mask-2.png,h,1,0.4951791998464614,h,1,0.08115920005366206,0.04914449993520975,0.049834700068458915,0.09833270008675754,0.09925880003720522,0.2982354999985546
RSVPLG03,si,20260408-084345,1.0.2,20260219-152011,817,Experiment,Both,1,Automatic,main,5,20260408-084419,global,local,300,S,H,A,A,S-A.png,A-H.png,sS,hH,mask-3.png,mask-2.png,s,1,0.18820949993096292,h,1,0.04696680000051856,0.05062799993902445,0.04982309998013079,0.10079959989525378,0.10021659987978637,0.2965249000117183
RSVPLG03,si,20260408-084345,1.0.2,20260219-152011,817,Experiment,Both,1,Automatic,main,6,20260408-084423,local,local,750,H,S,A,E,A-H.png,E-S.png,hH,sS,mask-1.png,mask-2.png,h,1,0.21208229986950755,s,1,0.022267799824476242,0.049507200019434094,0.049286300083622336,0.10080570005811751,0.09870610013604164,0.7450168000068516
RSVPLG03,si,20260408-084345,1.0.2,20260219-152011,817,Experiment,Both,1,Automatic,main,7,20260408-084428,global,local,750,H,S,A,E,H-A.png,E-S.png,hH,sS,mask-3.png,mask-3.png,h,1,0.17089060018770397,s,1,0.039070599945262074,0.0489142001606524,0.05041300016455352,0.09888750012032688,0.09978200006298721,0.7456094999797642
RSVPLG03,si,20260408-084345,1.0.2,20260219-152011,817,Experiment,Both,1,Automatic,main,8,20260408-084432,global,local,300,H,H,A,E,H-A.png,E-H.png,hH,hH,mask-1.png,mask-4.png,h,1,0.1965522998943925,s,0,0.01447970001026988,0.04792179982177913,0.04993019998073578,0.09827379998750985,0.0994994998909533,0.29634090000763535
RSVPLG03,si,20260408-084345,1.0.2,20260219-152011,817,Experiment,Both,1,Automatic,main,9,20260408-084436,global,global,300,S,S,A,E,S-A.png,S-E.png,sS,sS,mask-4.png,mask-1.png,s,1,0.2130761998705566,s,1,0.11409970000386238,0.05069579998962581,0.05061579984612763,0.10019310005009174,0.10111949988640845,0.2977417001966387
RSVPLG03,si,20260408-084345,1.0.2,20260219-152011,817,Experiment,Both,1,Automatic,main,10,20260408-084440,local,local,750,H,S,E,A,E-H.png,A-S.png,hH,sS,mask-1.png,mask-1.png,h,1,1.114065800094977,s,1,0.06810780009254813,0.04864710010588169,0.04964280012063682,0.09749840013682842,0.09796290006488562,0.7458810000680387
RSVPLG03,si,20260408-084345,1.0.2,20260219-152011,817,Experiment,Both,1,Automatic,main,11,20260408-084445,global,local,750,H,S,E,A,H-E.png,A-S.png,hH,sS,mask-4.png,mask-2.png,h,1,0.2802061999682337,s,1,0.05407369998283684,0.04908209992572665,0.04786680010147393,0.09910440002568066,0.09868409996852279,0.7455052000004798
RSVPLG03,si,20260408-084345,1.0.2,20260219-152011,817,Experiment,Both,1,Automatic,main,12,20260408-084449,local,global,750,S,S,A,A,A-S.png,S-A.png,sS,sS,mask-2.png,mask-4.png,s,1,0.3962292999494821,s,1,0.06429449981078506,0.048705500084906816,0.05009129992686212,0.09864580002613366,0.10080279991962016,0.7437557000666857
RSVPLG03,si,20260408-084345,1.0.2,20260219-152011,817,Experiment,Both,1,Automatic,main,13,20260408-084454,local,local,750,H,S,E,E,E-H.png,E-S.png,hH,sS,mask-4.png,mask-3.png,s,0,0.3893744999077171,s,1,0.09837120003066957,0.04960709996521473,0.050742800114676356,0.09902459988370538,0.10087590012699366,0.7454442998860031
RSVPLG03,si,20260408-084345,1.0.2,20260219-152011,817,Experiment,Both,1,Automatic,main,14,20260408-084459,local,global,300,H,S,E,A,E-H.png,S-A.png,hH,sS,mask-1.png,mask-4.png,h,1,0.32124119997024536,s,1,0.048755700001493096,0.0490620001219213,0.05035619996488094,0.09868549997918308,0.10116619989275932,0.2975942001212388
RSVPLG03,si,20260408-084345,1.0.2,20260219-152011,817,Experiment,Both,1,Automatic,main,15,20260408-084503,local,global,750,S,S,A,E,A-S.png,S-E.png,sS,sS,mask-3.png,mask-3.png,s,1,0.5270726999733597,h,0,0.16991490009240806,0.04999800003133714,0.04967519990168512,0.09947620006278157,0.10046659992076457,0.7454727001022547
RSVPLG03,si,20260408-084345,1.0.2,20260219-152011,817,Experiment,Both,1,Automatic,main,16,20260408-084507,global,global,750,S,S,A,E,S-A.png,S-E.png,sS,sS,mask-1.png,mask-2.png,s,1,0.11018670001067221,s,1,0.12643239996396005,0.04797319998033345,0.05055089993402362,0.09962430014275014,0.10133079998195171,0.7423543001059443
RSVPLG03,si,20260408-084345,1.0.2,20260219-152011,817,Experiment,Both,1,Automatic,main,17,20260408-084512,global,local,300,S,S,E,E,S-E.png,E-S.png,sS,sS,mask-2.png,mask-3.png,s,1,0.3386254000943154,s,1,0.10882489988580346,0.0504870000295341,0.04883220000192523,0.09931640001013875,0.10059679998084903,0.2981885999906808
RSVPLG03,si,20260408-084345,1.0.2,20260219-152011,817,Experiment,Both,1,Automatic,main,18,20260408-084516,local,local,750,H,S,A,A,A-H.png,A-S.png,hH,sS,mask-3.png,mask-4.png,h,1,0.19328409992158413,s,1,0.015516199870035052,0.05116780009120703,0.04817399987950921,0.10038549988530576,0.09872019989416003,0.7481219000183046
RSVPLG03,si,20260408-084345,1.0.2,20260219-152011,817,Experiment,Both,1,Automatic,main,19,20260408-084520,local,local,300,S,H,A,E,A-S.png,E-H.png,sS,hH,mask-4.png,mask-3.png,s,1,0.20773010002449155,h,1,0.0027556000277400017,0.04709010012447834,0.05061020003631711,0.09792349999770522,0.10066500003449619,0.2956185000948608
RSVPLG03,si,20260408-084345,1.0.2,20260219-152011,817,Experiment,Both,1,Automatic,main,20,20260408-084524,global,global,750,H,S,E,A,H-E.png,S-A.png,hH,sS,mask-2.png,mask-3.png,h,1,0.2193577999714762,s,1,0.007694300031289458,0.05016040010377765,0.04767260001972318,0.09838950005359948,0.09750899998471141,0.7457683000247926
RSVPLG03,si,20260408-084345,1.0.2,20260219-152011,817,Experiment,Both,1,Automatic,main,21,20260408-084528,global,local,300,H,S,E,A,H-E.png,A-S.png,hH,sS,mask-1.png,mask-4.png,s,0,0.6133886000607163,s,1,0.13769200001843274,0.04895720002241433,0.04998750006780028,0.10058030020445585,0.09920749999582767,0.298820500029251
RSVPLG03,si,20260408-084345,1.0.2,20260219-152011,817,Experiment,Both,1,Automatic,main,22,20260408-084533,global,global,750,S,H,A,A,S-A.png,H-A.png,sS,hH,mask-2.png,mask-3.png,h,0,0.3604804000351578,s,0,0.03282060008496046,0.049195999978110194,0.05038080015219748,0.10037780017592013,0.09884890005923808,0.7452718999702483
RSVPLG03,si,20260408-084345,1.0.2,20260219-152011,817,Experiment,Both,1,Automatic,main,23,20260408-084537,local,local,300,H,S,A,A,A-H.png,A-S.png,hH,sS,mask-4.png,mask-1.png,h,1,1.069138600025326,s,1,0.02037899987772107,0.0505731999874115,0.04945009993389249,0.10097289993427694,0.09941900009289384,0.2989045998547226
RSVPLG03,si,20260408-084345,1.0.2,20260219-152011,817,Experiment,Both,1,Automatic,main,24,20260408-084542,global,global,750,H,H,A,A,H-A.png,H-A.png,hH,hH,mask-3.png,mask-1.png,h,1,0.5156499999575317,h,1,0.0936731998808682,0.051376699935644865,0.047413199907168746,0.09966179984621704,0.09861629991792142,0.7469357999507338
RSVPLG03,si,20260408-084345,1.0.2,20260219-152011,817,Experiment,Both,1,Automatic,main,25,20260408-084547,global,local,750,S,S,A,E,S-A.png,E-S.png,sS,sS,mask-1.png,mask-2.png,s,1,0.2015467998571694,s,1,0.10474589979276061,0.05024050013162196,0.05036580003798008,0.09891439997591078,0.09998239995911717,0.7455607000738382
RSVPLG03,si,20260408-084345,1.0.2,20260219-152011,817,Experiment,Both,1,Automatic,main,26,20260408-084552,local,local,750,S,H,E,A,E-S.png,A-H.png,sS,hH,mask-1.png,mask-3.png,s,1,0.7983547998592257,h,1,0.9104172000661492,0.050410700030624866,0.050547300139442086,0.10153680015355349,0.09881640016101301,0.7460694999899715
RSVPLG03,si,20260408-084345,1.0.2,20260219-152011,817,Experiment,Both,1,Automatic,main,27,20260408-084557,global,global,300,H,S,A,E,H-A.png,S-E.png,hH,sS,mask-4.png,mask-3.png,h,1,0.2819309998303652,s,1,0.6608170999679714,0.04888199991546571,0.05131329991854727,0.10054040001705289,0.10022479994222522,0.29729790007695556
RSVPLG03,si,20260408-084345,1.0.2,20260219-152011,817,Experiment,Both,1,Automatic,main,28,20260408-084601,local,local,750,H,H,E,A,E-H.png,A-H.png,hH,hH,mask-3.png,mask-1.png,s,0,0.5525165998842567,h,1,0.02500830008648336,0.04822220001369715,0.05011969991028309,0.10058770002797246,0.09860010002739727,0.7455277999397367
RSVPLG03,si,20260408-084345,1.0.2,20260219-152011,817,Experiment,Both,1,Automatic,main,29,20260408-084606,local,local,300,S,H,A,E,A-S.png,E-H.png,sS,hH,mask-3.png,mask-3.png,h,0,0.19130360009148717,h,1,0.1061372000258416,0.05240290006622672,0.051360500045120716,0.1001611000392586,0.09908059984445572,0.2983932001516223
RSVPLG03,si,20260408-084345,1.0.2,20260219-152011,817,Experiment,Both,1,Automatic,main,30,20260408-084610,local,global,750,H,H,A,A,A-H.png,H-A.png,hH,hH,mask-4.png,mask-2.png,h,1,1.0663799999747425,h,1,0.07477529998868704,0.0502857998944819,0.05064930021762848,0.10025670006871223,0.09859700012020767,0.7455620998516679
RSVPLG03,si,20260408-084345,1.0.2,20260219-152011,817,Experiment,Both,1,Automatic,main,31,20260408-084615,global,local,300,H,H,E,E,H-E.png,E-H.png,hH,hH,mask-2.png,mask-4.png,h,1,0.15471240016631782,h,1,0.08916629990562797,0.0487168999388814,0.04816409992054105,0.0984912000130862,0.0988072999753058,0.2991271000355482
RSVPLG03,si,20260408-084345,1.0.2,20260219-152011,817,Experiment,Both,1,Automatic,main,32,20260408-084619,local,global,750,S,S,E,A,E-S.png,S-A.png,sS,sS,mask-4.png,mask-1.png,s,1,0.2609685000497848,s,1,0.10462410002946854,0.05139270005747676,0.05085180001333356,0.09944980009458959,0.10049929982051253,0.746154900174588
RSVPLG03,si,20260408-084345,1.0.2,20260219-152011,817,Experiment,Both,1,Automatic,main,33,20260408-084623,local,local,300,H,H,E,A,E-H.png,A-H.png,hH,hH,mask-2.png,mask-1.png,h,1,0.16967059997841716,h,1,0.08497960004024208,0.05040640011429787,0.04981190012767911,0.0999271001201123,0.10303799994289875,0.2991257000248879
RSVPLG03,si,20260408-084345,1.0.2,20260219-152011,817,Experiment,Both,1,Automatic,main,34,20260408-084627,local,global,750,H,H,E,E,E-H.png,H-E.png,hH,hH,mask-1.png,mask-3.png,h,1,0.2749036999884993,h,1,0.0741206998936832,0.05001730006188154,0.04985329997725785,0.09890610002912581,0.10072009987197816,0.7438312000595033
RSVPLG03,si,20260408-084345,1.0.2,20260219-152011,817,Experiment,Both,1,Automatic,main,35,20260408-084632,local,local,300,H,S,A,A,A-H.png,A-S.png,hH,sS,mask-2.png,mask-3.png,h,1,0.24421919998712838,h,0,0.2224918999709189,0.048046099953353405,0.050921699963510036,0.09789819992147386,0.09764089994132519,0.29763190005905926
RSVPLG03,si,20260408-084345,1.0.2,20260219-152011,817,Experiment,Both,1,Automatic,main,36,20260408-084636,global,global,300,H,H,A,E,H-A.png,H-E.png,hH,hH,mask-4.png,mask-4.png,h,1,0.2351822000928223,h,1,0.07205459987744689,0.04823700012639165,0.04933710000477731,0.09852290013805032,0.09823550004512072,0.2969551000278443
RSVPLG03,si,20260408-084345,1.0.2,20260219-152011,817,Experiment,Both,1,Automatic,main,37,20260408-084640,local,local,300,H,H,A,E,A-H.png,E-H.png,hH,hH,mask-4.png,mask-4.png,h,1,0.20800240011885762,h,1,0.058660600101575255,0.04913290007971227,0.04884300008416176,0.0995500001590699,0.09885450010187924,0.297852799994871
RSVPLG03,si,20260408-084345,1.0.2,20260219-152011,817,Experiment,Both,1,Automatic,main,38,20260408-084644,local,local,300,S,H,A,A,A-S.png,A-H.png,sS,hH,mask-2.png,mask-3.png,h,0,0.4140870999544859,h,1,0.06926249992102385,0.05049160006456077,0.04978330014273524,0.09784870012663305,0.10085380007512867,0.2963032000698149
RSVPLG03,si,20260408-084345,1.0.2,20260219-152011,817,Experiment,Both,1,Automatic,main,39,20260408-084648,global,local,750,S,H,A,A,S-A.png,A-H.png,sS,hH,mask-2.png,mask-2.png,s,1,0.46847169985994697,h,1,0.5303468001075089,0.04892440000548959,0.049594399984925985,0.09852509992197156,0.09958479995839298,0.7441815000493079
RSVPLG03,si,20260408-084345,1.0.2,20260219-152011,817,Experiment,Both,1,Automatic,main,40,20260408-084653,local,global,300,H,H,A,E,A-H.png,H-E.png,hH,hH,mask-4.png,mask-1.png,h,1,0.18072240008041263,h,1,0.07914439984597266,0.0488278002012521,0.048109399853274226,0.0984214001800865,0.09663659986108541,0.2988125002011657
RSVPLG03,si,20260408-084345,1.0.2,20260219-152011,817,Experiment,Both,1,Automatic,main,41,20260408-084657,global,global,300,H,S,E,A,H-E.png,S-A.png,hH,sS,mask-1.png,mask-3.png,h,1,1.3323041999246925,s,1,0.05970470001921058,0.05164650012739003,0.04906459990888834,0.09849700005725026,0.09824949991889298,0.29849010007455945
RSVPLG03,si,20260408-084345,1.0.2,20260219-152011,817,Experiment,Both,1,Automatic,main,42,20260408-084702,global,local,300,H,H,E,E,H-E.png,E-H.png,hH,hH,mask-1.png,mask-2.png,h,1,0.4065293001476675,h,1,0.09760179999284446,0.04880119999870658,0.05086990003474057,0.09765339992009103,0.10062719997949898,0.2972069999668747
RSVPLG03,si,20260408-084345,1.0.2,20260219-152011,817,Experiment,Both,1,Automatic,main,43,20260408-084706,global,global,750,S,S,E,E,S-E.png,S-E.png,sS,sS,mask-4.png,mask-1.png,s,1,0.3801475998479873,s,1,0.10428870003670454,0.04764290014281869,0.04771910002455115,0.09655819996260107,0.09873190009966493,0.7446735000703484
RSVPLG03,si,20260408-084345,1.0.2,20260219-152011,817,Experiment,Both,1,Automatic,main,44,20260408-084710,local,local,750,S,H,A,E,A-S.png,E-H.png,sS,hH,mask-2.png,mask-4.png,h,0,0.7134519000537694,h,1,0.14948770008049905,0.04899669997394085,0.05002429988235235,0.10052830004133284,0.10179909993894398,0.7457157000899315
RSVPLG03,si,20260408-084345,1.0.2,20260219-152011,817,Experiment,Both,1,Automatic,main,45,20260408-084715,local,global,300,S,S,A,A,A-S.png,S-A.png,sS,sS,mask-4.png,mask-4.png,s,1,0.26554950000718236,h,0,0.018469000002369285,0.04991899989545345,0.0510474001057446,0.09920769999735057,0.09924110001884401,0.2985646999441087
RSVPLG03,si,20260408-084345,1.0.2,20260219-152011,817,Experiment,Both,1,Automatic,main,46,20260408-084719,global,global,300,H,H,E,E,H-E.png,H-E.png,hH,hH,mask-1.png,mask-1.png,h,1,0.11858970019966364,h,1,0.10620429995469749,0.050115999998524785,0.05023950012400746,0.09977289987728,0.09994940017350018,0.2976386998780072
RSVPLG03,si,20260408-084345,1.0.2,20260219-152011,817,Experiment,Both,1,Automatic,main,47,20260408-084723,local,global,750,H,H,A,A,A-H.png,H-A.png,hH,hH,mask-2.png,mask-4.png,h,1,0.3273358999285847,s,0,0.041715600062161684,0.049792799865826964,0.049646300030872226,0.0983047999907285,0.09954710002057254,0.7456753998994827
RSVPLG03,si,20260408-084345,1.0.2,20260219-152011,817,Experiment,Both,1,Automatic,main,48,20260408-084728,local,global,300,S,S,E,A,E-S.png,S-A.png,sS,sS,mask-4.png,mask-4.png,s,1,0.9899909000378102,s,1,0.08848450006917119,0.04945589997805655,0.04988509998656809,0.09844859992153943,0.09969789977185428,0.2970821000635624
RSVPLG03,si,20260408-084345,1.0.2,20260219-152011,817,Experiment,Both,1,Automatic,main,49,20260408-084732,local,local,300,H,H,E,E,E-H.png,E-H.png,hH,hH,mask-1.png,mask-4.png,h,1,0.12333520012907684,h,1,0.0985806998796761,0.051065800013020635,0.05137020000256598,0.10095029999502003,0.10188640002161264,0.2989099998958409
RSVPLG03,si,20260408-084345,1.0.2,20260219-152011,817,Experiment,Both,1,Automatic,main,50,20260408-084736,local,local,750,S,S,E,E,E-S.png,E-S.png,sS,sS,mask-1.png,mask-2.png,s,1,0.014698099810630083,s,1,0.11148640001192689,0.0490894999820739,0.0494832000695169,0.10053099994547665,0.10020059999078512,0.7462154999375343
RSVPLG03,si,20260408-084345,1.0.2,20260219-152011,817,Experiment,Both,1,Automatic,main,51,20260408-084741,local,global,300,S,S,A,E,A-S.png,S-E.png,sS,sS,mask-2.png,mask-4.png,s,1,0.16524440003558993,h,0,0.052975300000980496,0.04987240000627935,0.048716200049966574,0.10099609987810254,0.10043830005452037,0.29841479985043406
RSVPLG03,si,20260408-084345,1.0.2,20260219-152011,817,Experiment,Both,1,Automatic,main,52,20260408-084745,global,local,300,H,S,E,A,H-E.png,A-S.png,hH,sS,mask-1.png,mask-3.png,s,0,0.5755648999474943,h,0,0.17008959990926087,0.04736069985665381,0.04876799997873604,0.0978496999014169,0.09728919994086027,0.29822500003501773
RSVPLG03,si,20260408-084345,1.0.2,20260219-152011,817,Experiment,Both,1,Automatic,main,53,20260408-084750,global,local,300,S,H,E,A,S-E.png,A-H.png,sS,hH,mask-2.png,mask-2.png,h,0,0.4091304999310523,s,0,0.12196379993110895,0.04971810011193156,0.04949270002543926,0.09815990016795695,0.09951209998689592,0.29659190005622804
RSVPLG03,si,20260408-084345,1.0.2,20260219-152011,817,Experiment,Both,1,Automatic,main,54,20260408-084754,global,local,300,H,S,E,E,H-E.png,E-S.png,hH,sS,mask-4.png,mask-3.png,s,0,0.6147325001657009,s,1,0.13555909995920956,0.04781689983792603,0.05008880002424121,0.09752899990417063,0.10072509991005063,0.29585979995317757
RSVPLG03,si,20260408-084345,1.0.2,20260219-152011,817,Experiment,Both,1,Automatic,main,55,20260408-084758,global,global,750,S,S,E,E,S-E.png,S-E.png,sS,sS,mask-4.png,mask-3.png,s,1,0.5388522001449019,s,1,0.11296209995634854,0.048675499856472015,0.04921890003606677,0.09755599987693131,0.09901980007998645,0.7441693998407573
RSVPLG03,si,20260408-084345,1.0.2,20260219-152011,817,Experiment,Both,1,Automatic,main,56,20260408-084803,local,local,750,S,H,A,A,A-S.png,A-H.png,sS,hH,mask-2.png,mask-3.png,s,1,0.18315979978069663,h,1,0.3113520999904722,0.05009749997407198,0.04773369990289211,0.10109020001254976,0.09881009999662638,0.7471253001131117
RSVPLG03,si,20260408-084345,1.0.2,20260219-152011,817,Experiment,Both,1,Automatic,main,57,20260408-084807,global,global,300,H,S,A,E,H-A.png,S-E.png,hH,sS,mask-1.png,mask-1.png,h,1,0.13818320003338158,h,0,0.06530230003409088,0.047575199976563454,0.04816120001487434,0.0967548000626266,0.09802059992216527,0.29698810004629195
RSVPLG03,si,20260408-084345,1.0.2,20260219-152011,817,Experiment,Both,1,Automatic,main,58,20260408-084811,global,global,300,H,H,A,A,H-A.png,H-A.png,hH,hH,mask-2.png,mask-2.png,h,1,0.13165290001779795,h,1,0.6268740999512374,0.048588900128379464,0.050055299885571,0.09670230001211166,0.09872810007072985,0.29713100008666515
RSVPLG03,si,20260408-084345,1.0.2,20260219-152011,817,Experiment,Both,1,Automatic,main,59,20260408-084815,global,local,750,H,S,A,E,H-A.png,E-S.png,hH,sS,mask-4.png,mask-2.png,h,1,0.5975901000201702,h,0,0.0821295001078397,0.049450499936938286,0.048844599863514304,0.10012220009230077,0.09866110002622008,0.7458995000924915
RSVPLG03,si,20260408-084345,1.0.2,20260219-152011,817,Experiment,Both,1,Automatic,main,60,20260408-084820,local,global,750,H,S,E,A,E-H.png,S-A.png,hH,sS,mask-4.png,mask-3.png,s,0,0.2339097000658512,s,1,0.6754574000369757,0.051244799979031086,0.050390300108119845,0.10010330006480217,0.10165229998528957,0.7441157000139356
RSVPLG03,si,20260408-084345,1.0.2,20260219-152011,817,Experiment,Both,1,Automatic,main,61,20260408-084825,global,global,300,H,H,E,A,H-E.png,H-A.png,hH,hH,mask-2.png,mask-3.png,h,1,0.3171616999898106,h,1,0.16137190000154078,0.049127299804240465,0.050719200167804956,0.09760849992744625,0.1001424000132829,0.29778849985450506
RSVPLG03,si,20260408-084345,1.0.2,20260219-152011,817,Experiment,Both,1,Automatic,main,62,20260408-084829,global,local,750,S,S,A,E,S-A.png,E-S.png,sS,sS,mask-3.png,mask-2.png,s,1,0.3027328001335263,s,1,0.2005425998941064,0.05062540015205741,0.05261840019375086,0.1000793999992311,0.09948490001261234,0.7442437999416143
RSVPLG03,si,20260408-084345,1.0.2,20260219-152011,817,Experiment,Both,1,Automatic,main,63,20260408-084834,local,global,300,S,H,E,A,E-S.png,H-A.png,sS,hH,mask-4.png,mask-4.png,s,1,0.1968998999800533,s,0,0.13161280006170273,0.05144999991171062,0.04920820007100701,0.10182920005172491,0.10010230005718768,0.29944289987906814
RSVPLG03,si,20260408-084345,1.0.2,20260219-152011,817,Experiment,Both,1,Automatic,main,64,20260408-084838,global,global,750,S,H,A,A,S-A.png,H-A.png,sS,hH,mask-2.png,mask-1.png,s,1,0.3264903000090271,h,1,0.17028939980082214,0.05021320004016161,0.05043519986793399,0.10012600012123585,0.10045519983395934,0.7456667001824826
RSVPLG03,si,20260408-084345,1.0.2,20260219-152011,817,Experiment,Both,1,Automatic,main,65,20260408-084843,global,local,750,H,H,A,A,H-A.png,A-H.png,hH,hH,mask-2.png,mask-3.png,h,1,0.40542620001360774,h,1,0.10578080010600388,0.05159720010124147,0.04742989991791546,0.09997690003365278,0.09792289999313653,0.7480906001292169
RSVPLG03,si,20260408-084345,1.0.2,20260219-152011,817,Experiment,Both,1,Automatic,main,66,20260408-084847,local,local,750,S,S,E,E,E-S.png,E-S.png,sS,sS,mask-1.png,mask-3.png,s,1,0.7208203000482172,s,1,0.18867890001274645,0.05002809991128743,0.049555999925360084,0.0998781998641789,0.10092550003901124,0.7458812999539077
RSVPLG03,si,20260408-084345,1.0.2,20260219-152011,817,Experiment,Both,1,Automatic,main,67,20260408-084852,local,global,750,H,S,A,E,A-H.png,S-E.png,hH,sS,mask-4.png,mask-2.png,h,1,0.2839413001202047,s,1,0.1518297998700291,0.05045689991675317,0.04966729995794594,0.10023769992403686,0.09883919986896217,0.7460419000126421
RSVPLG03,si,20260408-084345,1.0.2,20260219-152011,817,Experiment,Both,1,Automatic,main,68,20260408-084857,global,global,300,H,H,A,A,H-A.png,H-A.png,hH,hH,mask-3.png,mask-4.png,h,1,0.20424989983439445,h,1,0.13860950013622642,0.04889109986834228,0.049003500025719404,0.09825200005434453,0.09944749996066093,0.29753470001742244
RSVPLG03,si,20260408-084345,1.0.2,20260219-152011,817,Experiment,Both,1,Automatic,main,69,20260408-084901,global,global,300,S,S,A,E,S-A.png,S-E.png,sS,sS,mask-3.png,mask-2.png,s,1,0.1839308999478817,s,1,0.1282109001185745,0.05068550002761185,0.050507400184869766,0.09969100006856024,0.09834950021468103,0.29916279995813966
RSVPLG03,si,20260408-084345,1.0.2,20260219-152011,817,Experiment,Both,1,Automatic,main,70,20260408-084905,local,local,750,S,S,A,A,A-S.png,A-S.png,sS,sS,mask-4.png,mask-2.png,s,1,0.1991095000412315,s,1,0.156797899864614,0.04994980012997985,0.049037600168958306,0.10003840015269816,0.10045000002719462,0.7465729999821633
RSVPLG03,si,20260408-084345,1.0.2,20260219-152011,817,Experiment,Both,1,Automatic,main,71,20260408-084909,global,global,750,H,S,E,E,H-E.png,S-E.png,hH,sS,mask-3.png,mask-4.png,h,1,1.2429529998917133,h,0,0.29080100008286536,0.04958230000920594,0.04688860010355711,0.09994089999236166,0.09867320000194013,0.7477120999246836
RSVPLG03,si,20260408-084345,1.0.2,20260219-152011,817,Experiment,Both,1,Automatic,main,72,20260408-084915,global,local,750,S,H,A,E,S-A.png,E-H.png,sS,hH,mask-1.png,mask-3.png,s,1,0.1644076001830399,s,0,0.2741644000634551,0.05052149994298816,0.04981039999984205,0.10019709984771907,0.09918759996071458,0.7466300998348743
RSVPLG03,si,20260408-084345,1.0.2,20260219-152011,817,Experiment,Both,1,Automatic,main,73,20260408-084920,local,global,750,S,H,A,E,A-S.png,H-E.png,sS,hH,mask-1.png,mask-4.png,s,1,0.4448162999469787,h,1,0.18184969993308187,0.051678899908438325,0.048885699827224016,0.10265460005030036,0.09886599984019995,0.7459929001051933
RSVPLG03,si,20260408-084345,1.0.2,20260219-152011,817,Experiment,Both,1,Automatic,main,74,20260408-084924,global,local,750,S,H,A,E,S-A.png,E-H.png,sS,hH,mask-3.png,mask-1.png,s,1,0.554533899994567,h,1,0.2505402001552284,0.04878799989819527,0.04893289995379746,0.09953300002962351,0.09926580009050667,0.746394099900499
RSVPLG03,si,20260408-084345,1.0.2,20260219-152011,817,Experiment,Both,1,Automatic,main,75,20260408-084929,global,local,300,S,S,A,E,S-A.png,E-S.png,sS,sS,mask-3.png,mask-4.png,s,1,0.5699664999265224,s,1,0.29802460013888776,0.0443104999139905,0.04745980002917349,0.09477810002863407,0.0981905001681298,0.2947956998832524
RSVPLG03,si,20260408-084345,1.0.2,20260219-152011,817,Experiment,Both,1,Automatic,main,76,20260408-084935,global,global,750,H,H,A,A,H-A.png,H-A.png,hH,hH,mask-4.png,mask-3.png,s,0,0.2021649000234902,h,1,0.2097883999813348,0.04833650006912649,0.04751400020904839,0.09870660002343357,0.09801870002411306,0.7452451998833567
RSVPLG03,si,20260408-084345,1.0.2,20260219-152011,817,Experiment,Both,1,Automatic,main,77,20260408-084940,local,global,300,S,S,A,E,A-S.png,S-E.png,sS,sS,mask-4.png,mask-1.png,s,1,0.5371151999570429,h,0,0.05797239998355508,0.0481867000926286,0.05035710008814931,0.09794149990193546,0.10002040001563728,0.29540699999779463
RSVPLG03,si,20260408-084345,1.0.2,20260219-152011,817,Experiment,Both,1,Automatic,main,78,20260408-084944,global,local,750,H,S,E,A,H-E.png,A-S.png,hH,sS,mask-3.png,mask-4.png,h,1,0.16752239991910756,s,1,0.16241830005310476,0.050369299948215485,0.05141540011391044,0.09863399993628263,0.10093290009535849,0.7450124998576939
RSVPLG03,si,20260408-084345,1.0.2,20260219-152011,817,Experiment,Both,1,Automatic,main,79,20260408-084948,global,local,300,H,S,A,E,H-A.png,E-S.png,hH,sS,mask-2.png,mask-4.png,h,1,0.21032759989611804,s,1,0.023008899996057153,0.04891239991411567,0.050340000074356794,0.09758890001103282,0.10079260007478297,0.2958636998664588
RSVPLG03,si,20260408-084345,1.0.2,20260219-152011,817,Experiment,Both,1,Automatic,main,80,20260408-084952,global,local,750,S,H,A,E,S-A.png,E-H.png,sS,hH,mask-2.png,mask-2.png,h,0,0.4388211998157203,s,0,0.061231100000441074,0.04971019993536174,0.04850289993919432,0.10100919986143708,0.09891479997895658,0.7460978999733925
RSVPLG03,si,20260408-084345,1.0.2,20260219-152011,817,Experiment,Both,1,Automatic,main,81,20260408-084957,global,global,300,H,S,E,A,H-E.png,S-A.png,hH,sS,mask-4.png,mask-3.png,h,1,0.3440860998816788,s,1,0.07454030006192625,0.05092879990115762,0.05057190009392798,0.0992498998530209,0.09952870011329651,0.298429099842906
RSVPLG03,si,20260408-084345,1.0.2,20260219-152011,817,Experiment,Both,1,Automatic,main,82,20260408-085001,local,local,300,S,H,A,E,A-S.png,E-H.png,sS,hH,mask-4.png,mask-2.png,s,1,0.22189859999343753,h,1,0.017211199970915914,0.048642999958246946,0.04837190010584891,0.09801610000431538,0.09900140017271042,0.2986971999052912
RSVPLG03,si,20260408-084345,1.0.2,20260219-152011,817,Experiment,Both,1,Automatic,main,83,20260408-085005,local,local,300,H,H,E,A,E-H.png,A-H.png,hH,hH,mask-2.png,mask-4.png,h,1,0.09382469998672605,s,0,0.016599100083112717,0.049410599982365966,0.05009459983557463,0.10083650005981326,0.10163969988934696,0.2974311001598835
RSVPLG03,si,20260408-084345,1.0.2,20260219-152011,817,Experiment,Both,1,Automatic,main,84,20260408-085009,global,global,750,S,H,E,A,S-E.png,H-A.png,sS,hH,mask-4.png,mask-4.png,s,1,0.2235574999358505,h,1,0.529013300081715,0.05028389999642968,0.049310100032016635,0.0984241000842303,0.10004150005988777,0.7456076999660581
RSVPLG03,si,20260408-084345,1.0.2,20260219-152011,817,Experiment,Both,1,Automatic,main,85,20260408-085014,local,local,300,S,H,E,A,E-S.png,A-H.png,sS,hH,mask-1.png,mask-1.png,s,1,0.20570749999023974,h,1,0.046938200015574694,0.04988149995915592,0.04988580010831356,0.09757429989986122,0.09861670015379786,0.29853469994850457
RSVPLG03,si,20260408-084345,1.0.2,20260219-152011,817,Experiment,Both,1,Automatic,main,86,20260408-085018,global,global,750,S,S,E,A,S-E.png,S-A.png,sS,sS,mask-1.png,mask-3.png,s,1,0.24027609988115728,h,0,0.4913422001991421,0.04978599981404841,0.04983830009587109,0.09981699986383319,0.10102699999697506,0.7466542997863144
RSVPLG03,si,20260408-084345,1.0.2,20260219-152011,817,Experiment,Both,1,Automatic,main,87,20260408-085023,local,global,750,H,H,A,A,A-H.png,H-A.png,hH,hH,mask-4.png,mask-4.png,h,1,0.727076199837029,h,1,0.35350209986791015,0.04964719992130995,0.04890710022300482,0.10097169992513955,0.10058110021054745,0.745357999810949
RSVPLG03,si,20260408-084345,1.0.2,20260219-152011,817,Experiment,Both,1,Automatic,main,88,20260408-085028,local,global,300,H,H,A,E,A-H.png,H-E.png,hH,hH,mask-1.png,mask-2.png,h,1,0.08974460000172257,h,1,0.13985530007630587,0.049681799951940775,0.04814899992197752,0.09772439999505877,0.09898300003260374,0.2978348999749869
RSVPLG03,si,20260408-084345,1.0.2,20260219-152011,817,Experiment,Both,1,Automatic,main,89,20260408-085032,local,global,750,S,H,A,A,A-S.png,H-A.png,sS,hH,mask-2.png,mask-4.png,s,1,0.1697509998921305,h,1,0.17815349996089935,0.04942199983634055,0.05067750019952655,0.10031869984231889,0.09968580002896488,0.7445955998264253
RSVPLG03,si,20260408-084345,1.0.2,20260219-152011,817,Experiment,Both,1,Automatic,main,90,20260408-085036,global,local,300,S,S,A,A,S-A.png,A-S.png,sS,sS,mask-4.png,mask-3.png,s,1,0.203516700072214,h,0,0.009762000059708953,0.048850399907678366,0.0493899998255074,0.09986609988845885,0.09874249994754791,0.29801400005817413
RSVPLG03,si,20260408-084345,1.0.2,20260219-152011,817,Experiment,Both,1,Automatic,main,91,20260408-085040,global,global,750,H,S,E,A,H-E.png,S-A.png,hH,sS,mask-1.png,mask-1.png,s,0,0.0132039999589324,h,0,0.1931681998539716,0.048548399936407804,0.05088470014743507,0.0992652999702841,0.09990660008043051,0.744735499843955
RSVPLG03,si,20260408-084345,1.0.2,20260219-152011,817,Experiment,Both,1,Automatic,main,92,20260408-085044,local,global,750,H,S,A,E,A-H.png,S-E.png,hH,sS,mask-4.png,mask-2.png,h,1,0.25212149997241795,s,1,0.20098319998942316,0.052665899973362684,0.04896860010921955,0.10105860000476241,0.09880789997987449,0.746214099926874
RSVPLG03,si,20260408-084345,1.0.2,20260219-152011,817,Experiment,Both,1,Automatic,main,93,20260408-085049,local,global,300,S,S,A,E,A-S.png,S-E.png,sS,sS,mask-2.png,mask-4.png,s,1,0.19433339987881482,h,0,0.07329749991185963,0.048159300116822124,0.04959650011733174,0.0978984001558274,0.09935120004229248,0.29640020010992885
RSVPLG03,si,20260408-084345,1.0.2,20260219-152011,817,Experiment,Both,1,Automatic,main,94,20260408-085053,local,global,300,S,H,A,E,A-S.png,H-E.png,sS,hH,mask-3.png,mask-4.png,s,1,0.1604923999402672,s,0,0.08190580015070736,0.050848400220274925,0.048906799871474504,0.10206990013830364,0.09735499997623265,0.29975610016845167
RSVPLG03,si,20260408-084345,1.0.2,20260219-152011,817,Experiment,Both,1,Automatic,main,95,20260408-085057,local,local,300,H,S,A,E,A-H.png,E-S.png,hH,sS,mask-1.png,mask-2.png,s,0,0.20268019987270236,h,0,0.6653891999740154,0.050206099869683385,0.05153789999894798,0.10055669979192317,0.09855940006673336,0.29962569987401366
RSVPLG03,si,20260408-084345,1.0.2,20260219-152011,817,Experiment,Both,1,Automatic,main,96,20260408-085101,global,global,300,H,H,A,A,H-A.png,H-A.png,hH,hH,mask-2.png,mask-4.png,h,1,0.06143830018118024,h,1,0.10356870014220476,0.04972839984111488,0.04858810012228787,0.10010779998265207,0.09765620017424226,0.29881399986334145
RSVPLG03,si,20260408-084345,1.0.2,20260219-152011,817,Experiment,Both,1,Automatic,main,97,20260408-085105,local,global,300,S,S,E,A,E-S.png,S-A.png,sS,sS,mask-3.png,mask-2.png,s,1,0.2345479999203235,s,1,0.08249959978275001,0.049764900002628565,0.049912799848243594,0.0985692001413554,0.09964619996026158,0.29752630018629134
RSVPLG03,si,20260408-084345,1.0.2,20260219-152011,817,Experiment,Both,1,Automatic,main,98,20260408-085109,local,local,750,H,S,A,E,A-H.png,E-S.png,hH,sS,mask-4.png,mask-1.png,h,1,1.0506847000215203,s,1,0.03259879979304969,0.04908010014332831,0.04942769999615848,0.09774310002103448,0.09972050017677248,0.7454868999775499
RSVPLG03,si,20260408-084345,1.0.2,20260219-152011,817,Experiment,Both,1,Automatic,main,99,20260408-085115,local,global,300,S,H,A,E,A-S.png,H-E.png,sS,hH,mask-3.png,mask-2.png,s,1,0.17043550009839237,s,0,0.10549030010588467,0.05133609985932708,0.05105620017275214,0.10071749985218048,0.09993950021453202,0.2980399997904897
RSVPLG03,si,20260408-084345,1.0.2,20260219-152011,817,Experiment,Both,1,Automatic,main,100,20260408-085118,global,local,750,S,S,E,A,S-E.png,A-S.png,sS,sS,mask-4.png,mask-3.png,s,1,0.8492695998866111,s,1,0.07913059997372329,0.04974619997665286,0.05004390003159642,0.09971449989825487,0.09928259998559952,0.7444511998910457
