exp,exp_initials,runtime,ver,modtime,sub,blocktype,targets,cuetype,mode,trialtype,trial,trialtime,t1_level,t2_level,t2_lag,t1,t2,distractor1,distractor2,stimfile1,stimfile2,t1_corr,t2_corr,maskfile1,maskfile2,t1_resp,t1_acc,t1_rt,t2_resp,t2_acc,t2_rt,t1_dur,t2_dur,t1mask_soa,t2mask_soa,t1t2_soa
RSVPLG03,JM,20251027-110957,1.0.1,20251020-085245,716,Introduction,T1,1,Automatic,main,1,20251027-111038,local,local,750,S,H,A,E,A-S.png,E-H.png,sS,hH,mask-3.png,mask-3.png,h,0,14.684371200040914,none,-5,0,0.09255299996584654,0.09789259999524802,0.1951380999526009,0.19971660000737756,0.7427440999890678
RSVPLG03,JM,20251027-110957,1.0.1,20251020-085245,716,Introduction,T1,1,Automatic,main,2,20251027-111057,global,global,750,S,H,E,A,S-E.png,H-A.png,sS,hH,mask-3.png,mask-1.png,s,1,2.4388790000230074,none,-5,0,0.09759100002702326,0.09641419997205958,0.19871520000742748,0.1993703999905847,0.7478915000101551
RSVPLG03,JM,20251027-110957,1.0.1,20251020-085245,716,Introduction,T1,1,Automatic,main,3,20251027-111103,global,local,750,H,S,E,E,H-E.png,E-S.png,hH,sS,mask-3.png,mask-4.png,h,1,1.3841291000135243,none,-5,0,0.09755040000891313,0.09797110001090914,0.19840419996762648,0.19885320001048967,0.7479551999713294
RSVPLG03,JM,20251027-110957,1.0.1,20251020-085245,716,Introduction,T1,1,Automatic,main,4,20251027-111109,local,local,750,S,H,E,E,E-S.png,E-H.png,sS,hH,mask-4.png,mask-2.png,s,1,1.5398415999952704,none,-5,0,0.09737719997065142,0.09951710002496839,0.19991409999784082,0.20104240003274754,0.7467420999892056
RSVPLG03,JM,20251027-110957,1.0.1,20251020-085245,716,Introduction,T1,1,Automatic,main,5,20251027-111115,local,local,750,H,S,E,A,E-H.png,A-S.png,hH,sS,mask-4.png,mask-3.png,h,1,1.9742537999991328,none,-5,0,0.0986024999874644,0.09727319999365136,0.20079810003517196,0.19974350003758445,0.7488141999929212
RSVPLG03,JM,20251027-110957,1.0.1,20251020-085245,716,Introduction,T1,1,Automatic,main,6,20251027-111121,global,global,750,S,S,A,E,S-A.png,S-E.png,sS,sS,mask-2.png,mask-1.png,s,1,1.040373699972406,none,-5,0,0.09838450001552701,0.09666129999095574,0.1995761999860406,0.19897229998605326,0.7502392000169493
RSVPLG03,JM,20251027-110957,1.0.1,20251020-085245,716,Introduction,T1,1,Automatic,main,7,20251027-111126,global,global,750,H,S,A,E,H-A.png,S-E.png,hH,sS,mask-2.png,mask-1.png,s,0,1.0009673000313342,none,-5,0,0.0975722000002861,0.09801339998375624,0.19966490002116188,0.2000971999950707,0.7475651000277139
RSVPLG03,JM,20251027-110957,1.0.1,20251020-085245,716,Introduction,T1,1,Automatic,main,8,20251027-111131,local,global,750,H,S,E,E,E-H.png,S-E.png,hH,sS,mask-4.png,mask-3.png,s,0,0.9074066000175662,none,-5,0,0.09763670002575964,0.09681930002989247,0.19894560001557693,0.1979196000029333,0.7498761999886483
RSVPLG03,JM,20251027-110957,1.0.1,20251020-085245,716,Introduction,T1,1,Automatic,main,9,20251027-111136,global,global,750,S,S,E,A,S-E.png,S-A.png,sS,sS,mask-1.png,mask-3.png,s,1,1.935047700011637,none,-5,0,0.09645299997646362,0.09735910000745207,0.19947539997519925,0.1995125000248663,0.7486088000005111
RSVPLG03,JM,20251027-110957,1.0.1,20251020-085245,716,Introduction,T1,1,Automatic,main,10,20251027-111142,local,global,750,S,S,A,A,A-S.png,S-A.png,sS,sS,mask-4.png,mask-3.png,s,1,2.383824199961964,none,-5,0,0.0975540999788791,0.09847670001909137,0.1979064000188373,0.20154430001275614,0.746908999979496
RSVPLG03,JM,20251027-110957,1.0.1,20251020-085245,716,Introduction,T1,1,Automatic,main,11,20251027-111148,global,local,750,S,H,A,A,S-A.png,A-H.png,sS,hH,mask-1.png,mask-3.png,h,0,1.0476511000306346,none,-5,0,0.09720369998831302,0.09713650000048801,0.1990796999889426,0.19944689999101683,0.7488887999788858
RSVPLG03,JM,20251027-110957,1.0.1,20251020-085245,716,Introduction,T1,1,Automatic,main,12,20251027-111154,local,local,750,H,S,E,A,E-H.png,A-S.png,hH,sS,mask-2.png,mask-2.png,h,1,1.53712120000273,none,-5,0,0.09768539998913184,0.09853849996579811,0.20020259998273104,0.19862499996088445,0.7494097999879159
RSVPLG03,JM,20251027-110957,1.0.1,20251020-085245,716,Introduction,T1,1,Automatic,main,13,20251027-111159,local,global,750,H,H,E,E,E-H.png,H-E.png,hH,hH,mask-4.png,mask-4.png,h,1,1.001403299975209,none,-5,0,0.0977965000201948,0.09574029996292666,0.1996371000423096,0.19856930000241846,0.748675600043498
RSVPLG03,JM,20251027-110957,1.0.1,20251020-085245,716,Introduction,T1,1,Automatic,main,14,20251027-111204,local,global,750,S,S,E,A,E-S.png,S-A.png,sS,sS,mask-4.png,mask-3.png,s,1,1.488205100002233,none,-5,0,0.09640540002146736,0.09853259997908026,0.1994834000361152,0.20053659996483475,0.7477781000197865
RSVPLG03,JM,20251027-110957,1.0.1,20251020-085245,716,Introduction,T1,1,Automatic,main,15,20251027-111210,global,local,750,S,S,A,E,S-A.png,E-S.png,sS,sS,mask-4.png,mask-2.png,s,1,0.5205921000451781,none,-5,0,0.09657150000566617,0.09850650001317263,0.1995244999998249,0.19973990001017228,0.747749499976635
RSVPLG03,JM,20251027-110957,1.0.1,20251020-085245,716,Introduction,T1,1,Automatic,main,16,20251027-111215,global,local,750,H,S,A,A,H-A.png,A-S.png,hH,sS,mask-2.png,mask-2.png,h,1,1.532640799996443,none,-5,0,0.09637839999049902,0.09797870001057163,0.19925659999717027,0.20052310003666207,0.7469332999899052
RSVPLG03,JM,20251027-111626,1.0.1,20251020-085245,716,Practice,T1,1,Automatic,main,1,20251027-111700,local,global,300,S,S,E,E,E-S.png,S-E.png,sS,sS,mask-1.png,mask-1.png,s,1,3.39178099995479,none,-5,0,0.03960040002129972,0.0474707999965176,0.09116780001204461,0.09867899998789653,0.2925194000126794
RSVPLG03,JM,20251027-111626,1.0.1,20251020-085245,716,Practice,T1,1,Automatic,main,2,20251027-111707,local,local,300,S,H,E,A,E-S.png,A-H.png,sS,hH,mask-4.png,mask-4.png,h,0,1.8924543000175618,none,-5,0,0.04672220000065863,0.047810700023546815,0.09986969997407869,0.09987219999311492,0.29929559997981414
RSVPLG03,JM,20251027-111626,1.0.1,20251020-085245,716,Practice,T1,1,Automatic,main,3,20251027-111712,global,local,750,S,H,E,E,S-E.png,E-H.png,sS,hH,mask-2.png,mask-4.png,s,1,1.8543064999976195,none,-5,0,0.04848379996838048,0.047766299976501614,0.09986279997974634,0.09980189998168498,0.7499845999991521
RSVPLG03,JM,20251027-111626,1.0.1,20251020-085245,716,Practice,T1,1,Automatic,main,4,20251027-111718,global,global,750,H,H,E,E,H-E.png,H-E.png,hH,hH,mask-3.png,mask-1.png,h,1,0.6834391999873333,none,-5,0,0.04767529998207465,0.046605899988207966,0.09885020001092926,0.09968939999816939,0.7481943999882787
RSVPLG03,JM,20251027-111626,1.0.1,20251020-085245,716,Practice,T1,1,Automatic,main,5,20251027-111723,global,global,750,S,H,A,E,S-A.png,H-E.png,sS,hH,mask-1.png,mask-4.png,s,1,0.4968506000004709,none,-5,0,0.046650500036776066,0.04694159998325631,0.09981480002170429,0.09813719999510795,0.7487196000292897
RSVPLG03,JM,20251027-111626,1.0.1,20251020-085245,716,Practice,T1,1,Automatic,main,6,20251027-111728,local,global,300,H,S,E,E,E-H.png,S-E.png,hH,sS,mask-3.png,mask-1.png,s,0,1.0698923000018112,none,-5,0,0.0468556999694556,0.04779529996449128,0.09930659999372438,0.10002849996089935,0.2994302000151947
RSVPLG03,JM,20251027-111626,1.0.1,20251020-085245,716,Practice,T1,1,Automatic,main,7,20251027-111732,local,global,750,S,H,E,E,E-S.png,H-E.png,sS,hH,mask-2.png,mask-3.png,h,0,1.4571197999757715,none,-5,0,0.04777479998301715,0.04665439995005727,0.09902560000773519,0.09866759995929897,0.7489935000194237
RSVPLG03,JM,20251027-111626,1.0.1,20251020-085245,716,Practice,T1,1,Automatic,main,8,20251027-111738,global,local,300,H,H,A,E,H-A.png,E-H.png,hH,hH,mask-1.png,mask-4.png,h,1,0.7458345000050031,none,-5,0,0.04879540001275018,0.04766219999874011,0.10016899998299778,0.10091219999594614,0.2997631999896839
RSVPLG03,JM,20251027-111626,1.0.1,20251020-085245,716,Practice,T1,1,Automatic,main,9,20251027-111742,global,local,750,S,H,E,E,S-E.png,E-H.png,sS,hH,mask-1.png,mask-3.png,s,1,0.5170381999923848,none,-5,0,0.048480099998414516,0.04707949998555705,0.10080690000904724,0.09811269998317584,0.750210500031244
RSVPLG03,JM,20251027-111626,1.0.1,20251020-085245,716,Practice,T1,1,Automatic,main,10,20251027-111747,global,global,300,H,S,E,A,H-E.png,S-A.png,hH,sS,mask-3.png,mask-2.png,h,1,0.5471199999446981,none,-5,0,0.04735780000919476,0.04722579999361187,0.10017859999788925,0.09904459997778758,0.3000615000491962
RSVPLG03,JM,20251027-111626,1.0.1,20251020-085245,716,Practice,T1,1,Automatic,main,11,20251027-111751,local,local,750,S,H,E,E,E-S.png,E-H.png,sS,hH,mask-2.png,mask-3.png,s,1,0.5671073999837972,none,-5,0,0.04782209999393672,0.046737900003790855,0.10009530000388622,0.09987350000301376,0.749579299998004
RSVPLG03,JM,20251027-111626,1.0.1,20251020-085245,716,Practice,T1,1,Automatic,main,12,20251027-111755,local,local,750,S,S,A,E,A-S.png,E-S.png,sS,sS,mask-2.png,mask-1.png,h,0,0.5775231000152417,none,-5,0,0.046823599957861006,0.04747839999618009,0.0999986999668181,0.0996016999706626,0.7496688999817707
RSVPLG03,JM,20251027-111626,1.0.1,20251020-085245,716,Practice,T1,1,Automatic,main,13,20251027-111800,global,local,300,H,S,E,A,H-E.png,A-S.png,hH,sS,mask-2.png,mask-4.png,h,1,0.6506194000248797,none,-5,0,0.045469600008800626,0.04761539999162778,0.09828590002143756,0.09973170002922416,0.298263999982737
RSVPLG03,JM,20251027-111626,1.0.1,20251020-085245,716,Practice,T1,1,Automatic,main,14,20251027-111804,local,global,750,S,S,E,E,E-S.png,S-E.png,sS,sS,mask-4.png,mask-2.png,s,1,0.659780399990268,none,-5,0,0.048456799995619804,0.04810139996698126,0.10072109999600798,0.10012259997893125,0.7495541999815032
RSVPLG03,JM,20251027-111626,1.0.1,20251020-085245,716,Practice,T1,1,Automatic,main,15,20251027-111809,local,local,300,H,H,E,E,E-H.png,E-H.png,hH,hH,mask-1.png,mask-2.png,s,0,3.546077500039246,none,-5,0,0.04767790000187233,0.047318800003267825,0.0997015000320971,0.09973329998319969,0.3000865000067279
RSVPLG03,JM,20251027-111626,1.0.1,20251020-085245,716,Practice,T1,1,Automatic,main,16,20251027-111816,global,global,300,H,S,E,A,H-E.png,S-A.png,hH,sS,mask-2.png,mask-2.png,h,1,0.5757357999682426,none,-5,0,0.04573880002135411,0.047148299985565245,0.1006014000158757,0.09890909999376163,0.29928580002160743
RSVPLG03,JM,20251027-111848,1.0.1,20251020-085245,716,Practice,T1,1,Automatic,main,1,20251027-111913,local,global,750,S,H,A,A,A-S.png,H-A.png,sS,hH,mask-3.png,mask-2.png,h,0,2.1982016999972984,none,-5,0,0.04725030000554398,0.04860229999758303,0.09942590002901852,0.1006247999612242,0.7463514000410214
RSVPLG03,JM,20251027-111848,1.0.1,20251020-085245,716,Practice,T1,1,Automatic,main,2,20251027-111919,local,local,300,H,S,E,E,E-H.png,E-S.png,hH,sS,mask-4.png,mask-2.png,s,0,1.0347169999731705,none,-5,0,0.047355899994727224,0.045983700023498386,0.10057950002374128,0.09827080002287403,0.3002678999910131
RSVPLG03,JM,20251027-111848,1.0.1,20251020-085245,716,Practice,T1,1,Automatic,main,3,20251027-111924,local,global,750,H,H,E,A,E-H.png,H-A.png,hH,hH,mask-2.png,mask-2.png,h,1,1.8059626999893226,none,-5,0,0.04633250000188127,0.04714439995586872,0.0994477000203915,0.10016959998756647,0.7460537000442855
RSVPLG03,JM,20251027-111848,1.0.1,20251020-085245,716,Practice,T1,1,Automatic,main,4,20251027-111930,local,local,750,S,H,A,E,A-S.png,E-H.png,sS,hH,mask-2.png,mask-3.png,s,1,1.305463900032919,none,-5,0,0.048471499991137534,0.048536900023464113,0.09959579998394474,0.101059400010854,0.746931699977722
RSVPLG03,JM,20251027-111848,1.0.1,20251020-085245,716,Practice,T1,1,Automatic,main,5,20251027-111935,global,local,750,S,S,A,E,S-A.png,E-S.png,sS,sS,mask-4.png,mask-2.png,s,1,0.6439278000034392,none,-5,0,0.0479164999560453,0.04664939997019246,0.10029939998639748,0.09892439999384806,0.7482417999999598
RSVPLG03,JM,20251027-111848,1.0.1,20251020-085245,716,Practice,T1,1,Automatic,main,6,20251027-111940,local,local,300,H,H,A,A,A-H.png,A-H.png,hH,hH,mask-3.png,mask-4.png,h,1,1.6129844999522902,none,-5,0,0.04777720000129193,0.04663499997695908,0.09923029999481514,0.09877859998960048,0.29981590004172176
RSVPLG03,JM,20251027-111848,1.0.1,20251020-085245,716,Practice,T1,1,Automatic,main,7,20251027-111945,global,global,750,H,H,A,E,H-A.png,H-E.png,hH,hH,mask-2.png,mask-3.png,h,1,0.7829102000105195,none,-5,0,0.047826900030486286,0.04716409998945892,0.10019020002800971,0.09891719999723136,0.7477729000383988
RSVPLG03,JM,20251027-111848,1.0.1,20251020-085245,716,Practice,T1,1,Automatic,main,8,20251027-111949,local,global,300,H,S,A,A,A-H.png,S-A.png,hH,sS,mask-1.png,mask-4.png,s,0,0.9526449000113644,none,-5,0,0.046819400042295456,0.04750220000278205,0.09889040002599359,0.09954949998063967,0.2986440000240691
RSVPLG03,JM,20251027-111848,1.0.1,20251020-085245,716,Practice,T1,1,Automatic,main,9,20251027-111954,global,global,300,S,H,E,E,S-E.png,H-E.png,sS,hH,mask-2.png,mask-1.png,h,0,1.2695676000439562,none,-5,0,0.04768069996498525,0.04858589998912066,0.10071199998492375,0.10002499999245629,0.2994320999714546
RSVPLG03,JM,20251027-111848,1.0.1,20251020-085245,716,Practice,T1,1,Automatic,main,10,20251027-111959,global,global,300,S,H,E,E,S-E.png,H-E.png,sS,hH,mask-2.png,mask-3.png,h,0,1.071748300048057,none,-5,0,0.046694999968167394,0.0477182999602519,0.09931749996030703,0.10011800000211224,0.29795400000875816
RSVPLG03,JM,20251027-111848,1.0.1,20251020-085245,716,Practice,T1,1,Automatic,main,11,20251027-112003,local,local,750,H,H,E,E,E-H.png,E-H.png,hH,hH,mask-2.png,mask-3.png,h,1,1.3698508000234142,none,-5,0,0.04747390002012253,0.04657820001011714,0.10006440000142902,0.09861829999135807,0.7483886000118218
RSVPLG03,JM,20251027-111848,1.0.1,20251020-085245,716,Practice,T1,1,Automatic,main,12,20251027-112009,global,local,300,S,H,E,E,S-E.png,E-H.png,sS,hH,mask-1.png,mask-3.png,s,1,0.9441538999672048,none,-5,0,0.04764209996210411,0.04752220003865659,0.09974919998785481,0.09957560000475496,0.2983768999692984
RSVPLG03,JM,20251027-111848,1.0.1,20251020-085245,716,Practice,T1,1,Automatic,main,13,20251027-112013,local,global,300,H,H,A,A,A-H.png,H-A.png,hH,hH,mask-1.png,mask-1.png,h,1,0.965177699981723,none,-5,0,0.04750820004846901,0.047308899986092,0.09960910002700984,0.09941719996277243,0.298883100040257
RSVPLG03,JM,20251027-111848,1.0.1,20251020-085245,716,Practice,T1,1,Automatic,main,14,20251027-112018,global,global,750,H,S,A,E,H-A.png,S-E.png,hH,sS,mask-1.png,mask-2.png,h,1,0.990707199962344,none,-5,0,0.048715799988713115,0.04571909998776391,0.09976650000317022,0.09843239997280762,0.7482490999973379
RSVPLG03,JM,20251027-111848,1.0.1,20251020-085245,716,Practice,T1,1,Automatic,main,15,20251027-112023,global,local,300,S,H,A,A,S-A.png,A-H.png,sS,hH,mask-2.png,mask-3.png,s,1,1.0823979999986477,none,-5,0,0.048121800005901605,0.04746759997215122,0.10089110000990331,0.10041930002626032,0.2992528000031598
RSVPLG03,JM,20251027-111848,1.0.1,20251020-085245,716,Practice,T1,1,Automatic,main,16,20251027-112027,global,local,750,S,S,E,A,S-E.png,A-S.png,sS,sS,mask-2.png,mask-1.png,s,1,0.5414285000297241,none,-5,0,0.04660400003194809,0.04647970001678914,0.09942650003358722,0.09849580004811287,0.7470411999966018
RSVPLG03,JM,20251027-112130,1.0.1,20251020-085245,716,Practice,T1,1,Automatic,main,1,20251027-112157,global,local,750,S,S,E,E,S-E.png,E-S.png,sS,sS,mask-1.png,mask-2.png,s,1,1.1857410999946296,none,-5,0,0.04040949995396659,0.0466572999721393,0.09344079997390509,0.09990380000090227,0.7437312999973074
RSVPLG03,JM,20251027-112130,1.0.1,20251020-085245,716,Practice,T1,1,Automatic,main,2,20251027-112202,local,global,300,H,S,E,A,E-H.png,S-A.png,hH,sS,mask-3.png,mask-2.png,s,0,1.7895967999938875,none,-5,0,0.0486864999984391,0.047404700017068535,0.10187069996027276,0.10045989998616278,0.30038769997190684
RSVPLG03,JM,20251027-112130,1.0.1,20251020-085245,716,Practice,T1,1,Automatic,main,3,20251027-112207,global,local,300,H,S,E,A,H-E.png,A-S.png,hH,sS,mask-2.png,mask-4.png,h,1,0.9094022000208497,none,-5,0,0.04569390002870932,0.04754209995735437,0.09985449997475371,0.09834299999056384,0.2997516000177711
RSVPLG03,JM,20251027-112130,1.0.1,20251020-085245,716,Practice,T1,1,Automatic,main,4,20251027-112212,global,local,750,S,S,E,E,S-E.png,E-S.png,sS,sS,mask-4.png,mask-1.png,s,1,0.642498400004115,none,-5,0,0.048059699998702854,0.047486099996604025,0.10112059995299205,0.09962779999477789,0.7511031999601983
RSVPLG03,JM,20251027-112130,1.0.1,20251020-085245,716,Practice,T1,1,Automatic,main,5,20251027-112216,local,global,750,S,H,A,E,A-S.png,H-E.png,sS,hH,mask-4.png,mask-2.png,h,0,1.515473600011319,none,-5,0,0.04751370003214106,0.04872380004962906,0.10137480002595112,0.10096220002742484,0.7502422999823466
RSVPLG03,JM,20251027-112130,1.0.1,20251020-085245,716,Practice,T1,1,Automatic,main,6,20251027-112222,local,global,300,S,H,E,A,E-S.png,H-A.png,sS,hH,mask-2.png,mask-2.png,s,1,1.5410579000017606,none,-5,0,0.04767149995313957,0.04636799998115748,0.09981909999623895,0.10054149996722117,0.3005268999841064
RSVPLG03,JM,20251027-112130,1.0.1,20251020-085245,716,Practice,T1,1,Automatic,main,7,20251027-112227,local,local,750,S,H,A,E,A-S.png,E-H.png,sS,hH,mask-3.png,mask-2.png,h,0,1.8704856999684125,none,-5,0,0.04867069999454543,0.04570459999376908,0.09985180001240224,0.09988819999853149,0.751434399979189
RSVPLG03,JM,20251027-112130,1.0.1,20251020-085245,716,Practice,T1,1,Automatic,main,8,20251027-112233,local,local,300,S,H,E,E,E-S.png,E-H.png,sS,hH,mask-3.png,mask-2.png,s,1,1.102554599987343,none,-5,0,0.04666430002544075,0.047136500012129545,0.10103670001262799,0.10039179999148473,0.29982310003833845
RSVPLG03,JM,20251027-112130,1.0.1,20251020-085245,716,Practice,T1,1,Automatic,main,9,20251027-112237,global,global,750,S,S,E,A,S-E.png,S-A.png,sS,sS,mask-3.png,mask-1.png,s,1,0.6023258999921381,none,-5,0,0.04850759997498244,0.047742199967615306,0.10072679998120293,0.10193309996975586,0.7490316000184976
RSVPLG03,JM,20251027-112130,1.0.1,20251020-085245,716,Practice,T1,1,Automatic,main,10,20251027-112242,global,global,750,S,H,A,E,S-A.png,H-E.png,sS,hH,mask-3.png,mask-4.png,s,1,0.6161971000256017,none,-5,0,0.045692100015003234,0.046754500013776124,0.09914450003998354,0.09994250000454485,0.7489386000088416
RSVPLG03,JM,20251027-112130,1.0.1,20251020-085245,716,Practice,T1,1,Automatic,main,11,20251027-112247,local,global,750,H,S,A,A,A-H.png,S-A.png,hH,sS,mask-4.png,mask-4.png,s,0,2.4370655000093393,none,-5,0,0.046706900000572205,0.047671600012108684,0.09912319999421015,0.09996600000886247,0.7481988000217825
RSVPLG03,JM,20251027-112130,1.0.1,20251020-085245,716,Practice,T1,1,Automatic,main,12,20251027-112253,local,local,750,S,H,E,A,E-S.png,A-H.png,sS,hH,mask-2.png,mask-1.png,h,0,0.9255639999755658,none,-5,0,0.049021300044842064,0.04643460002262145,0.1011722000548616,0.10148200002731755,0.7497416000114754
RSVPLG03,JM,20251027-112130,1.0.1,20251020-085245,716,Practice,T1,1,Automatic,main,13,20251027-112258,global,local,300,S,S,A,A,S-A.png,A-S.png,sS,sS,mask-1.png,mask-1.png,s,1,0.6139314000029117,none,-5,0,0.04659959999844432,0.04735660000005737,0.09885999996913597,0.10010089998831972,0.2988175000064075
RSVPLG03,JM,20251027-112130,1.0.1,20251020-085245,716,Practice,T1,1,Automatic,main,14,20251027-112302,global,global,300,H,S,E,E,H-E.png,S-E.png,hH,sS,mask-3.png,mask-2.png,h,1,0.4196745000081137,none,-5,0,0.046699500002432615,0.0467814999865368,0.09989030001452193,0.1004092000075616,0.2997572000022046
RSVPLG03,JM,20251027-112130,1.0.1,20251020-085245,716,Practice,T1,1,Automatic,main,15,20251027-112306,global,global,300,H,H,A,A,H-A.png,H-A.png,hH,hH,mask-4.png,mask-3.png,s,0,3.8889900000067428,none,-5,0,0.048496500006876886,0.047615199990104884,0.10049009998328984,0.09954209998250008,0.3006523000076413
RSVPLG03,JM,20251027-112130,1.0.1,20251020-085245,716,Practice,T1,1,Automatic,main,16,20251027-112314,local,local,300,H,S,E,E,E-H.png,E-S.png,hH,sS,mask-2.png,mask-2.png,h,1,1.3643077000160702,none,-5,0,0.049092300003394485,0.04636049998225644,0.10025379998842254,0.09831550001399592,0.3016831999993883
RSVPLG03,JM,20251027-112411,1.0.1,20251020-085245,716,Practice,Both,1,Automatic,main,1,20251027-112435,global,local,300,S,H,A,E,S-A.png,E-H.png,sS,hH,mask-2.png,mask-4.png,s,1,0.5096592999761924,h,1,3.220752299996093,0.041015900031197816,0.0474157000426203,0.09256600000662729,0.10132190003059804,0.29299230000469834
RSVPLG03,JM,20251027-112411,1.0.1,20251020-085245,716,Practice,Both,1,Automatic,main,2,20251027-112443,global,local,300,H,H,E,A,H-E.png,A-H.png,hH,hH,mask-1.png,mask-2.png,s,0,4.337743800017051,h,1,0.8602917999960482,0.047515999991446733,0.0484260999946855,0.09953780000796542,0.1005011000088416,0.299834200006444
RSVPLG03,JM,20251027-112411,1.0.1,20251020-085245,716,Practice,Both,1,Automatic,main,3,20251027-112452,global,global,300,H,S,E,A,H-E.png,S-A.png,hH,sS,mask-1.png,mask-4.png,h,1,0.875403699988965,s,1,0.5892466999939643,0.04771070001879707,0.04795949999243021,0.10001310001825914,0.10061209998093545,0.30028570001013577
RSVPLG03,JM,20251027-112411,1.0.1,20251020-085245,716,Practice,Both,1,Automatic,main,4,20251027-112457,local,local,300,H,H,E,E,E-H.png,E-H.png,hH,hH,mask-4.png,mask-2.png,s,0,1.6946853999979794,h,1,0.5002715999726206,0.04652189998887479,0.04649430001154542,0.09869099996285513,0.10051860002567992,0.30044289998477325
RSVPLG03,JM,20251027-112411,1.0.1,20251020-085245,716,Practice,Both,1,Automatic,main,5,20251027-112503,local,global,300,S,H,A,A,A-S.png,H-A.png,sS,hH,mask-4.png,mask-4.png,h,0,0.7373917999793775,h,1,0.4610948999761604,0.04803349997382611,0.04706730000907555,0.10126949998084456,0.09937720000743866,0.30099939997307956
RSVPLG03,JM,20251027-112411,1.0.1,20251020-085245,716,Practice,Both,1,Automatic,main,6,20251027-112508,local,local,750,S,H,E,A,E-S.png,A-H.png,sS,hH,mask-4.png,mask-3.png,s,1,0.953065300011076,h,1,0.29879900004016235,0.04769320000195876,0.04770300001837313,0.09884769999189302,0.10185289999935776,0.749221200007014
RSVPLG03,JM,20251027-112411,1.0.1,20251020-085245,716,Practice,Both,1,Automatic,main,7,20251027-112513,local,global,300,H,H,E,E,E-H.png,H-E.png,hH,hH,mask-4.png,mask-1.png,h,1,2.282138499955181,h,1,0.2708101000171155,0.0484376999665983,0.04745399998500943,0.09964689996559173,0.0994652999797836,0.30051089997868985
RSVPLG03,JM,20251027-112411,1.0.1,20251020-085245,716,Practice,Both,1,Automatic,main,8,20251027-112519,local,local,300,S,H,A,A,A-S.png,A-H.png,sS,hH,mask-4.png,mask-1.png,h,0,2.000596800004132,h,1,0.13291399995796382,0.04570439999224618,0.04578019998734817,0.09829139994690195,0.09829299995908514,0.3002383999992162
RSVPLG03,JM,20251027-112411,1.0.1,20251020-085245,716,Practice,Both,1,Automatic,main,9,20251027-112525,local,global,750,S,H,A,A,A-S.png,H-A.png,sS,hH,mask-3.png,mask-3.png,s,1,1.5010426999651827,h,1,0.058636900037527084,0.04758130002301186,0.047628600033931434,0.09847060003085062,0.09969310002634302,0.7500089000095613
RSVPLG03,JM,20251027-112411,1.0.1,20251020-085245,716,Practice,Both,1,Automatic,main,10,20251027-112531,local,global,750,S,S,A,E,A-S.png,S-E.png,sS,sS,mask-1.png,mask-1.png,h,0,1.3156422000029124,s,1,1.475632699963171,0.04618619999382645,0.04574750002939254,0.09887330001220107,0.0991912999888882,0.7510151999886148
RSVPLG03,JM,20251027-112411,1.0.1,20251020-085245,716,Practice,Both,1,Automatic,main,11,20251027-112537,local,local,750,S,S,A,A,A-S.png,A-S.png,sS,sS,mask-3.png,mask-1.png,s,1,0.502693000016734,h,0,0.2686486999737099,0.045896299998275936,0.047477199987042695,0.09994250000454485,0.10111920000053942,0.7498598000383936
RSVPLG03,JM,20251027-112411,1.0.1,20251020-085245,716,Practice,Both,1,Automatic,main,12,20251027-112542,global,local,750,H,H,E,E,H-E.png,E-H.png,hH,hH,mask-2.png,mask-1.png,h,1,2.17050670000026,h,1,1.5902456999756396,0.048669799987692386,0.04783330002101138,0.10087610001210123,0.09954299998935312,0.7513861000188626
RSVPLG03,JM,20251027-112411,1.0.1,20251020-085245,716,Practice,Both,1,Automatic,main,13,20251027-112549,global,global,750,H,S,A,A,H-A.png,S-A.png,hH,sS,mask-1.png,mask-1.png,h,1,0.750492800027132,s,1,0.44377610000083223,0.04775960004189983,0.04776700004003942,0.10014420002698898,0.09999000001698732,0.7510703000007197
RSVPLG03,JM,20251027-112411,1.0.1,20251020-085245,716,Practice,Both,1,Automatic,main,14,20251027-112555,global,local,750,H,H,E,A,H-E.png,A-H.png,hH,hH,mask-2.png,mask-3.png,h,1,0.5922566999797709,h,1,0.3047406999976374,0.04658770002424717,0.04685969999991357,0.099838100024499,0.09985170001164079,0.7512820999836549
RSVPLG03,JM,20251027-112411,1.0.1,20251020-085245,716,Practice,Both,1,Automatic,main,15,20251027-112600,global,global,750,H,H,E,A,H-E.png,H-A.png,hH,hH,mask-1.png,mask-4.png,h,1,0.48442590003833175,h,1,0.2782121999771334,0.04651239997474477,0.04704350000247359,0.09950899996329099,0.0988874000031501,0.7513256999664009
RSVPLG03,JM,20251027-112411,1.0.1,20251020-085245,716,Practice,Both,1,Automatic,main,16,20251027-112605,global,global,300,S,S,E,A,S-E.png,S-A.png,sS,sS,mask-2.png,mask-3.png,s,1,0.9206054999958724,s,1,0.3334403000189923,0.0464355000294745,0.04697899997700006,0.09864119999110699,0.10010129999136552,0.3003197000361979
RSVPLG03,JM,20251027-112639,1.0.1,20251020-085245,716,Practice,Both,1,Automatic,main,1,20251027-112736,local,local,300,H,S,E,A,E-H.png,A-S.png,hH,sS,mask-1.png,mask-3.png,s,0,1.8745186000014655,h,0,0.17320499999914318,0.040235100022982806,0.04734580003423616,0.09305339999264106,0.09958420001203194,0.29285269998945296
RSVPLG03,JM,20251027-112639,1.0.1,20251020-085245,716,Practice,Both,1,Automatic,main,2,20251027-112742,global,local,300,H,H,E,E,H-E.png,E-H.png,hH,hH,mask-4.png,mask-4.png,h,1,0.6873357000295073,s,0,0.2766280000214465,0.047595200012438,0.04750200000125915,0.10078199999406934,0.10154519998468459,0.3007056000060402
RSVPLG03,JM,20251027-112639,1.0.1,20251020-085245,716,Practice,Both,1,Automatic,main,3,20251027-112747,local,global,750,H,S,E,A,E-H.png,S-A.png,hH,sS,mask-4.png,mask-1.png,s,0,1.471903299971018,h,0,0.16537280002376065,0.04863680002745241,0.04776840005069971,0.10178840003209189,0.10040020005544648,0.7517626999760978
RSVPLG03,JM,20251027-112639,1.0.1,20251020-085245,716,Practice,Both,1,Automatic,main,4,20251027-112753,global,global,300,S,S,E,A,S-E.png,S-A.png,sS,sS,mask-3.png,mask-3.png,s,1,0.5805981000303291,s,1,0.30089159996714443,0.04769030003808439,0.045715800020843744,0.09990339999785647,0.09892210003454238,0.3017053999938071
RSVPLG03,JM,20251027-112639,1.0.1,20251020-085245,716,Practice,Both,1,Automatic,main,5,20251027-112757,global,global,750,S,H,A,E,S-A.png,H-E.png,sS,hH,mask-3.png,mask-3.png,s,1,0.6095880000502802,h,1,0.13242540002102032,0.04736369999591261,0.04751810000743717,0.10010460001649335,0.10151700000278652,0.7508957000100054
RSVPLG03,JM,20251027-112639,1.0.1,20251020-085245,716,Practice,Both,1,Automatic,main,6,20251027-112802,global,local,750,H,S,E,A,H-E.png,A-S.png,hH,sS,mask-1.png,mask-2.png,h,1,0.8667287999996915,h,0,0.17235629999777302,0.04771939996862784,0.0465828999876976,0.0997806999948807,0.09850089997053146,0.7516281999996863
RSVPLG03,JM,20251027-112639,1.0.1,20251020-085245,716,Practice,Both,1,Automatic,main,7,20251027-112807,global,global,750,S,S,A,E,S-A.png,S-E.png,sS,sS,mask-3.png,mask-4.png,s,1,0.5516120999818668,s,1,0.23810259997844696,0.048693699995055795,0.046706900000572205,0.10094550001667812,0.09991460002493113,0.7515611000126228
RSVPLG03,JM,20251027-112639,1.0.1,20251020-085245,716,Practice,Both,1,Automatic,main,8,20251027-112812,local,local,750,H,H,E,A,E-H.png,A-H.png,hH,hH,mask-2.png,mask-4.png,s,0,1.2837856999831274,h,1,0.20293470000615343,0.04767960001481697,0.048693700053263456,0.10008760000346228,0.10094800003571436,0.7514699999592267
RSVPLG03,JM,20251027-112639,1.0.1,20251020-085245,716,Practice,Both,1,Automatic,main,9,20251027-112818,global,global,300,S,H,A,A,S-A.png,H-A.png,sS,hH,mask-3.png,mask-4.png,s,1,0.8003125000395812,h,1,0.20328760001575574,0.04807830002391711,0.04595379997044802,0.10010870004771277,0.09879579994594678,0.30097200005548075
RSVPLG03,JM,20251027-112639,1.0.1,20251020-085245,716,Practice,Both,1,Automatic,main,10,20251027-112823,local,global,750,S,S,A,E,A-S.png,S-E.png,sS,sS,mask-3.png,mask-4.png,h,0,0.9817567000281997,s,1,0.15057190001243725,0.04772989999037236,0.047731600003317,0.09993070003110915,0.09922570001799613,0.7522691999911331
RSVPLG03,JM,20251027-112639,1.0.1,20251020-085245,716,Practice,Both,1,Automatic,main,11,20251027-112828,local,local,750,H,H,A,E,A-H.png,E-H.png,hH,hH,mask-2.png,mask-4.png,s,0,0.6657659000484273,h,1,0.17205439996905625,0.04859969997778535,0.04740430001402274,0.10046200000215322,0.09849429997848347,0.7530185999930836
RSVPLG03,JM,20251027-112639,1.0.1,20251020-085245,716,Practice,Both,1,Automatic,main,12,20251027-112833,local,global,300,S,S,E,E,E-S.png,S-E.png,sS,sS,mask-2.png,mask-2.png,h,0,1.7348884999519214,s,1,0.12465050001628697,0.047751199977938086,0.046434400021098554,0.09984579996671528,0.099862499977462,0.3004427999840118
RSVPLG03,JM,20251027-112639,1.0.1,20251020-085245,716,Practice,Both,1,Automatic,main,13,20251027-112839,global,local,750,H,H,A,A,H-A.png,A-H.png,hH,hH,mask-2.png,mask-3.png,s,0,3.118306099961046,h,1,0.05314929998712614,0.046871400030795485,0.04850340000120923,0.09852010000031441,0.10044720000587404,0.7506203000084497
RSVPLG03,JM,20251027-112639,1.0.1,20251020-085245,716,Practice,Both,1,Automatic,main,14,20251027-112846,local,global,300,S,S,E,E,E-S.png,S-E.png,sS,sS,mask-3.png,mask-1.png,h,0,1.5856179000111297,s,1,1.7456072999630123,0.04830650001531467,0.04618439998012036,0.1022322999779135,0.09931040002265945,0.30227190000005066
RSVPLG03,JM,20251027-112639,1.0.1,20251020-085245,716,Practice,Both,1,Automatic,main,15,20251027-112851,local,local,300,H,H,E,E,E-H.png,E-H.png,hH,hH,mask-2.png,mask-2.png,h,1,2.8649698000517674,h,1,0.11336019996087998,0.04779840004630387,0.04663480003364384,0.09921400004532188,0.10073270002612844,0.3003006000071764
RSVPLG03,JM,20251027-112639,1.0.1,20251020-085245,716,Practice,Both,1,Automatic,main,16,20251027-112858,global,local,300,H,H,A,A,H-A.png,A-H.png,hH,hH,mask-1.png,mask-4.png,h,1,0.7924844000372104,h,1,0.11036509997211397,0.04726429999573156,0.047179099987261,0.09997529996326193,0.09859989996766672,0.30182829999830574
RSVPLG03,JM,20251027-112947,1.0.1,20251020-085245,716,Practice,Both,1,Automatic,main,1,20251027-113024,local,local,300,H,H,E,E,E-H.png,E-H.png,hH,hH,mask-4.png,mask-4.png,h,1,1.9590950999991037,s,0,0.8715898999944329,0.040999800025019795,0.047649400017689914,0.09327540005324408,0.10073420003755018,0.2936817000154406
RSVPLG03,JM,20251027-112947,1.0.1,20251020-085245,716,Practice,Both,1,Automatic,main,2,20251027-113031,global,global,750,H,H,A,E,H-A.png,H-E.png,hH,hH,mask-3.png,mask-1.png,h,1,0.5206885000225157,s,0,0.4086862000403926,0.04816059995209798,0.047471199999563396,0.10137369995936751,0.09987029997864738,0.7515720999799669
RSVPLG03,JM,20251027-112947,1.0.1,20251020-085245,716,Practice,Both,1,Automatic,main,3,20251027-113036,global,local,300,H,S,A,E,H-A.png,E-S.png,hH,sS,mask-2.png,mask-4.png,h,1,0.7196022000280209,s,1,0.8863366000005044,0.04868850001366809,0.048699499981012195,0.10084460000507534,0.10090319998562336,0.30018800002289936
RSVPLG03,JM,20251027-112947,1.0.1,20251020-085245,716,Practice,Both,1,Automatic,main,4,20251027-113041,local,global,300,H,S,E,E,E-H.png,S-E.png,hH,sS,mask-4.png,mask-4.png,s,0,2.697122599987779,s,1,0.660755299963057,0.04850279999664053,0.047403100004885346,0.09981000004336238,0.10024519998114556,0.3006844000192359
RSVPLG03,JM,20251027-112947,1.0.1,20251020-085245,716,Practice,Both,1,Automatic,main,5,20251027-113048,local,local,300,S,S,E,E,E-S.png,E-S.png,sS,sS,mask-2.png,mask-3.png,s,1,0.7905357999843545,h,0,0.43778489995747805,0.04755400004796684,0.04857270000502467,0.09940750000532717,0.10156129999086261,0.2984506000066176
RSVPLG03,JM,20251027-112947,1.0.1,20251020-085245,716,Practice,Both,1,Automatic,main,6,20251027-113053,local,global,750,H,S,A,A,A-H.png,S-A.png,hH,sS,mask-4.png,mask-2.png,h,1,0.42615190002834424,s,1,0.29910190001828596,0.04738000000361353,0.04686479998053983,0.09956929995678365,0.09887270000763237,0.7509465999901295
RSVPLG03,JM,20251027-112947,1.0.1,20251020-085245,716,Practice,Both,1,Automatic,main,7,20251027-113058,global,local,300,S,H,E,A,S-E.png,A-H.png,sS,hH,mask-1.png,mask-4.png,s,1,0.7431033999891952,h,1,0.15728839999064803,0.04654120001941919,0.04605539998738095,0.10014019999653101,0.0989555999985896,0.3006146000116132
RSVPLG03,JM,20251027-112947,1.0.1,20251020-085245,716,Practice,Both,1,Automatic,main,8,20251027-113103,global,global,750,S,H,E,E,S-E.png,H-E.png,sS,hH,mask-4.png,mask-4.png,s,1,0.4327731999801472,h,1,0.2047520999913104,0.046745400002691895,0.047504100017249584,0.09832210000604391,0.09878840000601485,0.7498850999982096
RSVPLG03,JM,20251027-112947,1.0.1,20251020-085245,716,Practice,Both,1,Automatic,main,9,20251027-113107,global,global,300,S,S,E,A,S-E.png,S-A.png,sS,sS,mask-3.png,mask-3.png,s,1,0.4132810999872163,h,0,0.23796509997919202,0.04725000000325963,0.04833089996827766,0.10019169998122379,0.10034479998284951,0.29927860002499074
RSVPLG03,JM,20251027-112947,1.0.1,20251020-085245,716,Practice,Both,1,Automatic,main,10,20251027-113112,global,local,750,H,H,E,A,H-E.png,A-H.png,hH,hH,mask-1.png,mask-1.png,h,1,0.46798220003256574,s,0,0.1393642999464646,0.04686629999196157,0.047659599978942424,0.10091430001193658,0.0988890000153333,0.7513680999982171
RSVPLG03,JM,20251027-112947,1.0.1,20251020-085245,716,Practice,Both,1,Automatic,main,11,20251027-113117,local,local,750,S,H,A,A,A-S.png,A-H.png,sS,hH,mask-2.png,mask-1.png,h,0,0.8024490000098012,h,1,0.17125009995652363,0.04747669998323545,0.047683200042229146,0.0994459000066854,0.09942710003815591,0.7516944999806583
RSVPLG03,JM,20251027-112947,1.0.1,20251020-085245,716,Practice,Both,1,Automatic,main,12,20251027-113122,local,global,300,H,S,A,E,A-H.png,S-E.png,hH,sS,mask-2.png,mask-3.png,h,1,2.089736499998253,h,0,1.7724800000432879,0.04749859997536987,0.04714639997109771,0.0994961999822408,0.09963150002295151,0.29973049997352064
RSVPLG03,JM,20251027-112947,1.0.1,20251020-085245,716,Practice,Both,1,Automatic,main,13,20251027-113130,local,local,750,S,S,E,E,E-S.png,E-S.png,sS,sS,mask-3.png,mask-2.png,h,0,0.5637559999595396,s,1,0.31029359996318817,0.047532199998386204,0.04825270001310855,0.10051979997660965,0.10123860003659502,0.7499049999751151
RSVPLG03,JM,20251027-112947,1.0.1,20251020-085245,716,Practice,Both,1,Automatic,main,14,20251027-113135,global,global,300,S,H,E,A,S-E.png,H-A.png,sS,hH,mask-1.png,mask-2.png,s,1,0.5125053000519983,h,1,0.23643049999373034,0.04766589996870607,0.045720199996139854,0.0998550999793224,0.09855029999744147,0.3014724999666214
RSVPLG03,JM,20251027-112947,1.0.1,20251020-085245,716,Practice,Both,1,Automatic,main,15,20251027-113139,local,global,750,H,S,A,E,A-H.png,S-E.png,hH,sS,mask-2.png,mask-4.png,h,1,0.6263765000039712,s,1,0.25217680004425347,0.04608249996090308,0.04768389998935163,0.10038899997016415,0.10179169999901205,0.7499523999867961
RSVPLG03,JM,20251027-112947,1.0.1,20251020-085245,716,Practice,Both,1,Automatic,main,16,20251027-113144,global,local,750,H,H,A,E,H-A.png,E-H.png,hH,hH,mask-1.png,mask-1.png,h,1,1.4796874999883585,s,0,0.03660489997128025,0.046605999988969415,0.04772229999070987,0.0987887000082992,0.09994069999083877,0.7496879000100307
RSVPLG03,JM,20251027-113238,1.0.1,20251020-085245,716,Experiment,Both,1,Automatic,warmup,1,20251027-113345,global,global,300,H,H,E,E,H-E.png,H-E.png,hH,hH,mask-1.png,mask-3.png,h,1,0.45563889999175444,s,0,0.6157239999738522,0.04401800001505762,0.048757199954707175,0.09726090001640841,0.09997139999177307,0.2959157000295818
RSVPLG03,JM,20251027-113238,1.0.1,20251020-085245,716,Experiment,Both,1,Automatic,warmup,2,20251027-113349,local,global,750,H,S,E,A,E-H.png,S-A.png,hH,sS,mask-1.png,mask-3.png,s,0,0.9481340000056662,s,1,0.18200559995602816,0.047924399957992136,0.04726059996755794,0.09996199997840449,0.10026289999950677,0.7484321999945678
RSVPLG03,JM,20251027-113238,1.0.1,20251020-085245,716,Experiment,Both,1,Automatic,warmup,3,20251027-113354,local,local,300,S,S,A,A,A-S.png,A-S.png,sS,sS,mask-2.png,mask-1.png,h,0,1.3653153000050224,s,1,0.2210643999860622,0.04754589998628944,0.04816080001182854,0.09958420001203194,0.1002829999779351,0.298134199983906
RSVPLG03,JM,20251027-113238,1.0.1,20251020-085245,716,Experiment,Both,1,Automatic,warmup,4,20251027-113359,global,local,300,S,S,E,A,S-E.png,A-S.png,sS,sS,mask-2.png,mask-2.png,s,1,0.5043269000016153,h,0,0.37966490001417696,0.04852969996863976,0.047348399995826185,0.09999259997857735,0.09951680002268404,0.29975859995465726
RSVPLG03,JM,20251027-113238,1.0.1,20251020-085245,716,Experiment,Both,1,Automatic,warmup,5,20251027-113404,local,local,750,S,S,A,E,A-S.png,E-S.png,sS,sS,mask-1.png,mask-4.png,h,0,1.0789639999857172,h,0,0.13858809997327626,0.0469065000070259,0.046766199986450374,0.10018750000745058,0.0999615999753587,0.7474006000556983
RSVPLG03,JM,20251027-113238,1.0.1,20251020-085245,716,Experiment,Both,1,Automatic,main,6,20251027-113410,global,local,750,S,S,E,A,S-E.png,A-S.png,sS,sS,mask-4.png,mask-1.png,s,1,0.5915051000192761,h,0,0.19823340000584722,0.045684400014579296,0.04681169998366386,0.09821590001229197,0.0988066999707371,0.7478153000120074
RSVPLG03,JM,20251027-113238,1.0.1,20251020-085245,716,Experiment,Both,1,Automatic,main,7,20251027-113414,global,global,750,H,S,A,A,H-A.png,S-A.png,hH,sS,mask-1.png,mask-4.png,h,1,0.6470589999807999,s,1,0.28299600002355874,0.047742400027345866,0.04826349997892976,0.09980590001214296,0.09961989999283105,0.7476937000174075
RSVPLG03,JM,20251027-113238,1.0.1,20251020-085245,716,Experiment,Both,1,Automatic,main,8,20251027-113420,global,local,750,H,S,E,E,H-E.png,E-S.png,hH,sS,mask-2.png,mask-3.png,h,1,0.6525768999708816,h,0,0.2554309000261128,0.04678610002156347,0.04801309999311343,0.10035750002134591,0.10035780002363026,0.7475601999904029
RSVPLG03,JM,20251027-113238,1.0.1,20251020-085245,716,Experiment,Both,1,Automatic,main,9,20251027-113425,local,global,750,S,H,A,E,A-S.png,H-E.png,sS,hH,mask-2.png,mask-1.png,s,1,0.7011090999585576,h,1,0.14658549998421222,0.0487108999514021,0.04825629998231307,0.100278600002639,0.10125599999446422,0.7475292999879457
RSVPLG03,JM,20251027-113238,1.0.1,20251020-085245,716,Experiment,Both,1,Automatic,main,10,20251027-113430,local,global,300,S,H,E,E,E-S.png,H-E.png,sS,hH,mask-2.png,mask-2.png,s,1,0.6949537000036798,h,1,1.4477406999794766,0.0471298000193201,0.047268300026189536,0.0999115000013262,0.09985429997323081,0.29830810002749786
RSVPLG03,JM,20251027-113238,1.0.1,20251020-085245,716,Experiment,Both,1,Automatic,main,11,20251027-113436,local,local,750,H,S,E,A,E-H.png,A-S.png,hH,sS,mask-4.png,mask-4.png,h,1,0.7444613999687135,h,0,0.15082249999977648,0.047689400031231344,0.04672850004862994,0.09981000004336238,0.09796660003485158,0.7488222999963909
RSVPLG03,JM,20251027-113238,1.0.1,20251020-085245,716,Experiment,Both,1,Automatic,main,12,20251027-113441,global,global,750,H,H,A,A,H-A.png,H-A.png,hH,hH,mask-1.png,mask-1.png,h,1,0.45789760001935065,h,1,0.1524010999710299,0.04780709999613464,0.04744860000209883,0.09986760001629591,0.09885099995881319,0.7474284000345506
RSVPLG03,JM,20251027-113238,1.0.1,20251020-085245,716,Experiment,Both,1,Automatic,main,13,20251027-113446,global,global,300,S,H,E,E,S-E.png,H-E.png,sS,hH,mask-4.png,mask-1.png,s,1,0.48901029996341094,h,1,0.20569680002517998,0.047435800021048635,0.0486187000060454,0.09943070000736043,0.09977639996213838,0.2987573000136763
RSVPLG03,JM,20251027-113238,1.0.1,20251020-085245,716,Experiment,Both,1,Automatic,main,14,20251027-113450,local,local,750,S,H,A,E,A-S.png,E-H.png,sS,hH,mask-2.png,mask-1.png,s,1,1.0495706000365317,h,1,0.1449947000364773,0.04646119999233633,0.04681620001792908,0.09907659998862073,0.0991735000279732,0.7476224999991246
RSVPLG03,JM,20251027-113238,1.0.1,20251020-085245,716,Experiment,Both,1,Automatic,main,15,20251027-113455,global,local,300,H,H,E,E,H-E.png,E-H.png,hH,hH,mask-1.png,mask-3.png,h,1,0.5759850000031292,s,0,0.18225979997077957,0.04570459999376908,0.047158700006548315,0.09966129995882511,0.09976349998032674,0.29778179997811094
RSVPLG03,JM,20251027-113238,1.0.1,20251020-085245,716,Experiment,Both,1,Automatic,main,16,20251027-113500,local,global,300,S,S,E,E,E-S.png,S-E.png,sS,sS,mask-4.png,mask-2.png,s,1,0.5775080000166781,h,0,0.16525999997975305,0.0486675999709405,0.046693400014191866,0.09949789999518543,0.09889230004046112,0.30029279994778335
RSVPLG03,JM,20251027-113238,1.0.1,20251020-085245,716,Experiment,Both,1,Automatic,main,17,20251027-113504,global,local,300,S,S,E,A,S-E.png,A-S.png,sS,sS,mask-4.png,mask-2.png,s,1,1.5192080999840982,h,0,0.13955790002364665,0.04735230002552271,0.04748069995548576,0.09933729999465868,0.09868049999931827,0.29905840003630146
RSVPLG03,JM,20251027-113238,1.0.1,20251020-085245,716,Experiment,Both,1,Automatic,main,18,20251027-113509,local,global,750,H,H,E,A,E-H.png,H-A.png,hH,hH,mask-4.png,mask-3.png,s,0,0.7788352000061423,h,1,0.1664885999634862,0.04650629998650402,0.0482470000279136,0.09913019998930395,0.09990919998381287,0.7467287000035867
RSVPLG03,JM,20251027-113238,1.0.1,20251020-085245,716,Experiment,Both,1,Automatic,main,19,20251027-113514,local,local,300,S,H,E,E,E-S.png,E-H.png,sS,hH,mask-2.png,mask-1.png,s,1,0.47510320000583306,h,1,0.15263329999288544,0.04770060000009835,0.0476887000259012,0.1009055000031367,0.10098869999637827,0.29811969998991117
RSVPLG03,JM,20251027-113238,1.0.1,20251020-085245,716,Experiment,Both,1,Automatic,main,20,20251027-113519,local,local,750,S,H,E,E,E-S.png,E-H.png,sS,hH,mask-4.png,mask-1.png,s,1,1.1670754999504425,s,0,0.10945910000009462,0.047458100016228855,0.046249000006355345,0.0998136000125669,0.09865070000523701,0.7486824000370689
RSVPLG03,JM,20251027-113238,1.0.1,20251020-085245,716,Experiment,Both,1,Automatic,main,21,20251027-113524,global,global,750,H,H,A,E,H-A.png,H-E.png,hH,hH,mask-2.png,mask-1.png,h,1,0.5990003999904729,h,1,0.11376410000957549,0.04771790001541376,0.04597310000099242,0.10092290001921356,0.09877209999831393,0.7482210000162013
RSVPLG03,JM,20251027-113238,1.0.1,20251020-085245,716,Experiment,Both,1,Automatic,main,22,20251027-113529,global,global,750,H,H,E,A,H-E.png,H-A.png,hH,hH,mask-3.png,mask-4.png,h,1,0.37389469996560365,h,1,0.11883550003403798,0.046829700004309416,0.04720139998244122,0.09920100000454113,0.09967299998970702,0.7467430000542663
RSVPLG03,JM,20251027-113238,1.0.1,20251020-085245,716,Experiment,Both,1,Automatic,main,23,20251027-113534,local,local,300,S,S,A,A,A-S.png,A-S.png,sS,sS,mask-2.png,mask-1.png,s,1,1.2659220000496134,s,1,0.31623439997201785,0.04743340000277385,0.04721889999927953,0.09982320002745837,0.09965930000180379,0.300384700007271
RSVPLG03,JM,20251027-113238,1.0.1,20251020-085245,716,Experiment,Both,1,Automatic,main,24,20251027-113539,global,global,750,S,H,A,E,S-A.png,H-E.png,sS,hH,mask-3.png,mask-3.png,s,1,0.4663682000245899,h,1,0.13773760001640767,0.046186099993065,0.04717900004470721,0.09873979998519644,0.09958940005162731,0.746058099961374
RSVPLG03,JM,20251027-113238,1.0.1,20251020-085245,716,Experiment,Both,1,Automatic,main,25,20251027-113544,global,local,300,S,H,A,E,S-A.png,E-H.png,sS,hH,mask-4.png,mask-1.png,s,1,1.086683899979107,s,0,0.2966168000129983,0.047308300039730966,0.0473710999940522,0.09879660001024604,0.10072129999753088,0.2983140000142157
RSVPLG03,JM,20251027-113238,1.0.1,20251020-085245,716,Experiment,Both,1,Automatic,main,26,20251027-113551,global,global,300,H,S,E,A,H-E.png,S-A.png,hH,sS,mask-4.png,mask-3.png,h,1,0.43595040001673624,s,1,0.191366899991408,0.04758929996751249,0.046636999992188066,0.09987620002357289,0.0988692999817431,0.2992007000138983
RSVPLG03,JM,20251027-113238,1.0.1,20251020-085245,716,Experiment,Both,1,Automatic,main,27,20251027-113555,global,global,300,H,S,E,E,H-E.png,S-E.png,hH,sS,mask-3.png,mask-4.png,h,1,0.40422289998969063,s,1,0.017438900016713887,0.04719979997025803,0.048265699995681643,0.10069779999321327,0.10065159999066964,0.29921959998318925
RSVPLG03,JM,20251027-113238,1.0.1,20251020-085245,716,Experiment,Both,1,Automatic,main,28,20251027-113600,global,local,750,H,H,E,E,H-E.png,E-H.png,hH,hH,mask-1.png,mask-4.png,h,1,0.5663864999660291,h,1,0.1140218999935314,0.0470909999567084,0.04763649997767061,0.09951839997665957,0.1000606999732554,0.7453840000089258
RSVPLG03,JM,20251027-113238,1.0.1,20251020-085245,716,Experiment,Both,1,Automatic,main,29,20251027-113604,global,global,300,H,H,A,A,H-A.png,H-A.png,hH,hH,mask-4.png,mask-4.png,h,1,0.48403990000952035,h,1,0.17309970001224428,0.048289199999999255,0.04651620000367984,0.1006749999942258,0.09853529999963939,0.30020440003136173
RSVPLG03,JM,20251027-113238,1.0.1,20251020-085245,716,Experiment,Both,1,Automatic,main,30,20251027-113609,local,global,300,H,H,A,E,A-H.png,H-E.png,hH,hH,mask-3.png,mask-4.png,h,1,0.5395264000399038,s,0,0.4913640000158921,0.04629420000128448,0.04822960001183674,0.09880730003351346,0.10126139997737482,0.29781920003006235
RSVPLG03,JM,20251027-113238,1.0.1,20251020-085245,716,Experiment,Both,1,Automatic,main,31,20251027-113613,local,global,300,H,H,A,E,A-H.png,H-E.png,hH,hH,mask-4.png,mask-1.png,h,1,0.4533238000003621,h,1,0.1502320999861695,0.04859920003218576,0.04889159998856485,0.09991740004625171,0.10081999999238178,0.2992069000029005
RSVPLG03,JM,20251027-113238,1.0.1,20251020-085245,716,Experiment,Both,1,Automatic,main,32,20251027-113618,local,global,300,H,H,E,A,E-H.png,H-A.png,hH,hH,mask-2.png,mask-2.png,s,0,0.5249931999715045,h,1,0.11285149998730049,0.0485309999785386,0.04798799997661263,0.09964879998005927,0.10009989998070523,0.29926780000096187
RSVPLG03,JM,20251027-113238,1.0.1,20251020-085245,716,Experiment,Both,1,Automatic,main,33,20251027-113622,global,global,300,H,H,E,A,H-E.png,H-A.png,hH,hH,mask-1.png,mask-1.png,h,1,0.4755664999829605,h,1,0.15403069998137653,0.047717200010083616,0.04695049999281764,0.10058830003254116,0.10017339995829388,0.2989203000324778
RSVPLG03,JM,20251027-113238,1.0.1,20251020-085245,716,Experiment,Both,1,Automatic,main,34,20251027-113626,local,global,750,H,S,E,E,E-H.png,S-E.png,hH,sS,mask-4.png,mask-3.png,s,0,1.2919737999909557,h,0,0.08889779995661229,0.04657240002416074,0.04766169999493286,0.09959540003910661,0.10075829998822883,0.7464338000281714
RSVPLG03,JM,20251027-113238,1.0.1,20251020-085245,716,Experiment,Both,1,Automatic,main,35,20251027-113632,global,global,300,S,H,E,E,S-E.png,H-E.png,sS,hH,mask-4.png,mask-2.png,s,1,0.593082899984438,h,1,0.36445170000661165,0.04726610000943765,0.04745090001961216,0.09982629999285564,0.09904020000249147,0.2995179999852553
RSVPLG03,JM,20251027-113238,1.0.1,20251020-085245,716,Experiment,Both,1,Automatic,main,36,20251027-113636,global,global,300,H,S,E,E,H-E.png,S-E.png,hH,sS,mask-4.png,mask-4.png,h,1,0.7220236000139266,s,1,0.18648470001062378,0.04823059996124357,0.04647400003159419,0.09960099996533245,0.09961039997870103,0.2998978999676183
RSVPLG03,JM,20251027-113238,1.0.1,20251020-085245,716,Experiment,Both,1,Automatic,main,37,20251027-113641,global,global,750,H,S,E,E,H-E.png,S-E.png,hH,sS,mask-2.png,mask-2.png,h,1,0.6757243000320159,s,1,0.14486719999695197,0.04756510001607239,0.04833120002876967,0.09868120000464842,0.10038299998268485,0.7463848000043072
RSVPLG03,JM,20251027-113238,1.0.1,20251020-085245,716,Experiment,Both,1,Automatic,main,38,20251027-113646,local,local,750,S,H,A,E,A-S.png,E-H.png,sS,hH,mask-2.png,mask-3.png,s,1,0.6444866000092588,s,0,0.36778040003264323,0.04666150000412017,0.04613580001750961,0.09917449997738004,0.09912019997136667,0.7484323999960907
RSVPLG03,JM,20251027-113238,1.0.1,20251020-085245,716,Experiment,Both,1,Automatic,main,39,20251027-113651,local,global,300,S,H,A,A,A-S.png,H-A.png,sS,hH,mask-1.png,mask-2.png,s,1,0.6302320000249892,h,1,0.16924550000112504,0.045982400013599545,0.047569299989845604,0.09956480003893375,0.10095870000077412,0.297835000033956
RSVPLG03,JM,20251027-113238,1.0.1,20251020-085245,716,Experiment,Both,1,Automatic,main,40,20251027-113656,local,global,750,H,H,A,A,A-H.png,H-A.png,hH,hH,mask-3.png,mask-3.png,s,0,0.8049647000152618,h,1,0.10959000000730157,0.04579020000528544,0.04604129999643192,0.0980746999848634,0.09904070000629872,0.7468476999783888
RSVPLG03,JM,20251027-113238,1.0.1,20251020-085245,716,Experiment,Both,1,Automatic,main,41,20251027-113701,global,local,300,S,S,E,E,S-E.png,E-S.png,sS,sS,mask-2.png,mask-1.png,s,1,0.8467760999919847,s,1,0.13502369995694607,0.04550060001201928,0.04766049998579547,0.09954799996921793,0.10032339999452233,0.2972250999882817
RSVPLG03,JM,20251027-113238,1.0.1,20251020-085245,716,Experiment,Both,1,Automatic,main,42,20251027-113705,global,local,750,H,H,E,A,H-E.png,A-H.png,hH,hH,mask-4.png,mask-3.png,h,1,0.6833839000319131,s,0,0.17679270001826808,0.04752379999263212,0.04654320003464818,0.10054250003304332,0.09941320004872978,0.747880199982319
RSVPLG03,JM,20251027-113238,1.0.1,20251020-085245,716,Experiment,Both,1,Automatic,main,43,20251027-113710,local,local,750,H,S,A,E,A-H.png,E-S.png,hH,sS,mask-4.png,mask-3.png,h,1,0.6042408999637701,s,1,0.13815419998718426,0.046506599988788366,0.046517000009771436,0.09828330000163987,0.0995705000241287,0.7478659999906085
RSVPLG03,JM,20251027-113238,1.0.1,20251020-085245,716,Experiment,Both,1,Automatic,main,44,20251027-113715,global,local,750,S,H,A,A,S-A.png,A-H.png,sS,hH,mask-2.png,mask-2.png,s,1,0.8480484000174329,h,1,0.12562430003890768,0.046971799980383366,0.04756520001683384,0.10097450000466779,0.09808799996972084,0.748859099985566
RSVPLG03,JM,20251027-113238,1.0.1,20251020-085245,716,Experiment,Both,1,Automatic,main,45,20251027-113720,global,global,300,H,S,E,E,H-E.png,S-E.png,hH,sS,mask-3.png,mask-4.png,s,0,1.5774119999841787,h,0,1.6733950999914669,0.04765560000669211,0.047821200045291334,0.09997079998720437,0.10015559999737889,0.2983407999854535
RSVPLG03,JM,20251027-113238,1.0.1,20251020-085245,716,Experiment,Both,1,Automatic,main,46,20251027-113725,global,local,750,H,S,A,E,H-A.png,E-S.png,hH,sS,mask-2.png,mask-3.png,s,0,0.6143293000059202,h,0,1.464471799961757,0.045724400028120726,0.045999899972230196,0.09783570002764463,0.09847659996012226,0.7471920000389218
RSVPLG03,JM,20251027-113238,1.0.1,20251020-085245,716,Experiment,Both,1,Automatic,main,47,20251027-113732,global,local,300,S,H,A,E,S-A.png,E-H.png,sS,hH,mask-4.png,mask-3.png,s,1,0.701876099978108,h,1,0.11190940003143623,0.04782949999207631,0.04670930001884699,0.09861569997156039,0.09992439998313785,0.29895949998172
RSVPLG03,JM,20251027-113238,1.0.1,20251020-085245,716,Experiment,Both,1,Automatic,main,48,20251027-113736,global,local,750,H,H,A,E,H-A.png,E-H.png,hH,hH,mask-2.png,mask-1.png,h,1,0.6300550999585539,h,1,0.12485899997409433,0.048111299984157085,0.047687599959317595,0.09906380000757053,0.10012479999568313,0.7475149999954738
RSVPLG03,JM,20251027-113238,1.0.1,20251020-085245,716,Experiment,Both,1,Automatic,main,49,20251027-113741,local,local,300,H,S,A,A,A-H.png,A-S.png,hH,sS,mask-3.png,mask-4.png,h,1,1.6518486000131816,s,1,1.8441714000073262,0.04760509997140616,0.047345400031190366,0.10080279997782782,0.09912640001857653,0.30037019995506853
RSVPLG03,JM,20251027-113238,1.0.1,20251020-085245,716,Experiment,Both,1,Automatic,main,50,20251027-113746,global,local,750,S,S,A,A,S-A.png,A-S.png,sS,sS,mask-2.png,mask-4.png,s,1,0.5097497000242583,s,1,0.3110144000384025,0.04726909997407347,0.04651800001738593,0.09976509999250993,0.09955430001718923,0.7470172999892384
RSVPLG03,JM,20251027-113238,1.0.1,20251020-085245,716,Experiment,Both,1,Automatic,main,51,20251027-113753,local,local,300,S,S,A,A,A-S.png,A-S.png,sS,sS,mask-1.png,mask-1.png,s,1,0.6017032999661751,s,1,0.5538961000274867,0.04768409999087453,0.04850350000197068,0.09986560000106692,0.09949759999290109,0.2986308000399731
RSVPLG03,JM,20251027-113238,1.0.1,20251020-085245,716,Experiment,Both,1,Automatic,main,52,20251027-113758,local,local,300,S,S,A,A,A-S.png,A-S.png,sS,sS,mask-4.png,mask-1.png,s,1,1.5049188999691978,h,0,0.10236949997488409,0.047594500007107854,0.04771369998343289,0.1003533000475727,0.1007374000037089,0.29907980002462864
RSVPLG03,JM,20251027-113238,1.0.1,20251020-085245,716,Experiment,Both,1,Automatic,main,53,20251027-113803,local,local,750,H,S,A,A,A-H.png,A-S.png,hH,sS,mask-4.png,mask-2.png,s,0,0.3922803999739699,s,1,0.15454130002763122,0.04768280003918335,0.046069499978329986,0.0999986000242643,0.1011082999757491,0.747927000047639
RSVPLG03,JM,20251027-113238,1.0.1,20251020-085245,716,Experiment,Both,1,Automatic,main,54,20251027-113808,local,local,750,H,S,E,A,E-H.png,A-S.png,hH,sS,mask-3.png,mask-1.png,h,1,0.7347183999954723,h,0,0.09598189999815077,0.04883779998635873,0.047508500050753355,0.1010532999644056,0.09959510003682226,0.7477693999535404
RSVPLG03,JM,20251027-113238,1.0.1,20251020-085245,716,Experiment,Both,1,Automatic,main,55,20251027-113813,global,local,750,S,S,E,A,S-E.png,A-S.png,sS,sS,mask-2.png,mask-3.png,s,1,0.6665410999557935,h,0,0.10794640000676736,0.046702400024514645,0.04747089999727905,0.10004109999863431,0.09939769998891279,0.7480676000122912
RSVPLG03,JM,20251027-113238,1.0.1,20251020-085245,716,Experiment,Both,1,Automatic,main,56,20251027-113818,local,global,300,H,S,A,A,A-H.png,S-A.png,hH,sS,mask-2.png,mask-4.png,h,1,0.5271361999912187,s,1,0.15678630000911653,0.04785430000629276,0.04768859996693209,0.10014360002242029,0.09881850000238046,0.29900280002038926
RSVPLG03,JM,20251027-113238,1.0.1,20251020-085245,716,Experiment,Both,1,Automatic,main,57,20251027-113822,local,local,750,S,S,E,E,E-S.png,E-S.png,sS,sS,mask-2.png,mask-4.png,h,0,2.3226841999567114,s,1,0.22102420002920553,0.04772279999451712,0.047638899995945394,0.09999090002384037,0.09943780000321567,0.7462074999930337
RSVPLG03,JM,20251027-113238,1.0.1,20251020-085245,716,Experiment,Both,1,Automatic,main,58,20251027-113829,local,local,300,H,H,E,E,E-H.png,E-H.png,hH,hH,mask-4.png,mask-2.png,h,1,3.7592229999718256,s,0,0.2962285000248812,0.04651389998616651,0.04771770001389086,0.09876889997394755,0.09965310001280159,0.29828509996877983
RSVPLG03,JM,20251027-113238,1.0.1,20251020-085245,716,Experiment,Both,1,Automatic,main,59,20251027-113837,local,global,750,S,H,A,E,A-S.png,H-E.png,sS,hH,mask-3.png,mask-1.png,s,1,1.2562015000148676,h,1,0.11097769998013973,0.048844700038898736,0.0478737999801524,0.10069890000158921,0.10102389997337013,0.7479387000203133
RSVPLG03,JM,20251027-113238,1.0.1,20251020-085245,716,Experiment,Both,1,Automatic,main,60,20251027-113842,local,local,750,H,S,E,A,E-H.png,A-S.png,hH,sS,mask-2.png,mask-4.png,h,1,1.0176546000293456,h,0,0.111001200042665,0.047372000000905246,0.04805320000741631,0.09979449998354539,0.10135929996613413,0.7469682000228204
RSVPLG03,JM,20251027-113238,1.0.1,20251020-085245,716,Experiment,Both,1,Automatic,main,61,20251027-113848,global,global,300,S,H,E,A,S-E.png,H-A.png,sS,hH,mask-4.png,mask-4.png,s,1,0.6738858000026084,h,1,0.1022817000048235,0.04660960001638159,0.04756559996167198,0.10079150000819936,0.10075089999008924,0.29838460002793
RSVPLG03,JM,20251027-113238,1.0.1,20251020-085245,716,Experiment,Both,1,Automatic,main,62,20251027-113852,global,local,300,H,S,A,E,H-A.png,E-S.png,hH,sS,mask-4.png,mask-2.png,h,1,0.7649955000379123,s,1,0.41587849997449666,0.04785829997854307,0.04638140002498403,0.10096309997607023,0.10031450004316866,0.29984239995246753
RSVPLG03,JM,20251027-113238,1.0.1,20251020-085245,716,Experiment,Both,1,Automatic,main,63,20251027-113857,local,local,750,H,S,E,A,E-H.png,A-S.png,hH,sS,mask-4.png,mask-2.png,h,1,1.3285453999997117,s,1,0.05442950001452118,0.04704060003859922,0.04832519998308271,0.09771480003837496,0.10102299996651709,0.7456921000266448
RSVPLG03,JM,20251027-113238,1.0.1,20251020-085245,716,Experiment,Both,1,Automatic,main,64,20251027-113902,local,global,750,S,H,A,A,A-S.png,H-A.png,sS,hH,mask-4.png,mask-1.png,h,0,0.5956413999665529,h,1,0.06949810002697632,0.048421100014820695,0.047690699982922524,0.10060070001054555,0.10077660001115873,0.7483329999959096
RSVPLG03,JM,20251027-113238,1.0.1,20251020-085245,716,Experiment,Both,1,Automatic,main,65,20251027-113907,global,local,300,H,H,E,E,H-E.png,E-H.png,hH,hH,mask-2.png,mask-2.png,h,1,1.0466215999913402,s,0,0.17383859999245033,0.04579820000799373,0.04754060000414029,0.09712799999397248,0.09891040000366047,0.2980333000305109
RSVPLG03,JM,20251027-113238,1.0.1,20251020-085245,716,Experiment,Both,1,Automatic,main,66,20251027-113912,local,local,300,H,S,E,E,E-H.png,E-S.png,hH,sS,mask-1.png,mask-3.png,h,1,0.5321854000212625,s,1,0.23782079998636618,0.04881549999117851,0.04772269999375567,0.10032510000746697,0.09976369998184964,0.3007565999869257
RSVPLG03,JM,20251027-113238,1.0.1,20251020-085245,716,Experiment,Both,1,Automatic,main,67,20251027-113917,local,global,300,H,H,E,E,E-H.png,H-E.png,hH,hH,mask-2.png,mask-2.png,s,0,0.6348563000210561,h,1,0.12100230000214651,0.0469374000094831,0.04730629996629432,0.10001449997071177,0.09928789996774867,0.29933639999944717
RSVPLG03,JM,20251027-113238,1.0.1,20251020-085245,716,Experiment,Both,1,Automatic,main,68,20251027-113921,global,local,750,H,H,E,A,H-E.png,A-H.png,hH,hH,mask-2.png,mask-3.png,h,1,0.35801780002657324,h,1,0.12495980004314333,0.04748439998365939,0.04751469998154789,0.09939099999610335,0.09953399997903034,0.7462787000113167
RSVPLG03,JM,20251027-113238,1.0.1,20251020-085245,716,Experiment,Both,1,Automatic,main,69,20251027-113926,local,local,750,H,H,E,E,E-H.png,E-H.png,hH,hH,mask-1.png,mask-1.png,h,1,2.0611367999808863,h,1,0.10648519999813288,0.04782059998251498,0.046661000000312924,0.10032929998124018,0.09872740000719205,0.7483978999662213
RSVPLG03,JM,20251027-113238,1.0.1,20251020-085245,716,Experiment,Both,1,Automatic,main,70,20251027-113932,global,local,300,S,H,E,A,S-E.png,A-H.png,sS,hH,mask-2.png,mask-4.png,s,1,0.8879329999908805,h,1,0.11244420002913103,0.04670269996859133,0.04844079999020323,0.10093289997894317,0.10046109999530017,0.2983488999889232
RSVPLG03,JM,20251027-113238,1.0.1,20251020-085245,716,Experiment,Both,1,Automatic,main,71,20251027-113937,local,global,750,H,H,A,A,A-H.png,H-A.png,hH,hH,mask-1.png,mask-2.png,h,1,1.7623028000234626,h,1,0.10914099996443838,0.04725989996222779,0.04765279998537153,0.09928599995328113,0.09977699996670708,0.7462367999833077
RSVPLG03,JM,20251027-113238,1.0.1,20251020-085245,716,Experiment,Both,1,Automatic,main,72,20251027-113943,global,global,750,H,H,A,A,H-A.png,H-A.png,hH,hH,mask-4.png,mask-1.png,h,1,0.5168439000262879,h,1,0.10598980000941083,0.04616339999483898,0.04685689997859299,0.09946360002504662,0.1002718000090681,0.7471073000342585
RSVPLG03,JM,20251027-113238,1.0.1,20251020-085245,716,Experiment,Both,1,Automatic,main,73,20251027-113948,global,global,750,S,S,A,E,S-A.png,S-E.png,sS,sS,mask-3.png,mask-2.png,h,0,0.7213150000316091,s,1,0.18083729996578768,0.04751940001733601,0.04612269997596741,0.09852620004676282,0.09917909995419905,0.7470862000482157
RSVPLG03,JM,20251027-113238,1.0.1,20251020-085245,716,Experiment,Both,1,Automatic,main,74,20251027-113953,local,global,750,S,H,A,A,A-S.png,H-A.png,sS,hH,mask-4.png,mask-1.png,h,0,1.6457751999842003,h,1,0.10228049999568611,0.047321599966380745,0.047702499956358224,0.09914469998329878,0.0988999999826774,0.7470649000024423
RSVPLG03,JM,20251027-113238,1.0.1,20251020-085245,716,Experiment,Both,1,Automatic,main,75,20251027-113959,local,global,300,H,S,E,A,E-H.png,S-A.png,hH,sS,mask-4.png,mask-4.png,s,0,0.6088909999816678,h,0,0.10226040001725778,0.04682029999094084,0.04730150004616007,0.10001669998746365,0.09951190004358068,0.2995333999861032
RSVPLG03,JM,20251027-113238,1.0.1,20251020-085245,716,Experiment,Both,1,Automatic,main,76,20251027-114005,global,local,300,H,S,A,E,H-A.png,E-S.png,hH,sS,mask-4.png,mask-3.png,s,0,0.8329858999932185,h,0,0.06801300001097843,0.0477800999651663,0.04747160000260919,0.09920569998212159,0.10051360004581511,0.2990791999618523
RSVPLG03,JM,20251027-113238,1.0.1,20251020-085245,716,Experiment,Both,1,Automatic,main,77,20251027-114010,global,global,750,H,H,E,E,H-E.png,H-E.png,hH,hH,mask-3.png,mask-2.png,h,1,0.3966919999802485,h,1,0.1055163000128232,0.047991600004024804,0.047597199969459325,0.10017569997580722,0.1004706000094302,0.7478744999971241
RSVPLG03,JM,20251027-113238,1.0.1,20251020-085245,716,Experiment,Both,1,Automatic,main,78,20251027-114014,global,global,300,S,H,A,A,S-A.png,H-A.png,sS,hH,mask-2.png,mask-2.png,h,0,0.7200922999763861,h,1,0.2957053999998607,0.04748639999888837,0.048308400029782206,0.09920150000834838,0.09932259999914095,0.2990583999780938
RSVPLG03,JM,20251027-113238,1.0.1,20251020-085245,716,Experiment,Both,1,Automatic,main,79,20251027-114019,local,local,750,S,S,E,A,E-S.png,A-S.png,sS,sS,mask-2.png,mask-4.png,s,1,0.3596714999875985,h,0,0.07259240001440048,0.04750759998569265,0.04626440000720322,0.0985952999908477,0.09927529998822138,0.7476758999982849
RSVPLG03,JM,20251027-113238,1.0.1,20251020-085245,716,Experiment,Both,1,Automatic,main,80,20251027-114024,global,local,750,H,S,A,E,H-A.png,E-S.png,hH,sS,mask-2.png,mask-4.png,h,1,1.541326200007461,s,1,0.7096724000293761,0.047678699949756265,0.04604580003069714,0.09949839999899268,0.0991374000441283,0.7492515999474563
RSVPLG03,JM,20251027-113238,1.0.1,20251020-085245,716,Experiment,Both,1,Automatic,main,81,20251027-114030,global,global,300,S,H,E,E,S-E.png,H-E.png,sS,hH,mask-3.png,mask-4.png,h,0,0.8978425999521278,s,0,0.14835149998543784,0.04750439996132627,0.048403199994936585,0.09971529996255413,0.10038590000476688,0.2978759999969043
RSVPLG03,JM,20251027-113238,1.0.1,20251020-085245,716,Experiment,Both,1,Automatic,main,82,20251027-114034,local,local,300,S,H,E,E,E-S.png,E-H.png,sS,hH,mask-4.png,mask-4.png,s,1,0.1026998000452295,s,0,0.7539613000117242,0.047569199989084154,0.0473405999946408,0.09957920003216714,0.09953569999197498,0.2989618999999948
RSVPLG03,JM,20251027-113238,1.0.1,20251020-085245,716,Experiment,Both,1,Automatic,main,83,20251027-114039,global,global,750,S,H,E,A,S-E.png,H-A.png,sS,hH,mask-2.png,mask-3.png,s,1,0.0765003000269644,h,1,0.12449969997396693,0.04751680005574599,0.047651999979279935,0.10057240002788603,0.09909390000393614,0.7480997000238858
RSVPLG03,JM,20251027-113238,1.0.1,20251020-085245,716,Experiment,Both,1,Automatic,main,84,20251027-114044,local,local,300,S,H,E,A,E-S.png,A-H.png,sS,hH,mask-1.png,mask-2.png,s,1,0.9940282999887131,h,1,0.08090860000811517,0.04856199998175725,0.04767789994366467,0.1017604999942705,0.09985429997323081,0.2992633000249043
RSVPLG03,JM,20251027-113238,1.0.1,20251020-085245,716,Experiment,Both,1,Automatic,main,85,20251027-114049,local,local,300,S,H,E,E,E-S.png,E-H.png,sS,hH,mask-2.png,mask-4.png,s,1,1.3923869999707676,s,0,0.7736822000006214,0.04825400002300739,0.048831299995072186,0.09890470001846552,0.10093259997665882,0.298709399998188
RSVPLG03,JM,20251027-113238,1.0.1,20251020-085245,716,Experiment,Both,1,Automatic,main,86,20251027-114054,global,global,300,S,H,E,E,S-E.png,H-E.png,sS,hH,mask-3.png,mask-4.png,s,1,0.10595509997801855,h,1,0.10772630001883954,0.04872869997052476,0.0478051999816671,0.09909969998989254,0.09955939999781549,0.2989965999731794
RSVPLG03,JM,20251027-113238,1.0.1,20251020-085245,716,Experiment,Both,1,Automatic,main,87,20251027-114058,local,local,750,S,S,A,A,A-S.png,A-S.png,sS,sS,mask-2.png,mask-2.png,h,0,0.5176845000241883,h,0,0.08180690003791824,0.048575300024822354,0.04668689996469766,0.09984380000969395,0.10010539996437728,0.7482768000336364
RSVPLG03,JM,20251027-113238,1.0.1,20251020-085245,716,Experiment,Both,1,Automatic,main,88,20251027-114103,global,global,750,H,S,E,A,H-E.png,S-A.png,hH,sS,mask-1.png,mask-4.png,h,1,1.212504800001625,s,1,0.5820365999825299,0.045834199991077185,0.04756520001683384,0.09978960000444204,0.09865100000752136,0.74710999999661
RSVPLG03,JM,20251027-113238,1.0.1,20251020-085245,716,Experiment,Both,1,Automatic,main,89,20251027-114108,local,local,300,H,H,A,A,A-H.png,A-H.png,hH,hH,mask-2.png,mask-1.png,s,0,0.053023000014945865,h,1,1.1581173000158742,0.046456399955786765,0.04860300000291318,0.09769989998312667,0.10073619999457151,0.297910499968566
RSVPLG03,JM,20251027-113238,1.0.1,20251020-085245,716,Experiment,Both,1,Automatic,main,90,20251027-114113,local,local,300,H,S,E,A,E-H.png,A-S.png,hH,sS,mask-1.png,mask-3.png,s,0,1.0461430000141263,h,0,0.10280280001461506,0.0476574000203982,0.04659969999920577,0.09920470003271475,0.09988210001029074,0.29919789999257773
RSVPLG03,JM,20251027-113238,1.0.1,20251020-085245,716,Experiment,Both,1,Automatic,main,91,20251027-114118,global,local,750,H,S,E,E,H-E.png,E-S.png,hH,sS,mask-2.png,mask-2.png,h,1,0.58197839994682,s,1,1.0050074000027962,0.046878600027412176,0.04734450002433732,0.09996110002975911,0.09834470000350848,0.7484218000317924
RSVPLG03,JM,20251027-113238,1.0.1,20251020-085245,716,Experiment,Both,1,Automatic,main,92,20251027-114123,local,global,750,S,H,A,A,A-S.png,H-A.png,sS,hH,mask-2.png,mask-2.png,s,1,0.6941819999483414,h,1,0.11346619995310903,0.0483955999952741,0.047689400031231344,0.10075949999736622,0.09795510000549257,0.7490879999822937
RSVPLG03,JM,20251027-113238,1.0.1,20251020-085245,716,Experiment,Both,1,Automatic,main,93,20251027-114128,local,global,750,H,H,E,E,E-H.png,H-E.png,hH,hH,mask-1.png,mask-2.png,h,1,1.0045475999941118,h,1,0.09431650000624359,0.04565149999689311,0.0475212000310421,0.09982260002288967,0.09969200001796708,0.7461667999741621
RSVPLG03,JM,20251027-113238,1.0.1,20251020-085245,716,Experiment,Both,1,Automatic,main,94,20251027-114133,global,global,300,H,H,A,E,H-A.png,H-E.png,hH,hH,mask-4.png,mask-3.png,h,1,1.456607999978587,h,1,0.4286564000067301,0.04645679995883256,0.04708209994714707,0.09822049998911098,0.09795159997884184,0.29935260000638664
RSVPLG03,JM,20251027-113238,1.0.1,20251020-085245,716,Experiment,Both,1,Automatic,main,95,20251027-114139,local,global,300,H,H,E,E,E-H.png,H-E.png,hH,hH,mask-4.png,mask-3.png,s,0,1.0402009999961592,h,1,0.09421820001443848,0.04871990001993254,0.04761149996193126,0.09995850000996143,0.10063519998220727,0.2992884000414051
RSVPLG03,JM,20251027-113238,1.0.1,20251020-085245,716,Experiment,Both,1,Automatic,main,96,20251027-114143,global,global,300,S,H,E,A,S-E.png,H-A.png,sS,hH,mask-1.png,mask-4.png,h,0,0.6773599999723956,h,1,0.26638240000465885,0.047053500020410866,0.04763309995178133,0.09937640000134706,0.09944530000211671,0.29908140003681183
RSVPLG03,JM,20251027-113238,1.0.1,20251020-085245,716,Experiment,Both,1,Automatic,main,97,20251027-114148,local,global,750,H,H,E,A,E-H.png,H-A.png,hH,hH,mask-3.png,mask-2.png,s,0,0.7099087999667972,h,1,0.11608800000976771,0.04767770000034943,0.04593969997949898,0.09987430000910535,0.0992040999699384,0.7479990000138059
RSVPLG03,JM,20251027-113238,1.0.1,20251020-085245,716,Experiment,Both,1,Automatic,main,98,20251027-114153,global,local,750,H,H,A,A,H-A.png,A-H.png,hH,hH,mask-1.png,mask-1.png,h,1,2.7474220999865793,s,0,0.5671525999787264,0.04674020002130419,0.04771019995678216,0.10010640003019944,0.0990108999540098,0.7484932000515983
RSVPLG03,JM,20251027-113238,1.0.1,20251020-085245,716,Experiment,Both,1,Automatic,main,99,20251027-114200,global,global,750,S,S,A,A,S-A.png,S-A.png,sS,sS,mask-1.png,mask-4.png,h,0,0.7779956000158563,h,0,0.08965059998445213,0.04711320000933483,0.04655299999285489,0.09980169998016208,0.09861950000049546,0.7488497999729589
RSVPLG03,JM,20251027-113238,1.0.1,20251020-085245,716,Experiment,Both,1,Automatic,main,100,20251027-114205,local,global,300,S,H,A,A,A-S.png,H-A.png,sS,hH,mask-4.png,mask-4.png,h,0,1.9989263000315987,h,1,1.3020307999686338,0.04674769996199757,0.04751629999373108,0.100247299997136,0.09943429997656494,0.29872209997847676
RSVPLG03,JM,20251027-113238,1.0.1,20251020-085245,716,Experiment,Both,1,Automatic,main,101,20251027-114213,global,global,750,H,H,E,E,H-E.png,H-E.png,hH,hH,mask-2.png,mask-4.png,h,1,0.3345882000285201,h,1,0.056522400001995265,0.04675100004533306,0.04757749999407679,0.09985120000783354,0.10046889999648556,0.7471498000086285
RSVPLG03,JM,20251027-113238,1.0.1,20251020-085245,716,Experiment,Both,1,Automatic,main,102,20251027-114218,global,local,300,H,H,E,A,H-E.png,A-H.png,hH,hH,mask-3.png,mask-3.png,h,1,0.6798395999940112,h,1,0.10185590002220124,0.0486615999834612,0.04690200003096834,0.10174369998276234,0.09966730000451207,0.3000004999921657
RSVPLG03,JM,20251027-113238,1.0.1,20251020-085245,716,Experiment,Both,1,Automatic,main,103,20251027-114222,global,global,300,H,H,E,A,H-E.png,H-A.png,hH,hH,mask-3.png,mask-1.png,s,0,0.13579899998148903,h,1,0.02934289997210726,0.04836880002403632,0.04776530002709478,0.10029370000120252,0.09867320000194013,0.29966860002605245
RSVPLG03,JM,20251027-113238,1.0.1,20251020-085245,716,Experiment,Both,1,Automatic,main,104,20251027-114227,local,global,300,S,H,A,A,A-S.png,H-A.png,sS,hH,mask-3.png,mask-1.png,h,0,0.4502363000065088,h,1,0.24482230003923178,0.04748230002587661,0.04773839999688789,0.09956870001042262,0.09991099999751896,0.29932700004428625
RSVPLG03,JM,20251027-113238,1.0.1,20251020-085245,716,Experiment,Both,1,Automatic,main,105,20251027-114231,global,local,300,H,H,E,E,H-E.png,E-H.png,hH,hH,mask-4.png,mask-1.png,h,1,0.2906832000007853,s,0,0.7144651999697089,0.04752210003789514,0.04782290000002831,0.10162219998892397,0.09997909999219701,0.29917690000729635
RSVPLG03,JM,20251027-113238,1.0.1,20251020-085245,716,Experiment,Both,1,Automatic,main,106,20251027-114236,local,global,750,S,S,A,E,A-S.png,S-E.png,sS,sS,mask-4.png,mask-2.png,h,0,0.7283657999942079,s,1,0.28213760000653565,0.04708669998217374,0.047540800005663186,0.09936719998950139,0.1001914000371471,0.7483116999501362
RSVPLG03,JM,20251027-113238,1.0.1,20251020-085245,716,Experiment,Both,1,Automatic,main,107,20251027-114241,global,local,300,S,S,A,E,S-A.png,E-S.png,sS,sS,mask-1.png,mask-1.png,s,1,0.10836419998668134,s,1,0.8713744999840856,0.04670349997468293,0.04659749998245388,0.09880219999467954,0.09976509999250993,0.2993049999931827
RSVPLG03,JM,20251027-113238,1.0.1,20251020-085245,716,Experiment,Both,1,Automatic,main,108,20251027-114245,local,global,300,H,H,E,E,E-H.png,H-E.png,hH,hH,mask-3.png,mask-4.png,s,0,0.06906239996897057,h,1,0.06642620003549382,0.04679900000337511,0.04689860000507906,0.09902660001534969,0.098124599957373,0.29927980003412813
RSVPLG03,JM,20251027-113238,1.0.1,20251020-085245,716,Experiment,Both,1,Automatic,main,109,20251027-114250,global,local,300,S,S,E,A,S-E.png,A-S.png,sS,sS,mask-2.png,mask-4.png,s,1,0.7489314000122249,h,0,0.5052868999773636,0.04876440000953153,0.047491999983321875,0.10002010001335293,0.0995833000051789,0.2990643000230193
RSVPLG03,JM,20251027-113238,1.0.1,20251020-085245,716,Experiment,Both,1,Automatic,main,110,20251027-114254,local,global,300,S,S,A,E,A-S.png,S-E.png,sS,sS,mask-2.png,mask-1.png,h,0,0.9029868000070564,s,1,0.3770461999811232,0.04798070003744215,0.045582199993077666,0.09848300000885502,0.09932010003831238,0.29991729999892414
RSVPLG03,JM,20251027-113238,1.0.1,20251020-085245,716,Experiment,Both,1,Automatic,main,111,20251027-114258,global,global,750,S,H,A,A,S-A.png,H-A.png,sS,hH,mask-2.png,mask-2.png,s,1,0.10004240000853315,s,0,0.6845192000037059,0.04874070000369102,0.04851619998225942,0.1002359000267461,0.10075109999161214,0.7481422000564635
RSVPLG03,JM,20251027-113238,1.0.1,20251020-085245,716,Experiment,Both,1,Automatic,main,112,20251027-114303,global,local,750,H,S,A,A,H-A.png,A-S.png,hH,sS,mask-4.png,mask-3.png,h,1,0.4684359999955632,s,1,0.04006150003988296,0.0480235000140965,0.04667369998060167,0.09974490001332015,0.10087659995770082,0.7476946000242606
RSVPLG03,JM,20251027-113238,1.0.1,20251020-085245,716,Experiment,Both,1,Automatic,main,113,20251027-114308,local,local,300,S,S,A,E,A-S.png,E-S.png,sS,sS,mask-1.png,mask-4.png,h,0,0.7905943999649025,s,1,0.9505280999583192,0.04697299998952076,0.04753440001513809,0.09908449999056756,0.10055490001104772,0.2984220999642275
RSVPLG03,JM,20251027-113238,1.0.1,20251020-085245,716,Experiment,Both,1,Automatic,main,114,20251027-114312,local,global,750,H,H,A,E,A-H.png,H-E.png,hH,hH,mask-3.png,mask-3.png,h,1,0.8088738000369631,s,0,0.313379300001543,0.04869460000190884,0.047912699985317886,0.10091969999484718,0.100115499983076,0.747580100025516
RSVPLG03,JM,20251027-113238,1.0.1,20251020-085245,716,Experiment,Both,1,Automatic,main,115,20251027-114318,local,local,750,S,H,E,E,E-S.png,E-H.png,sS,hH,mask-2.png,mask-3.png,s,1,1.452763799985405,s,0,0.06859779998194426,0.047303800005465746,0.04780060000484809,0.09857700002612546,0.10018010000931099,0.7461392999975942
RSVPLG03,JM,20251027-113238,1.0.1,20251020-085245,716,Experiment,Both,1,Automatic,main,116,20251027-114323,local,global,300,H,H,A,E,A-H.png,H-E.png,hH,hH,mask-4.png,mask-1.png,s,0,0.9959204000188038,h,1,0.0689151999540627,0.04884690005565062,0.04695629997877404,0.10018760000821203,0.0999304999713786,0.2991271000355482
RSVPLG03,JM,20251027-113238,1.0.1,20251020-085245,716,Experiment,Both,1,Automatic,main,117,20251027-114328,local,global,750,H,H,E,E,E-H.png,H-E.png,hH,hH,mask-1.png,mask-4.png,h,1,0.4966326999710873,s,0,0.1101681999862194,0.04853269999148324,0.04677100002299994,0.09958239999832585,0.10007220000261441,0.7480670000077225
RSVPLG03,JM,20251027-113238,1.0.1,20251020-085245,716,Experiment,Both,1,Automatic,main,118,20251027-114333,local,local,300,S,S,E,E,E-S.png,E-S.png,sS,sS,mask-4.png,mask-1.png,s,1,0.6412588999955915,s,1,0.11054980003973469,0.046717200020793825,0.04829780000727624,0.09842250001383945,0.09902949997922406,0.2974259000038728
RSVPLG03,JM,20251027-113238,1.0.1,20251020-085245,716,Experiment,Both,1,Automatic,main,119,20251027-114337,global,local,300,H,H,A,E,H-A.png,E-H.png,hH,hH,mask-4.png,mask-1.png,s,0,0.9348720000125468,h,1,0.2120415000244975,0.04762859997572377,0.04832209995947778,0.0993216999922879,0.10166269994806498,0.2986185000045225
RSVPLG03,JM,20251027-113238,1.0.1,20251020-085245,716,Experiment,Both,1,Automatic,main,120,20251027-114342,global,local,750,H,S,A,A,H-A.png,A-S.png,hH,sS,mask-2.png,mask-1.png,h,1,0.9884957000031136,h,0,0.6634205000009388,0.04661100002704188,0.047767599986400455,0.09967670001788065,0.09982280002441257,0.7466293000034057
RSVPLG03,JM,20251027-113238,1.0.1,20251020-085245,716,Experiment,Both,1,Automatic,main,121,20251027-114348,global,local,300,H,S,E,A,H-E.png,A-S.png,hH,sS,mask-2.png,mask-3.png,h,1,1.2576476000249386,s,1,1.4493469000444748,0.04754769999999553,0.047533700009807944,0.09956569998757914,0.09860860003391281,0.30022719997214153
RSVPLG03,JM,20251027-113238,1.0.1,20251020-085245,716,Experiment,Both,1,Automatic,main,122,20251027-114353,local,local,750,S,H,A,E,A-S.png,E-H.png,sS,hH,mask-4.png,mask-3.png,h,0,2.915386700013187,s,0,0.42181610001716763,0.047549900016747415,0.04549819999374449,0.09968789998674765,0.0994267999776639,0.7484191000112332
RSVPLG03,JM,20251027-113238,1.0.1,20251020-085245,716,Experiment,Both,1,Automatic,main,123,20251027-114401,global,global,750,S,H,E,E,S-E.png,H-E.png,sS,hH,mask-2.png,mask-2.png,s,1,0.5034823999740183,h,1,0.29882339999312535,0.046910000033676624,0.04679069999838248,0.09900129999732599,0.09996980003779754,0.7476512999855913
RSVPLG03,JM,20251027-113238,1.0.1,20251020-085245,716,Experiment,Both,1,Automatic,main,124,20251027-114406,local,local,300,S,H,A,E,A-S.png,E-H.png,sS,hH,mask-4.png,mask-1.png,s,1,1.6385478000156581,h,1,0.07049329997971654,0.047693800006527454,0.04775200004223734,0.10003680002409965,0.09886590001406148,0.2993335999781266
RSVPLG03,JM,20251027-113238,1.0.1,20251020-085245,716,Experiment,Both,1,Automatic,main,125,20251027-114411,local,global,750,H,H,E,A,E-H.png,H-A.png,hH,hH,mask-2.png,mask-1.png,s,0,1.8914757000165991,h,1,0.27404539997223765,0.04841569997370243,0.04769770003622398,0.09937640000134706,0.09931520000100136,0.7481614999705926
RSVPLG03,JM,20251027-114521,1.0.1,20251020-085245,716,Experiment,Both,1,Automatic,warmup,1,20251027-114652,local,local,750,S,S,E,A,E-S.png,A-S.png,sS,sS,mask-3.png,mask-3.png,s,1,0.7670743999769911,h,0,0.03946130000986159,0.04194399999687448,0.04656280000926927,0.09466729999985546,0.09894529997836798,0.7454717000364326
RSVPLG03,JM,20251027-114521,1.0.1,20251020-085245,716,Experiment,Both,1,Automatic,warmup,2,20251027-114657,global,local,300,H,H,A,A,H-A.png,A-H.png,hH,hH,mask-3.png,mask-1.png,h,1,0.4539457999635488,s,0,0.09163879998959601,0.04670000000623986,0.047634399961680174,0.09986909996950999,0.10067979997256771,0.2992312000133097
RSVPLG03,JM,20251027-114521,1.0.1,20251020-085245,716,Experiment,Both,1,Automatic,warmup,3,20251027-114701,global,global,300,H,H,E,A,H-E.png,H-A.png,hH,hH,mask-4.png,mask-1.png,h,1,0.48719110002275556,h,1,0.07763280003564432,0.046841800038237125,0.047130299964919686,0.1002165999962017,0.09899659996153787,0.3003646000288427
RSVPLG03,JM,20251027-114521,1.0.1,20251020-085245,716,Experiment,Both,1,Automatic,warmup,4,20251027-114705,local,global,300,H,H,E,E,E-H.png,H-E.png,hH,hH,mask-3.png,mask-4.png,h,1,1.316786699986551,h,1,0.08000059996265918,0.04874060000292957,0.04739110002992675,0.10072310001123697,0.0986477000406012,0.30059579998487607
RSVPLG03,JM,20251027-114521,1.0.1,20251020-085245,716,Experiment,Both,1,Automatic,warmup,5,20251027-114710,local,local,300,H,S,E,E,E-H.png,E-S.png,hH,sS,mask-4.png,mask-1.png,h,1,0.6330725000007078,s,1,0.7771764999488369,0.04774810001254082,0.04750139999669045,0.10041940002702177,0.10160300001734868,0.2998206000193022
RSVPLG03,JM,20251027-114521,1.0.1,20251020-085245,716,Experiment,Both,1,Automatic,main,6,20251027-114715,global,global,300,H,S,E,A,H-E.png,S-A.png,hH,sS,mask-4.png,mask-4.png,h,1,0.4570355999749154,s,1,0.5687610000022687,0.04675630002748221,0.04841570003191009,0.09872660000110045,0.10028720000991598,0.29862419998971745
RSVPLG03,JM,20251027-114521,1.0.1,20251020-085245,716,Experiment,Both,1,Automatic,main,7,20251027-114719,global,local,300,H,S,A,E,H-A.png,E-S.png,hH,sS,mask-4.png,mask-2.png,h,1,0.3716170000261627,s,1,0.499369699973613,0.048035899992100894,0.0477746999822557,0.10076919995481148,0.09894779999740422,0.30113119998713955
RSVPLG03,JM,20251027-114521,1.0.1,20251020-085245,716,Experiment,Both,1,Automatic,main,8,20251027-114723,global,global,750,S,H,E,E,S-E.png,H-E.png,sS,hH,mask-3.png,mask-1.png,s,1,0.45875119999982417,h,1,0.10678870003903285,0.047588400018867105,0.04692400002386421,0.09946029999991879,0.10128050000639632,0.748257500003092
RSVPLG03,JM,20251027-114521,1.0.1,20251020-085245,716,Experiment,Both,1,Automatic,main,9,20251027-114728,local,local,750,H,H,E,E,E-H.png,E-H.png,hH,hH,mask-3.png,mask-2.png,s,0,1.064456699998118,s,0,0.0872899999958463,0.04660530004184693,0.04765689995838329,0.09883289999561384,0.09962140000425279,0.7501112000318244
RSVPLG03,JM,20251027-114521,1.0.1,20251020-085245,716,Experiment,Both,1,Automatic,main,10,20251027-114733,global,global,750,H,H,A,A,H-A.png,H-A.png,hH,hH,mask-2.png,mask-1.png,h,1,0.7710713000269607,s,0,0.0913486999925226,0.04713170003378764,0.04749730002367869,0.10009999998146668,0.09966780000831932,0.7497851999942213
RSVPLG03,JM,20251027-114521,1.0.1,20251020-085245,716,Experiment,Both,1,Automatic,main,11,20251027-114738,local,global,750,S,H,A,E,A-S.png,H-E.png,sS,hH,mask-4.png,mask-1.png,s,1,0.6405921999830753,h,1,0.07692540000425652,0.04738509998423979,0.04754290002165362,0.0981109999702312,0.10053090000292286,0.7489493999746628
RSVPLG03,JM,20251027-114521,1.0.1,20251020-085245,716,Experiment,Both,1,Automatic,main,12,20251027-114743,local,local,750,S,H,A,E,A-S.png,E-H.png,sS,hH,mask-1.png,mask-2.png,s,1,0.6499367999495007,h,1,0.08854940003948286,0.047622599988244474,0.046672800031956285,0.09997709997696802,0.1006311000091955,0.7500706999562681
RSVPLG03,JM,20251027-114521,1.0.1,20251020-085245,716,Experiment,Both,1,Automatic,main,13,20251027-114748,global,local,750,S,S,A,A,S-A.png,A-S.png,sS,sS,mask-3.png,mask-3.png,s,1,1.7757878999691457,h,0,0.8851781999692321,0.04651809995993972,0.046538099995814264,0.09951879997970536,0.09953070001211017,0.7497118999599479
RSVPLG03,JM,20251027-114521,1.0.1,20251020-085245,716,Experiment,Both,1,Automatic,main,14,20251027-114755,local,global,300,H,H,E,E,E-H.png,H-E.png,hH,hH,mask-4.png,mask-1.png,h,1,0.9081409000209533,h,1,0.07153409998863935,0.04754659999161959,0.0487421999569051,0.09955649997573346,0.10074539994820952,0.299199300003238
RSVPLG03,JM,20251027-114521,1.0.1,20251020-085245,716,Experiment,Both,1,Automatic,main,15,20251027-114759,global,local,750,H,S,A,E,H-A.png,E-S.png,hH,sS,mask-4.png,mask-2.png,h,1,0.4532888999674469,s,1,0.1872406000038609,0.045533700031228364,0.04671179997967556,0.09887859999435022,0.10101259994553402,0.7490188000374474
RSVPLG03,JM,20251027-114521,1.0.1,20251020-085245,716,Experiment,Both,1,Automatic,main,16,20251027-114804,local,local,750,S,H,A,E,A-S.png,E-H.png,sS,hH,mask-4.png,mask-1.png,h,0,0.4711245999787934,s,0,0.02462109999032691,0.04857029998674989,0.04684659995837137,0.10039699997287244,0.10002750001149252,0.7507168999873102
RSVPLG03,JM,20251027-114521,1.0.1,20251020-085245,716,Experiment,Both,1,Automatic,main,17,20251027-114809,global,local,300,H,H,A,A,H-A.png,A-H.png,hH,hH,mask-4.png,mask-2.png,h,1,0.47567590000107884,h,1,0.14302900002803653,0.04650739999487996,0.04767629998968914,0.09790910000447184,0.0992600999888964,0.2996327999862842
RSVPLG03,JM,20251027-114521,1.0.1,20251020-085245,716,Experiment,Both,1,Automatic,main,18,20251027-114813,global,global,750,S,S,A,E,S-A.png,S-E.png,sS,sS,mask-2.png,mask-1.png,s,1,1.2317450999980792,s,1,0.11232800001744181,0.04748589999508113,0.04849870002362877,0.0995215000002645,0.09950589999789372,0.7499668999807909
RSVPLG03,JM,20251027-114521,1.0.1,20251020-085245,716,Experiment,Both,1,Automatic,main,19,20251027-114819,global,global,750,H,S,A,A,H-A.png,S-A.png,hH,sS,mask-1.png,mask-4.png,h,1,0.8277944999863394,s,1,1.0198764000087976,0.04728929995326325,0.04748039995320141,0.09911129996180534,0.10048109997296706,0.7496098999981768
RSVPLG03,JM,20251027-114521,1.0.1,20251020-085245,716,Experiment,Both,1,Automatic,main,20,20251027-114824,local,global,750,H,S,E,E,E-H.png,S-E.png,hH,sS,mask-4.png,mask-2.png,s,0,0.5782354000257328,s,1,0.1074891000171192,0.04662759997881949,0.04871649999404326,0.1007178999716416,0.10087249998468906,0.7497382999863476
RSVPLG03,JM,20251027-114521,1.0.1,20251020-085245,716,Experiment,Both,1,Automatic,main,21,20251027-114829,global,local,750,H,H,E,A,H-E.png,A-H.png,hH,hH,mask-4.png,mask-4.png,h,1,0.5438015999970958,s,0,0.07462360005592927,0.048530700034461915,0.04770880000432953,0.09961780003504828,0.09991609997814521,0.7506932000396773
RSVPLG03,JM,20251027-114521,1.0.1,20251020-085245,716,Experiment,Both,1,Automatic,main,22,20251027-114833,local,global,750,S,H,A,E,A-S.png,H-E.png,sS,hH,mask-1.png,mask-2.png,s,1,0.4383306999807246,s,0,0.11150920001091436,0.04809289996046573,0.04683360003400594,0.10044239996932447,0.10014190000947565,0.7508054999634624
RSVPLG03,JM,20251027-114521,1.0.1,20251020-085245,716,Experiment,Both,1,Automatic,main,23,20251027-114838,global,global,750,S,H,A,E,S-A.png,H-E.png,sS,hH,mask-3.png,mask-4.png,h,0,1.0820192000246607,h,1,0.07642469997517765,0.0486695000436157,0.04768080002395436,0.10068050003610551,0.09919029998127371,0.750498500012327
RSVPLG03,JM,20251027-114521,1.0.1,20251020-085245,716,Experiment,Both,1,Automatic,main,24,20251027-114843,local,local,750,H,H,E,E,E-H.png,E-H.png,hH,hH,mask-2.png,mask-3.png,s,0,1.073877300019376,h,1,0.3809012999990955,0.04844149999553338,0.04631229996448383,0.10077080002520233,0.09850639995420352,0.751014000037685
RSVPLG03,JM,20251027-114521,1.0.1,20251020-085245,716,Experiment,Both,1,Automatic,main,25,20251027-114849,local,global,750,H,S,A,E,A-H.png,S-E.png,hH,sS,mask-2.png,mask-4.png,h,1,0.803284999972675,s,1,0.015911800030153245,0.04683510004542768,0.048311399994418025,0.09986010001739487,0.09994610003195703,0.7493750000139698
RSVPLG03,JM,20251027-114521,1.0.1,20251020-085245,716,Experiment,Both,1,Automatic,main,26,20251027-114855,local,local,300,H,H,A,A,A-H.png,A-H.png,hH,hH,mask-4.png,mask-2.png,h,1,0.341081699996721,s,0,0.5170383999939077,0.045721500006038696,0.04896400001598522,0.09998409997206181,0.10010899999178946,0.29852369998116046
RSVPLG03,JM,20251027-114521,1.0.1,20251020-085245,716,Experiment,Both,1,Automatic,main,27,20251027-114859,local,global,300,S,S,A,E,A-S.png,S-E.png,sS,sS,mask-4.png,mask-1.png,h,0,0.5491862000199035,h,0,0.15278460003901273,0.048213499947451055,0.04724789998726919,0.0997127000009641,0.10034220002125949,0.3009609999717213
RSVPLG03,JM,20251027-114521,1.0.1,20251020-085245,716,Experiment,Both,1,Automatic,main,28,20251027-114904,local,local,300,H,S,E,E,E-H.png,E-S.png,hH,sS,mask-2.png,mask-2.png,s,0,1.25893549999455,h,0,0.07588840002426878,0.046929300006013364,0.04762880003545433,0.10012760001700372,0.10054300003685057,0.29954159999033436
RSVPLG03,JM,20251027-114521,1.0.1,20251020-085245,716,Experiment,Both,1,Automatic,main,29,20251027-114909,global,local,750,H,H,A,A,H-A.png,A-H.png,hH,hH,mask-1.png,mask-4.png,h,1,0.5264037000015378,h,1,0.12444079999113455,0.048275900015141815,0.04857779998565093,0.10032299999147654,0.10058490000665188,0.7506988000241108
RSVPLG03,JM,20251027-114521,1.0.1,20251020-085245,716,Experiment,Both,1,Automatic,main,30,20251027-114913,global,global,300,H,H,E,A,H-E.png,H-A.png,hH,hH,mask-3.png,mask-2.png,h,1,0.5360801000497304,h,1,0.2723340999800712,0.04686870001023635,0.04761599999619648,0.09974410000722855,0.10111869999673218,0.29953780001960695
RSVPLG03,JM,20251027-114521,1.0.1,20251020-085245,716,Experiment,Both,1,Automatic,main,31,20251027-114918,local,global,300,H,S,A,A,A-H.png,S-A.png,hH,sS,mask-3.png,mask-1.png,h,1,0.46668319997843355,s,1,0.11559190001571551,0.04653579997830093,0.04850380000425503,0.09946290001971647,0.10132310003973544,0.29849979997379705
RSVPLG03,JM,20251027-114521,1.0.1,20251020-085245,716,Experiment,Both,1,Automatic,main,32,20251027-114922,local,global,300,H,H,E,E,E-H.png,H-E.png,hH,hH,mask-3.png,mask-3.png,s,0,0.6886175999534316,h,1,0.0775535999564454,0.046774999995250255,0.04752420005388558,0.09895870002219453,0.10054270003456622,0.2993931999662891
RSVPLG03,JM,20251027-114521,1.0.1,20251020-085245,716,Experiment,Both,1,Automatic,main,33,20251027-114927,global,global,750,H,H,A,E,H-A.png,H-E.png,hH,hH,mask-1.png,mask-3.png,h,1,0.33745830005500466,h,1,0.11768049997044727,0.04596660000970587,0.04666859999997541,0.09830100002000108,0.09977939998498186,0.7497442000312731
RSVPLG03,JM,20251027-114521,1.0.1,20251020-085245,716,Experiment,Both,1,Automatic,main,34,20251027-114931,local,global,750,S,S,E,A,E-S.png,S-A.png,sS,sS,mask-4.png,mask-2.png,s,1,0.66549230000237,s,1,0.38029980001738295,0.046745500003453344,0.0461003000382334,0.09887180000077933,0.09938130003865808,0.7502774999593385
RSVPLG03,JM,20251027-114521,1.0.1,20251020-085245,716,Experiment,Both,1,Automatic,main,35,20251027-114936,local,global,750,S,S,E,A,E-S.png,S-A.png,sS,sS,mask-1.png,mask-3.png,h,0,1.148874300008174,s,1,0.03371639997931197,0.04768680001143366,0.047809200012125075,0.10067330003948882,0.09999600000446662,0.7501516999909654
RSVPLG03,JM,20251027-114521,1.0.1,20251020-085245,716,Experiment,Both,1,Automatic,main,36,20251027-114942,local,local,300,H,S,A,A,A-H.png,A-S.png,hH,sS,mask-1.png,mask-2.png,s,0,0.7041738000116311,h,0,0.012551800056826323,0.047521699976641685,0.047355699993204325,0.0985643999883905,0.10058999998727813,0.29910499998368323
RSVPLG03,JM,20251027-114521,1.0.1,20251020-085245,716,Experiment,Both,1,Automatic,main,37,20251027-114946,local,global,300,H,S,E,E,E-H.png,S-E.png,hH,sS,mask-4.png,mask-2.png,s,0,1.4255413000355475,s,1,0.06859139999141917,0.04569589998573065,0.04749910003738478,0.09789590002037585,0.09856960002798587,0.2998240999877453
RSVPLG03,JM,20251027-114521,1.0.1,20251020-085245,716,Experiment,Both,1,Automatic,main,38,20251027-114951,global,global,300,S,S,A,A,S-A.png,S-A.png,sS,sS,mask-4.png,mask-2.png,s,1,0.5748695000074804,h,0,0.16833539999788627,0.04823700000997633,0.04625849996227771,0.1012590000173077,0.09997189999558032,0.3012971000280231
RSVPLG03,JM,20251027-114521,1.0.1,20251020-085245,716,Experiment,Both,1,Automatic,main,39,20251027-114956,local,local,750,S,H,A,A,A-S.png,A-H.png,sS,hH,mask-1.png,mask-2.png,s,1,0.39682880003238097,h,1,0.09442510001827031,0.04755390004720539,0.048606099968310446,0.09770290000597015,0.09960469999350607,0.7489982000552118
RSVPLG03,JM,20251027-114521,1.0.1,20251020-085245,716,Experiment,Both,1,Automatic,main,40,20251027-115000,global,global,300,H,S,E,E,H-E.png,S-E.png,hH,sS,mask-2.png,mask-2.png,h,1,0.45329299999866635,s,1,0.0715908000129275,0.04653599997982383,0.04832960001658648,0.09961839998140931,0.10011940001277253,0.2988757999846712
RSVPLG03,JM,20251027-114521,1.0.1,20251020-085245,716,Experiment,Both,1,Automatic,main,41,20251027-115004,local,global,300,S,S,A,A,A-S.png,S-A.png,sS,sS,mask-4.png,mask-2.png,h,0,1.0185023000231013,s,1,0.057413200032897294,0.04635340004460886,0.04845310002565384,0.09990880003897473,0.09935490001225844,0.2988547999993898
RSVPLG03,JM,20251027-114521,1.0.1,20251020-085245,716,Experiment,Both,1,Automatic,main,42,20251027-115009,global,local,300,H,H,A,A,H-A.png,A-H.png,hH,hH,mask-1.png,mask-2.png,h,1,3.0313263999996707,h,1,0.34864660003222525,0.04750370001420379,0.04751499998383224,0.09951050003292039,0.0988006999832578,0.3000254000071436
RSVPLG03,JM,20251027-114521,1.0.1,20251020-085245,716,Experiment,Both,1,Automatic,main,43,20251027-115016,global,local,750,S,S,A,A,S-A.png,A-S.png,sS,sS,mask-2.png,mask-4.png,s,1,0.5210168999619782,h,0,0.053406800027005374,0.047495200007688254,0.04748360003577545,0.10153230000287294,0.09968740004114807,0.74987770000007
RSVPLG03,JM,20251027-114521,1.0.1,20251020-085245,716,Experiment,Both,1,Automatic,main,44,20251027-115021,global,local,750,S,S,A,E,S-A.png,E-S.png,sS,sS,mask-3.png,mask-3.png,s,1,0.42862229997990653,s,1,0.0745937000028789,0.04768950003199279,0.04885490000015125,0.10006470000371337,0.10014520003460348,0.7493804999976419
RSVPLG03,JM,20251027-114521,1.0.1,20251020-085245,716,Experiment,Both,1,Automatic,main,45,20251027-115025,local,local,750,S,S,E,E,E-S.png,E-S.png,sS,sS,mask-1.png,mask-3.png,s,1,0.4045293999952264,s,1,0.07168250001268461,0.046115900040604174,0.04744939994998276,0.09907170000951737,0.09864429995650426,0.7496928000473417
RSVPLG03,JM,20251027-114521,1.0.1,20251020-085245,716,Experiment,Both,1,Automatic,main,46,20251027-115030,global,global,750,S,H,E,A,S-E.png,H-A.png,sS,hH,mask-1.png,mask-2.png,s,1,0.9919733999995515,h,1,0.02168619999429211,0.04776350001338869,0.04743400000734255,0.09892640000907704,0.09987939998973161,0.7495544000412337
RSVPLG03,JM,20251027-114521,1.0.1,20251020-085245,716,Experiment,Both,1,Automatic,main,47,20251027-115035,local,global,300,S,S,A,E,A-S.png,S-E.png,sS,sS,mask-2.png,mask-4.png,h,0,0.5548500999575481,s,1,0.011058200034312904,0.04729930002940819,0.04905699996743351,0.10037659999215975,0.10026059998199344,0.30022910004481673
RSVPLG03,JM,20251027-114521,1.0.1,20251020-085245,716,Experiment,Both,1,Automatic,main,48,20251027-115039,local,local,300,H,H,A,A,A-H.png,A-H.png,hH,hH,mask-4.png,mask-3.png,s,0,1.0363261999445967,h,1,0.5264074000297114,0.04654939996544272,0.04573710000840947,0.0986511999508366,0.09848360001342371,0.2997021999908611
RSVPLG03,JM,20251027-114521,1.0.1,20251020-085245,716,Experiment,Both,1,Automatic,main,49,20251027-115044,global,local,300,H,H,E,E,H-E.png,E-H.png,hH,hH,mask-3.png,mask-4.png,h,1,0.8542255000211298,s,0,0.039115299994591624,0.04760809999424964,0.047360200027469546,0.09901329997228459,0.10030630003893748,0.2998603999731131
RSVPLG03,JM,20251027-114521,1.0.1,20251020-085245,716,Experiment,Both,1,Automatic,main,50,20251027-115049,local,local,300,S,S,E,A,E-S.png,A-S.png,sS,sS,mask-1.png,mask-1.png,s,1,0.7614029999822378,h,0,0.021874100028071553,0.04770290001761168,0.047806300048250705,0.09912240004632622,0.09982430003583431,0.2997031999984756
RSVPLG03,JM,20251027-114521,1.0.1,20251020-085245,716,Experiment,Both,1,Automatic,main,51,20251027-115055,global,local,300,S,H,E,E,S-E.png,E-H.png,sS,hH,mask-1.png,mask-4.png,h,0,0.614592999976594,h,1,0.10735629999544472,0.04731200000969693,0.047591299982741475,0.0994166000164114,0.09942789998603985,0.29915500001516193
RSVPLG03,JM,20251027-114521,1.0.1,20251020-085245,716,Experiment,Both,1,Automatic,main,52,20251027-115059,global,local,300,S,H,A,E,S-A.png,E-H.png,sS,hH,mask-4.png,mask-3.png,s,1,0.10735629999544472,s,0,0.6799296999815851,0.046711200033314526,0.04703509999671951,0.10061670001596212,0.0991799000184983,0.2996747000142932
RSVPLG03,JM,20251027-114521,1.0.1,20251020-085245,716,Experiment,Both,1,Automatic,main,53,20251027-115103,global,global,300,H,H,A,A,H-A.png,H-A.png,hH,hH,mask-3.png,mask-4.png,h,1,0.4556964000221342,h,1,0.08990999998059124,0.048896599968429655,0.047380800009705126,0.1002413000096567,0.09771939995698631,0.30121689999941736
RSVPLG03,JM,20251027-114521,1.0.1,20251020-085245,716,Experiment,Both,1,Automatic,main,54,20251027-115107,local,local,300,H,S,A,A,A-H.png,A-S.png,hH,sS,mask-2.png,mask-3.png,h,1,0.5064275999902748,h,0,0.09238839999306947,0.04851689998758957,0.047755900013726205,0.1007056999951601,0.10018670000135899,0.30099259997950867
RSVPLG03,JM,20251027-114521,1.0.1,20251020-085245,716,Experiment,Both,1,Automatic,main,55,20251027-115112,global,global,300,H,H,A,E,H-A.png,H-E.png,hH,hH,mask-2.png,mask-4.png,h,1,0.5310799999861047,h,1,0.08723770000506192,0.04866670002229512,0.045665600046049803,0.10089479997986928,0.09991810005158186,0.3013892999733798
RSVPLG03,JM,20251027-114521,1.0.1,20251020-085245,716,Experiment,Both,1,Automatic,main,56,20251027-115116,global,local,300,S,H,A,E,S-A.png,E-H.png,sS,hH,mask-1.png,mask-2.png,s,1,0.09628330002306029,h,1,0.45227190002333373,0.047551399969961494,0.0485375999705866,0.10161829995922744,0.10058399999979883,0.3002475000103004
RSVPLG03,JM,20251027-114521,1.0.1,20251020-085245,716,Experiment,Both,1,Automatic,main,57,20251027-115121,local,global,750,H,H,A,A,A-H.png,H-A.png,hH,hH,mask-2.png,mask-4.png,s,0,0.8521880999905989,h,1,0.002638300007674843,0.04774329997599125,0.047653800051193684,0.10200209997128695,0.1001797000062652,0.7516001999611035
RSVPLG03,JM,20251027-114521,1.0.1,20251020-085245,716,Experiment,Both,1,Automatic,main,58,20251027-115126,global,local,750,H,S,A,A,H-A.png,A-S.png,hH,sS,mask-1.png,mask-3.png,h,1,0.5948061000090092,h,0,0.13484010001411662,0.04774290003115311,0.04730030003702268,0.09923510003136471,0.09809069999027997,0.7515740999951959
RSVPLG03,JM,20251027-114521,1.0.1,20251020-085245,716,Experiment,Both,1,Automatic,main,59,20251027-115131,local,local,750,S,H,A,E,A-S.png,E-H.png,sS,hH,mask-4.png,mask-1.png,h,0,0.3621407999889925,s,0,1.108880500018131,0.04680950002511963,0.04834049998316914,0.09934860002249479,0.100551399984397,0.7492821000050753
RSVPLG03,JM,20251027-114521,1.0.1,20251020-085245,716,Experiment,Both,1,Automatic,main,60,20251027-115135,local,global,750,H,H,A,E,A-H.png,H-E.png,hH,hH,mask-4.png,mask-4.png,s,0,0.030454699997790158,h,1,0.027975199976935983,0.04578769998624921,0.046943900000769645,0.09878220001701266,0.09844869998050854,0.7495895000174642
RSVPLG03,JM,20251027-114521,1.0.1,20251020-085245,716,Experiment,Both,1,Automatic,main,61,20251027-115140,global,global,300,S,H,E,E,S-E.png,H-E.png,sS,hH,mask-4.png,mask-3.png,s,1,0.6673019000445493,h,1,0.006813300016801804,0.04742160002933815,0.04758730001049116,0.09978580003371462,0.10085019998950884,0.29825230001006275
RSVPLG03,JM,20251027-114521,1.0.1,20251020-085245,716,Experiment,Both,1,Automatic,main,62,20251027-115145,global,global,750,S,S,E,A,S-E.png,S-A.png,sS,sS,mask-1.png,mask-3.png,s,1,0.7882110000355169,s,1,0.7987554999999702,0.04854970000451431,0.048349699995014817,0.0997757000150159,0.10022600000957027,0.7504816000000574
RSVPLG03,JM,20251027-114521,1.0.1,20251020-085245,716,Experiment,Both,1,Automatic,main,63,20251027-115150,local,global,750,S,S,E,E,E-S.png,S-E.png,sS,sS,mask-1.png,mask-4.png,s,1,0.08177859999705106,h,0,0.9412075000000186,0.047514600038994104,0.04758330003824085,0.10069020005175844,0.09954810002818704,0.7502836000057869
RSVPLG03,JM,20251027-114521,1.0.1,20251020-085245,716,Experiment,Both,1,Automatic,main,64,20251027-115155,global,local,750,S,H,E,E,S-E.png,E-H.png,sS,hH,mask-2.png,mask-4.png,s,1,0.7073609000071883,s,0,0.6890019999700598,0.04772059997776523,0.04848530003800988,0.099992299976293,0.10149229998933151,0.7499513999791816
RSVPLG03,JM,20251027-114521,1.0.1,20251020-085245,716,Experiment,Both,1,Automatic,main,65,20251027-115200,local,local,750,S,S,E,E,E-S.png,E-S.png,sS,sS,mask-2.png,mask-3.png,s,1,0.13665850000688806,s,1,0.6759658000082709,0.04774589999578893,0.04850579996127635,0.09998250001808628,0.10180179995950311,0.7482131000142545
RSVPLG03,JM,20251027-114521,1.0.1,20251020-085245,716,Experiment,Both,1,Automatic,main,66,20251027-115205,local,local,300,S,H,E,E,E-S.png,E-H.png,sS,hH,mask-3.png,mask-2.png,multiple,-2,0.937063199991826,h,1,0.6650938999955542,0.04559019999578595,0.04713899997295812,0.0984465999645181,0.09992179996334016,0.2990252000163309
RSVPLG03,JM,20251027-114521,1.0.1,20251020-085245,716,Experiment,Both,1,Automatic,main,67,20251027-115210,global,global,300,H,H,E,A,H-E.png,H-A.png,hH,hH,mask-1.png,mask-1.png,h,1,0.5979036999633536,s,0,1.000853699981235,0.04635080002481118,0.04653559997677803,0.09991200000513345,0.0994784000213258,0.299552800017409
RSVPLG03,JM,20251027-114521,1.0.1,20251020-085245,716,Experiment,Both,1,Automatic,main,68,20251027-115215,global,global,300,S,S,E,A,S-E.png,S-A.png,sS,sS,mask-4.png,mask-3.png,s,1,0.09273340000072494,s,1,0.3853092999779619,0.048997400037478656,0.05001720000291243,0.09959180001169443,0.10113349999301136,0.2996922000311315
RSVPLG03,JM,20251027-114521,1.0.1,20251020-085245,716,Experiment,Both,1,Automatic,main,69,20251027-115219,local,local,300,S,H,A,E,A-S.png,E-H.png,sS,hH,mask-1.png,mask-4.png,s,1,0.09118930000113323,h,1,0.6846409999998286,0.047967699996661395,0.0479848999530077,0.10119710001163185,0.09961199999088421,0.3000824000337161
RSVPLG03,JM,20251027-114521,1.0.1,20251020-085245,716,Experiment,Both,1,Automatic,main,70,20251027-115225,global,local,300,H,H,A,E,H-A.png,E-H.png,hH,hH,mask-2.png,mask-4.png,h,1,0.7072539000073448,s,0,1.6850322000100277,0.04752970003755763,0.047161499969661236,0.09953659999882802,0.1001465999870561,0.2994705000310205
RSVPLG03,JM,20251027-114521,1.0.1,20251020-085245,716,Experiment,Both,1,Automatic,main,71,20251027-115229,local,global,300,H,S,E,E,E-H.png,S-E.png,hH,sS,mask-4.png,mask-2.png,s,0,0.04173799999989569,h,0,0.20449790003476664,0.04792789998464286,0.046960000006947666,0.10010669997427613,0.09967169997980818,0.30080379999708384
RSVPLG03,JM,20251027-114521,1.0.1,20251020-085245,716,Experiment,Both,1,Automatic,main,72,20251027-115234,global,local,750,H,S,A,E,H-A.png,E-S.png,hH,sS,mask-2.png,mask-3.png,h,1,0.5797275999793783,s,1,1.0753199000027962,0.04664199997205287,0.048317299981135875,0.09913349995622411,0.10047889995621517,0.7485927999950945
RSVPLG03,JM,20251027-114521,1.0.1,20251020-085245,716,Experiment,Both,1,Automatic,main,73,20251027-115239,local,local,300,H,S,A,E,A-H.png,E-S.png,hH,sS,mask-4.png,mask-1.png,h,1,0.46211960003711283,s,1,0.06110160000389442,0.04704380000475794,0.0475778000545688,0.09814739995636046,0.10053660004632547,0.29938339994987473
RSVPLG03,JM,20251027-114521,1.0.1,20251020-085245,716,Experiment,Both,1,Automatic,main,74,20251027-115243,local,global,750,H,S,E,A,E-H.png,S-A.png,hH,sS,mask-2.png,mask-1.png,s,0,0.03832120000151917,s,1,0.7963499000179581,0.04726919997483492,0.04624280001735315,0.10002229997189716,0.09777380002196878,0.750503099989146
RSVPLG03,JM,20251027-114521,1.0.1,20251020-085245,716,Experiment,Both,1,Automatic,main,75,20251027-115248,global,global,300,H,H,E,A,H-E.png,H-A.png,hH,hH,mask-1.png,mask-2.png,h,1,0.45357290003448725,h,1,0.09529779996955767,0.04662119998829439,0.04909990000305697,0.09834319999208674,0.10105840000323951,0.2981395999668166
RSVPLG03,JM,20251027-114521,1.0.1,20251020-085245,716,Experiment,Both,1,Automatic,main,76,20251027-115253,local,global,300,H,H,E,A,E-H.png,H-A.png,hH,hH,mask-1.png,mask-1.png,h,1,0.43906170001719147,s,0,0.0805067999754101,0.04712730000028387,0.0470500000519678,0.1002969000255689,0.09890550002455711,0.30157309997593984
