exp,exp_initials,runtime,ver,modtime,sub,blocktype,targets,cuetype,mode,trialtype,trial,trialtime,t1_level,t2_level,t2_lag,t1,t2,distractor1,distractor2,stimfile1,stimfile2,t1_corr,t2_corr,maskfile1,maskfile2,t1_resp,t1_acc,t1_rt,t2_resp,t2_acc,t2_rt,t1_dur,t2_dur,t1mask_soa,t2mask_soa,t1t2_soa
RSVPLG03,MR,20251014-102504,1.0.1,20251014-090324,703,Introduction,T1,1,Automatic,main,1,20251014-102542,local,global,750,H,H,E,E,E-H.png,H-E.png,hH,hH,mask-1.png,mask-2.png,h,1,10.025267099961638,none,-5,0,0.08940750011242926,0.09983090008608997,0.1895445000845939,0.19903460005298257,0.7387127000838518
RSVPLG03,MR,20251014-102504,1.0.1,20251014-090324,703,Introduction,T1,1,Automatic,main,2,20251014-102556,global,local,750,H,S,A,A,H-A.png,A-S.png,hH,sS,mask-1.png,mask-4.png,s,0,1.114706499967724,none,-5,0,0.10047970013692975,0.10072979982942343,0.1994256000034511,0.19851769995875657,0.7492516001220793
RSVPLG03,MR,20251014-102504,1.0.1,20251014-090324,703,Introduction,T1,1,Automatic,main,3,20251014-102601,local,global,750,S,S,E,A,E-S.png,S-A.png,sS,sS,mask-3.png,mask-2.png,s,1,0.6466041000094265,none,-5,0,0.09955710009671748,0.09989149984903634,0.1997024999000132,0.1995504000224173,0.7494312000926584
RSVPLG03,MR,20251014-102504,1.0.1,20251014-090324,703,Introduction,T1,1,Automatic,main,4,20251014-102606,global,local,750,S,S,A,A,S-A.png,A-S.png,sS,sS,mask-1.png,mask-4.png,s,1,0.42572679999284446,none,-5,0,0.09953919984400272,0.09822169994004071,0.20027159992605448,0.19825529982335865,0.749507199972868
RSVPLG03,MR,20251014-102504,1.0.1,20251014-090324,703,Introduction,T1,1,Automatic,main,5,20251014-102610,local,local,750,H,S,E,A,E-H.png,A-S.png,hH,sS,mask-2.png,mask-1.png,h,1,0.5234039998613298,none,-5,0,0.09980119997635484,0.09878859994933009,0.1997831000480801,0.19916149997152388,0.7501842998899519
RSVPLG03,MR,20251014-102504,1.0.1,20251014-090324,703,Introduction,T1,1,Automatic,main,6,20251014-102615,local,global,750,H,H,A,A,A-H.png,H-A.png,hH,hH,mask-4.png,mask-1.png,h,1,0.4579827000852674,none,-5,0,0.10053129983134568,0.10154189984314144,0.1988700998481363,0.20161190000362694,0.7477835000026971
RSVPLG03,MR,20251014-102504,1.0.1,20251014-090324,703,Introduction,T1,1,Automatic,main,7,20251014-102619,global,local,750,H,S,A,A,H-A.png,A-S.png,hH,sS,mask-3.png,mask-1.png,h,1,0.2657687000464648,none,-5,0,0.09699520003050566,0.09990909998305142,0.19616389996372163,0.19849819992668927,0.7466188999824226
RSVPLG03,MR,20251014-102504,1.0.1,20251014-090324,703,Introduction,T1,1,Automatic,main,8,20251014-102624,global,global,750,S,S,A,A,S-A.png,S-A.png,sS,sS,mask-2.png,mask-1.png,s,1,0.22138430015183985,none,-5,0,0.1006674999371171,0.09729130007326603,0.20015359995886683,0.1979437000118196,0.7499436000362039
RSVPLG03,MR,20251014-102504,1.0.1,20251014-090324,703,Introduction,T1,1,Automatic,main,9,20251014-102628,local,local,750,S,H,E,E,E-S.png,E-H.png,sS,hH,mask-3.png,mask-3.png,s,1,0.22570720012299716,none,-5,0,0.09801060007885098,0.09961869986727834,0.19916870002634823,0.19870269997045398,0.748106500133872
RSVPLG03,MR,20251014-102504,1.0.1,20251014-090324,703,Introduction,T1,1,Automatic,main,10,20251014-102633,local,local,750,H,H,A,A,A-H.png,A-H.png,hH,hH,mask-1.png,mask-1.png,h,1,0.03770500002428889,none,-5,0,0.09973160014487803,0.10135429981164634,0.19989549997262657,0.2013288999442011,0.7483263001777232
RSVPLG03,MR,20251014-102504,1.0.1,20251014-090324,703,Introduction,T1,1,Automatic,main,11,20251014-102637,local,local,750,H,S,E,E,E-H.png,E-S.png,hH,sS,mask-3.png,mask-1.png,s,0,0.7056870001833886,none,-5,0,0.09987099980935454,0.09952160017564893,0.19990250002592802,0.19955780007876456,0.7505772998556495
RSVPLG03,MR,20251014-102504,1.0.1,20251014-090324,703,Introduction,T1,1,Automatic,main,12,20251014-102642,local,global,750,S,H,E,E,E-S.png,H-E.png,sS,hH,mask-2.png,mask-2.png,s,1,0.2631895998492837,none,-5,0,0.09886780008673668,0.09941300004720688,0.19908170006237924,0.20070159994065762,0.7477357001043856
RSVPLG03,MR,20251014-102504,1.0.1,20251014-090324,703,Introduction,T1,1,Automatic,main,13,20251014-102646,global,global,750,S,H,E,E,S-E.png,H-E.png,sS,hH,mask-3.png,mask-2.png,s,1,0.26770669990219176,none,-5,0,0.0999503000639379,0.0968328001908958,0.200841800076887,0.19786380021832883,0.7516637998633087
RSVPLG03,MR,20251014-102504,1.0.1,20251014-090324,703,Introduction,T1,1,Automatic,main,14,20251014-102650,global,global,750,H,H,E,E,H-E.png,H-E.png,hH,hH,mask-3.png,mask-1.png,h,1,0.20092249987646937,none,-5,0,0.10178879997693002,0.10022530006244779,0.20179639989510179,0.19983520009554923,0.7505496998783201
RSVPLG03,MR,20251014-102504,1.0.1,20251014-090324,703,Introduction,T1,1,Automatic,main,15,20251014-102655,global,global,750,S,H,E,E,S-E.png,H-E.png,sS,hH,mask-1.png,mask-1.png,s,1,0.2625806999858469,none,-5,0,0.09918959997594357,0.09946390008553863,0.198767599882558,0.19935830007307231,0.7494796998798847
RSVPLG03,MR,20251014-102504,1.0.1,20251014-090324,703,Introduction,T1,1,Automatic,main,16,20251014-102659,global,local,750,H,S,A,A,H-A.png,A-S.png,hH,sS,mask-4.png,mask-3.png,h,1,0.21059220004826784,none,-5,0,0.09802059992216527,0.10053290007635951,0.1989114999305457,0.20053900009952486,0.7473504999652505
RSVPLG03,MR,20251014-102716,1.0.1,20251014-090324,703,Practice,T1,1,Automatic,main,1,20251014-102734,global,global,750,S,S,A,A,S-A.png,S-A.png,sS,sS,mask-2.png,mask-4.png,s,1,0.3104167999699712,none,-5,0,0.03998230001889169,0.0507366000674665,0.09115010011009872,0.09982730005867779,0.7412990999873728
RSVPLG03,MR,20251014-102716,1.0.1,20251014-090324,703,Practice,T1,1,Automatic,main,2,20251014-102738,local,local,750,S,S,A,E,A-S.png,E-S.png,sS,sS,mask-4.png,mask-1.png,s,1,0.233187299920246,none,-5,0,0.04955979995429516,0.0503782001323998,0.09877709997817874,0.09917900012806058,0.7491299998946488
RSVPLG03,MR,20251014-102716,1.0.1,20251014-090324,703,Practice,T1,1,Automatic,main,3,20251014-102743,local,global,300,H,S,E,A,E-H.png,S-A.png,hH,sS,mask-3.png,mask-2.png,h,1,0.48458309983834624,none,-5,0,0.04939459986053407,0.049447800032794476,0.09992669988423586,0.09998710011132061,0.2999147998634726
RSVPLG03,MR,20251014-102716,1.0.1,20251014-090324,703,Practice,T1,1,Automatic,main,4,20251014-102747,global,local,300,S,H,E,E,S-E.png,E-H.png,sS,hH,mask-4.png,mask-2.png,s,1,0.5530239001382142,none,-5,0,0.049840500112622976,0.04784279991872609,0.10081370011903346,0.09988899994641542,0.3007915001362562
RSVPLG03,MR,20251014-102716,1.0.1,20251014-090324,703,Practice,T1,1,Automatic,main,5,20251014-102751,global,local,300,S,S,A,A,S-A.png,A-S.png,sS,sS,mask-2.png,mask-2.png,s,1,0.4177210999187082,none,-5,0,0.04929849994368851,0.048553899861872196,0.098907700041309,0.09906259994022548,0.3000454001594335
RSVPLG03,MR,20251014-102716,1.0.1,20251014-090324,703,Practice,T1,1,Automatic,main,6,20251014-102755,local,local,750,S,H,A,A,A-S.png,A-H.png,sS,hH,mask-1.png,mask-3.png,s,1,0.17741829995065928,none,-5,0,0.05052529997192323,0.04967299988493323,0.09945730003528297,0.09894319996237755,0.7497890000231564
RSVPLG03,MR,20251014-102716,1.0.1,20251014-090324,703,Practice,T1,1,Automatic,main,7,20251014-102759,global,local,750,S,S,E,E,S-E.png,E-S.png,sS,sS,mask-3.png,mask-1.png,s,1,0.30262980004772544,none,-5,0,0.050400700187310576,0.04901190008968115,0.10009100008755922,0.09885330009274185,0.7506470000371337
RSVPLG03,MR,20251014-102716,1.0.1,20251014-090324,703,Practice,T1,1,Automatic,main,8,20251014-102803,local,global,300,H,S,E,A,E-H.png,S-A.png,hH,sS,mask-2.png,mask-1.png,h,1,0.5006911000236869,none,-5,0,0.049843600019812584,0.05044710007496178,0.10011280002072453,0.09993380005471408,0.2994045000523329
RSVPLG03,MR,20251014-102716,1.0.1,20251014-090324,703,Practice,T1,1,Automatic,main,9,20251014-102807,global,global,750,H,H,A,A,H-A.png,H-A.png,hH,hH,mask-1.png,mask-1.png,h,1,0.3641148000024259,none,-5,0,0.04988460009917617,0.04970960016362369,0.10002010012976825,0.09852110012434423,0.7498631000053138
RSVPLG03,MR,20251014-102716,1.0.1,20251014-090324,703,Practice,T1,1,Automatic,main,10,20251014-102811,global,local,750,H,S,E,A,H-E.png,A-S.png,hH,sS,mask-4.png,mask-2.png,h,1,0.3123643998987973,none,-5,0,0.04982509999535978,0.05070560006424785,0.09912390005774796,0.09952619997784495,0.7496964999008924
RSVPLG03,MR,20251014-102716,1.0.1,20251014-090324,703,Practice,T1,1,Automatic,main,11,20251014-102816,local,local,300,S,H,E,A,E-S.png,A-H.png,sS,hH,mask-1.png,mask-4.png,s,1,0.5913354000076652,none,-5,0,0.049463799921795726,0.05025269999168813,0.09869739995338023,0.0986198999453336,0.29934930009767413
RSVPLG03,MR,20251014-102716,1.0.1,20251014-090324,703,Practice,T1,1,Automatic,main,12,20251014-102820,global,global,300,S,H,A,A,S-A.png,H-A.png,sS,hH,mask-3.png,mask-4.png,s,1,0.7117457999847829,none,-5,0,0.044059199979528785,0.04995650006458163,0.09433500003069639,0.10047889989800751,0.2929219000507146
RSVPLG03,MR,20251014-102716,1.0.1,20251014-090324,703,Practice,T1,1,Automatic,main,13,20251014-102824,global,global,300,H,S,E,E,H-E.png,S-E.png,hH,sS,mask-2.png,mask-2.png,h,1,0.43617699993774295,none,-5,0,0.04983989987522364,0.049710899824276567,0.10058029997162521,0.1003709000069648,0.29966300004161894
RSVPLG03,MR,20251014-102716,1.0.1,20251014-090324,703,Practice,T1,1,Automatic,main,14,20251014-102828,local,local,300,H,S,E,A,E-H.png,A-S.png,hH,sS,mask-2.png,mask-3.png,h,1,0.675943500129506,none,-5,0,0.04995510005392134,0.05059600016102195,0.1001842999830842,0.10005980008281767,0.3002452999353409
RSVPLG03,MR,20251014-102716,1.0.1,20251014-090324,703,Practice,T1,1,Automatic,main,15,20251014-102832,local,global,750,H,H,A,A,A-H.png,H-A.png,hH,hH,mask-3.png,mask-1.png,h,1,0.3160347000230104,none,-5,0,0.04971859999932349,0.04870269983075559,0.098744299961254,0.09901469992473722,0.7499869000166655
RSVPLG03,MR,20251014-102716,1.0.1,20251014-090324,703,Practice,T1,1,Automatic,main,16,20251014-102836,local,global,750,S,S,E,A,E-S.png,S-A.png,sS,sS,mask-4.png,mask-4.png,s,1,0.5628269000444561,none,-5,0,0.04858849989250302,0.048611699836328626,0.09819179982878268,0.09961219993419945,0.749299000017345
RSVPLG03,MR,20251014-102948,1.0.1,20251014-090324,703,Introduction,Both,1,Automatic,main,1,20251014-103003,global,local,750,H,H,E,E,H-E.png,E-H.png,hH,hH,mask-3.png,mask-4.png,h,1,0.9144611998926848,h,1,0.651657700072974,0.09600650006905198,0.10159480012953281,0.19555609999224544,0.2010975000448525,0.745975400088355
RSVPLG03,MR,20251014-102948,1.0.1,20251014-090324,703,Introduction,Both,1,Automatic,main,2,20251014-103009,local,local,750,H,S,E,E,E-H.png,E-S.png,hH,sS,mask-3.png,mask-4.png,h,1,0.6669735999312252,s,1,1.4304794000927359,0.0998112999368459,0.10048140003345907,0.20174479996785522,0.20021819998510182,0.750048799905926
RSVPLG03,MR,20251014-102948,1.0.1,20251014-090324,703,Introduction,Both,1,Automatic,main,3,20251014-103015,local,local,750,H,S,A,E,A-H.png,E-S.png,hH,sS,mask-3.png,mask-4.png,h,1,0.5600300000514835,h,0,0.4877009999472648,0.10033239983022213,0.1007221001200378,0.20205979980528355,0.20069960015825927,0.7520535998046398
RSVPLG03,MR,20251014-102948,1.0.1,20251014-090324,703,Introduction,Both,1,Automatic,main,4,20251014-103021,local,local,750,H,H,E,A,E-H.png,A-H.png,hH,hH,mask-1.png,mask-2.png,h,1,0.4428095000330359,h,1,0.35944300005212426,0.0998062000144273,0.09967519994825125,0.19880550005473197,0.19838780001737177,0.7508171999361366
RSVPLG03,MR,20251014-102948,1.0.1,20251014-090324,703,Introduction,Both,1,Automatic,main,5,20251014-103026,global,global,750,H,H,A,E,H-A.png,H-E.png,hH,hH,mask-3.png,mask-2.png,h,1,0.3803087000269443,h,1,0.3595269999932498,0.1013130999635905,0.09991859993897378,0.20112910005263984,0.1990108999889344,0.7515942000318319
RSVPLG03,MR,20251014-102948,1.0.1,20251014-090324,703,Introduction,Both,1,Automatic,main,6,20251014-103031,global,local,750,S,H,E,E,S-E.png,E-H.png,sS,hH,mask-4.png,mask-4.png,s,1,0.9444077000953257,h,1,0.5826596000697464,0.10062349983491004,0.09971129987388849,0.2014993999619037,0.1995381999295205,0.7522336000110954
RSVPLG03,MR,20251014-102948,1.0.1,20251014-090324,703,Introduction,Both,1,Automatic,main,7,20251014-103036,global,global,750,H,H,A,A,H-A.png,H-A.png,hH,hH,mask-2.png,mask-1.png,h,1,0.403346800012514,h,1,0.24508719984441996,0.10066959983669221,0.0987343997694552,0.20086669991724193,0.19915049988776445,0.7514700000174344
RSVPLG03,MR,20251014-102948,1.0.1,20251014-090324,703,Introduction,Both,1,Automatic,main,8,20251014-103041,local,global,750,H,S,E,E,E-H.png,S-E.png,hH,sS,mask-4.png,mask-3.png,h,1,0.33006069995462894,s,1,0.39646459999494255,0.09986310009844601,0.09945099987089634,0.20078900014050305,0.19914729986339808,0.7506443001329899
RSVPLG03,MR,20251014-102948,1.0.1,20251014-090324,703,Introduction,Both,1,Automatic,main,9,20251014-103046,local,global,750,H,H,A,A,A-H.png,H-A.png,hH,hH,mask-4.png,mask-3.png,h,1,0.3064872999675572,h,1,0.14242570009082556,0.10044259997084737,0.0997647000476718,0.20103730005212128,0.19957669987343252,0.7521200000774115
RSVPLG03,MR,20251014-102948,1.0.1,20251014-090324,703,Introduction,Both,1,Automatic,main,10,20251014-103051,global,local,750,S,S,E,A,S-E.png,A-S.png,sS,sS,mask-2.png,mask-3.png,s,1,0.6972047998569906,h,0,0.3835938998963684,0.09987419983372092,0.10168590000830591,0.1992391999810934,0.20006800000555813,0.7497854998800904
RSVPLG03,MR,20251014-102948,1.0.1,20251014-090324,703,Introduction,Both,1,Automatic,main,11,20251014-103056,global,global,750,H,H,E,A,H-E.png,H-A.png,hH,hH,mask-2.png,mask-2.png,h,1,0.32268640003167093,h,1,0.0996791000943631,0.09936890006065369,0.10247749998234212,0.19992959988303483,0.19954390008933842,0.7502895998768508
RSVPLG03,MR,20251014-102948,1.0.1,20251014-090324,703,Introduction,Both,1,Automatic,main,12,20251014-103101,global,global,750,S,H,E,E,S-E.png,H-E.png,sS,hH,mask-3.png,mask-4.png,s,1,0.6852158999536186,h,1,0.3814767999574542,0.10163030005060136,0.1015580000821501,0.20032329997047782,0.20119559997692704,0.7517337999306619
RSVPLG03,MR,20251014-102948,1.0.1,20251014-090324,703,Introduction,Both,1,Automatic,main,13,20251014-103106,local,global,750,H,S,A,A,A-H.png,S-A.png,hH,sS,mask-1.png,mask-4.png,h,1,0.36039450019598007,s,1,0.590000000083819,0.10090299998410046,0.09994470002129674,0.2002206000033766,0.20096080005168915,0.752218599896878
RSVPLG03,MR,20251014-102948,1.0.1,20251014-090324,703,Introduction,Both,1,Automatic,main,14,20251014-103111,local,local,750,S,H,E,A,E-S.png,A-H.png,sS,hH,mask-4.png,mask-1.png,s,1,0.622773600043729,h,1,0.36645009997300804,0.0985737000592053,0.09999619983136654,0.20015159994363785,0.20047239982523024,0.7508859001100063
RSVPLG03,MR,20251014-102948,1.0.1,20251014-090324,703,Introduction,Both,1,Automatic,main,15,20251014-103116,global,local,750,S,S,A,A,S-A.png,A-S.png,sS,sS,mask-4.png,mask-1.png,s,1,0.7838647998869419,h,0,0.4313990999944508,0.09981700009666383,0.09892549994401634,0.19948210008442402,0.19894249993376434,0.7511035001371056
RSVPLG03,MR,20251014-102948,1.0.1,20251014-090324,703,Introduction,Both,1,Automatic,main,16,20251014-103122,local,global,750,S,H,E,E,E-S.png,H-E.png,sS,hH,mask-3.png,mask-3.png,s,1,0.6547478998545557,h,1,0.5437441000249237,0.09829210001043975,0.09967849985696375,0.19927090010605752,0.19986559986136854,0.7512861001305282
RSVPLG03,MR,20251014-103210,1.0.1,20251014-090324,703,Practice,Both,1,Automatic,main,1,20251014-103224,local,local,750,S,H,A,E,A-S.png,E-H.png,sS,hH,mask-4.png,mask-2.png,s,1,0.8465790001209825,h,1,0.32627369998954237,0.047732200007885695,0.04971499997191131,0.1000791999977082,0.10063990019261837,0.7481572998221964
RSVPLG03,MR,20251014-103210,1.0.1,20251014-090324,703,Practice,Both,1,Automatic,main,2,20251014-103229,local,local,300,S,S,A,A,A-S.png,A-S.png,sS,sS,mask-4.png,mask-3.png,s,1,0.731663899961859,h,0,0.31050399993546307,0.050779900047928095,0.049867400201037526,0.10052759991958737,0.09986440022476017,0.2999578998424113
RSVPLG03,MR,20251014-103210,1.0.1,20251014-090324,703,Practice,Both,1,Automatic,main,3,20251014-103234,global,local,750,H,H,E,E,H-E.png,E-H.png,hH,hH,mask-4.png,mask-2.png,h,1,0.5757569998968393,h,1,0.18351330002769828,0.04912839992903173,0.0507449998985976,0.1006392000708729,0.10026649991050363,0.7499947000760585
RSVPLG03,MR,20251014-103210,1.0.1,20251014-090324,703,Practice,Both,1,Automatic,main,4,20251014-103239,global,global,300,H,S,A,E,H-A.png,S-E.png,hH,sS,mask-1.png,mask-3.png,h,1,0.5690828000660986,s,1,0.25500190001912415,0.05071049998514354,0.049379399977624416,0.1009394999127835,0.09991060011088848,0.3010925999842584
RSVPLG03,MR,20251014-103210,1.0.1,20251014-090324,703,Practice,Both,1,Automatic,main,5,20251014-103243,local,global,300,S,S,E,A,E-S.png,S-A.png,sS,sS,mask-1.png,mask-3.png,s,1,0.7564520998857915,s,1,0.1276312000118196,0.04990900005213916,0.04991899989545345,0.0988544998690486,0.10094719985499978,0.29909450002014637
RSVPLG03,MR,20251014-103210,1.0.1,20251014-090324,703,Practice,Both,1,Automatic,main,6,20251014-103248,local,global,750,H,H,E,E,E-H.png,H-E.png,hH,hH,mask-4.png,mask-2.png,s,0,1.2355694000143558,h,1,0.26390379993245006,0.050606400007382035,0.05158909992314875,0.09913689992390573,0.10132029978558421,0.74880770011805
RSVPLG03,MR,20251014-103210,1.0.1,20251014-090324,703,Practice,Both,1,Automatic,main,7,20251014-103253,global,global,750,H,S,A,E,H-A.png,S-E.png,hH,sS,mask-1.png,mask-1.png,h,1,0.5576404000166804,s,1,0.2314673000946641,0.048709499882534146,0.05066439998336136,0.10039820009842515,0.10076779988594353,0.7497582000214607
RSVPLG03,MR,20251014-103210,1.0.1,20251014-090324,703,Practice,Both,1,Automatic,main,8,20251014-103258,global,local,300,H,S,A,E,H-A.png,E-S.png,hH,sS,mask-1.png,mask-4.png,h,1,0.6915966998785734,h,0,0.15695340000092983,0.05087750009261072,0.04941309988498688,0.09979630005545914,0.09847279987297952,0.3005413000937551
RSVPLG03,MR,20251014-103210,1.0.1,20251014-090324,703,Practice,Both,1,Automatic,main,9,20251014-103303,local,local,750,H,S,A,E,A-H.png,E-S.png,hH,sS,mask-3.png,mask-3.png,h,1,0.5030541000887752,s,1,0.34252250008285046,0.048426999943330884,0.05099239991977811,0.09993540006689727,0.10109469993039966,0.7478577999863774
RSVPLG03,MR,20251014-103210,1.0.1,20251014-090324,703,Practice,Both,1,Automatic,main,10,20251014-103308,global,local,750,H,S,E,A,H-E.png,A-S.png,hH,sS,mask-4.png,mask-2.png,h,1,0.6276940999086946,s,1,0.9896557000465691,0.04982200008817017,0.04973740014247596,0.09973039990291,0.0984104999806732,0.751369999954477
RSVPLG03,MR,20251014-103210,1.0.1,20251014-090324,703,Practice,Both,1,Automatic,main,11,20251014-103313,global,global,300,H,S,A,A,H-A.png,S-A.png,hH,sS,mask-4.png,mask-2.png,h,1,0.5042829001322389,s,1,0.2935071000829339,0.04869169997982681,0.04942649998702109,0.09949199995025992,0.10093219997361302,0.2981084000784904
RSVPLG03,MR,20251014-103210,1.0.1,20251014-090324,703,Practice,Both,1,Automatic,main,12,20251014-103318,local,local,300,S,S,A,A,A-S.png,A-S.png,sS,sS,mask-3.png,mask-2.png,s,1,0.6646807000506669,h,0,0.30368079990148544,0.048850399907678366,0.04967830004170537,0.09963339986279607,0.09871389996260405,0.30018140003085136
RSVPLG03,MR,20251014-103210,1.0.1,20251014-090324,703,Practice,Both,1,Automatic,main,13,20251014-103322,local,global,300,S,S,E,A,E-S.png,S-A.png,sS,sS,mask-1.png,mask-4.png,s,1,0.6458512998651713,s,1,0.08738659997470677,0.05036509991623461,0.050311800092458725,0.10017709992825985,0.10074199992232025,0.2996360999532044
RSVPLG03,MR,20251014-103210,1.0.1,20251014-090324,703,Practice,Both,1,Automatic,main,14,20251014-103327,global,global,750,H,H,E,A,H-E.png,H-A.png,hH,hH,mask-4.png,mask-2.png,h,1,0.3831537999212742,h,1,0.12018779991194606,0.04867970012128353,0.05087929987348616,0.10043860017322004,0.10024120006710291,0.7487558000721037
RSVPLG03,MR,20251014-103210,1.0.1,20251014-090324,703,Practice,Both,1,Automatic,main,15,20251014-103331,local,global,750,H,S,A,A,A-H.png,S-A.png,hH,sS,mask-4.png,mask-4.png,h,1,0.5683613999281079,s,1,0.24347159988246858,0.05043689999729395,0.048570699989795685,0.09893239988014102,0.09957489999942482,0.750594099983573
RSVPLG03,MR,20251014-103210,1.0.1,20251014-090324,703,Practice,Both,1,Automatic,main,16,20251014-103336,global,local,300,H,S,E,A,H-E.png,A-S.png,hH,sS,mask-4.png,mask-2.png,h,1,0.5467168998438865,s,1,0.27195369987748563,0.05066629988141358,0.0505813998170197,0.10014469991438091,0.10067590000107884,0.29926620004698634
RSVPLG03,MR,20251014-103522,1.0.1,20251014-090324,703,Experiment,Both,1,Automatic,warmup,1,20251014-103543,local,global,300,H,S,E,E,E-H.png,S-E.png,hH,sS,mask-2.png,mask-4.png,h,1,0.7535415999591351,s,1,0.2704710999969393,0.039941899944096804,0.04831210011616349,0.08998949988745153,0.09799739997833967,0.29104129993356764
RSVPLG03,MR,20251014-103522,1.0.1,20251014-090324,703,Experiment,Both,1,Automatic,warmup,2,20251014-103547,global,local,750,H,H,E,E,H-E.png,E-H.png,hH,hH,mask-2.png,mask-4.png,h,1,0.6133207001257688,s,0,0.4143972001038492,0.04893990000709891,0.0498842999804765,0.09789750003255904,0.10084520000964403,0.746783500071615
RSVPLG03,MR,20251014-103522,1.0.1,20251014-090324,703,Experiment,Both,1,Automatic,warmup,3,20251014-103552,global,local,300,H,H,A,A,H-A.png,A-H.png,hH,hH,mask-2.png,mask-3.png,h,1,0.5153041000012308,h,1,0.11966770002618432,0.050655600149184465,0.049384000012651086,0.10091100004501641,0.09929760009981692,0.30019069998525083
RSVPLG03,MR,20251014-103522,1.0.1,20251014-090324,703,Experiment,Both,1,Automatic,warmup,4,20251014-103556,local,local,300,H,H,A,A,A-H.png,A-H.png,hH,hH,mask-2.png,mask-2.png,h,1,0.38680610014125705,h,1,0.12939699995331466,0.050439200131222606,0.050430200062692165,0.09996320004574955,0.09997209999710321,0.299877000041306
RSVPLG03,MR,20251014-103522,1.0.1,20251014-090324,703,Experiment,Both,1,Automatic,warmup,5,20251014-103601,global,global,300,H,H,E,A,H-E.png,H-A.png,hH,hH,mask-1.png,mask-2.png,h,1,0.37459719995968044,h,1,0.07855829992331564,0.048465700121596456,0.05041869985871017,0.10000910004600883,0.09975950000807643,0.2981814001686871
RSVPLG03,MR,20251014-103522,1.0.1,20251014-090324,703,Experiment,Both,1,Automatic,main,6,20251014-103605,global,global,750,H,S,A,A,H-A.png,S-A.png,hH,sS,mask-2.png,mask-3.png,h,1,0.5120865001808852,s,1,0.4056698000058532,0.04869820014573634,0.051133899949491024,0.09821030008606613,0.10132929985411465,0.7463421002030373
RSVPLG03,MR,20251014-103522,1.0.1,20251014-090324,703,Experiment,Both,1,Automatic,main,7,20251014-103610,local,global,300,H,H,A,A,A-H.png,H-A.png,hH,hH,mask-2.png,mask-3.png,h,1,0.6443391002248973,s,0,0.2640555000398308,0.0487550999969244,0.04965290008112788,0.09861760004423559,0.10072079999372363,0.29892129986546934
RSVPLG03,MR,20251014-103522,1.0.1,20251014-090324,703,Experiment,Both,1,Automatic,main,8,20251014-103614,local,global,300,S,S,E,A,E-S.png,S-A.png,sS,sS,mask-4.png,mask-4.png,s,1,0.6954481999855489,h,0,0.3838639999739826,0.049684999976307154,0.04851990006864071,0.10017460002563894,0.09799870010465384,0.2996622999198735
RSVPLG03,MR,20251014-103522,1.0.1,20251014-090324,703,Experiment,Both,1,Automatic,main,9,20251014-103619,local,global,750,S,H,E,E,E-S.png,H-E.png,sS,hH,mask-4.png,mask-3.png,s,1,0.5764171001501381,h,1,0.4059733001049608,0.04939870000816882,0.05014170007780194,0.09993560006842017,0.1015354001428932,0.7473480999469757
RSVPLG03,MR,20251014-103522,1.0.1,20251014-090324,703,Experiment,Both,1,Automatic,main,10,20251014-103624,local,global,300,H,H,E,A,E-H.png,H-A.png,hH,hH,mask-2.png,mask-1.png,s,0,1.4952869000844657,h,1,0.47868579998612404,0.049929199973121285,0.05005039996467531,0.09985079988837242,0.10060539981350303,0.30009700008668005
RSVPLG03,MR,20251014-103522,1.0.1,20251014-090324,703,Experiment,Both,1,Automatic,main,11,20251014-103629,global,local,300,H,H,E,E,H-E.png,E-H.png,hH,hH,mask-1.png,mask-4.png,h,1,0.5924050000030547,s,0,0.36036320007406175,0.049827300012111664,0.04900830006226897,0.09984509996138513,0.10009199986234307,0.300048999954015
RSVPLG03,MR,20251014-103522,1.0.1,20251014-090324,703,Experiment,Both,1,Automatic,main,12,20251014-103634,local,local,750,S,S,A,A,A-S.png,A-S.png,sS,sS,mask-2.png,mask-4.png,s,1,0.7838852999266237,h,0,0.35457350010983646,0.049755699932575226,0.048869699938222766,0.09954099985770881,0.09831119980663061,0.749648500001058
RSVPLG03,MR,20251014-103522,1.0.1,20251014-090324,703,Experiment,Both,1,Automatic,main,13,20251014-103639,global,global,300,H,S,E,E,H-E.png,S-E.png,hH,sS,mask-4.png,mask-2.png,h,1,0.6907530000898987,s,1,0.309467599960044,0.04860180011019111,0.04848510003648698,0.10008760006166995,0.09971060021780431,0.29976389999501407
RSVPLG03,MR,20251014-103522,1.0.1,20251014-090324,703,Experiment,Both,1,Automatic,main,14,20251014-103644,local,local,300,S,H,A,E,A-S.png,E-H.png,sS,hH,mask-4.png,mask-1.png,s,1,1.0794553000014275,s,0,1.2165590000804514,0.049657899886369705,0.05067070014774799,0.09998419997282326,0.0999733000062406,0.2995346998795867
RSVPLG03,MR,20251014-103522,1.0.1,20251014-090324,703,Experiment,Both,1,Automatic,main,15,20251014-103650,local,local,300,S,S,A,A,A-S.png,A-S.png,sS,sS,mask-3.png,mask-4.png,s,1,0.6908408999443054,h,0,0.2995759998448193,0.04965689987875521,0.05068959994241595,0.10030709998682141,0.10135849984362721,0.2994909000117332
RSVPLG03,MR,20251014-103522,1.0.1,20251014-090324,703,Experiment,Both,1,Automatic,main,16,20251014-103654,local,global,750,H,S,E,A,E-H.png,S-A.png,hH,sS,mask-2.png,mask-2.png,h,1,1.092486600158736,s,1,0.24687210004776716,0.04888979997485876,0.050144199980422854,0.09866759995929897,0.10038920002989471,0.746503199916333
RSVPLG03,MR,20251014-103522,1.0.1,20251014-090324,703,Experiment,Both,1,Automatic,main,17,20251014-103700,global,global,750,S,H,A,A,S-A.png,H-A.png,sS,hH,mask-3.png,mask-3.png,s,1,0.6292643998749554,h,1,0.4030138999223709,0.04875209997408092,0.04970510001294315,0.09921610006131232,0.0985928000882268,0.7500262998510152
RSVPLG03,MR,20251014-103522,1.0.1,20251014-090324,703,Experiment,Both,1,Automatic,main,18,20251014-103705,local,global,750,S,S,E,A,E-S.png,S-A.png,sS,sS,mask-3.png,mask-1.png,s,1,0.6175490999594331,s,1,0.07985080010257661,0.05124430009163916,0.05158700002357364,0.10017340001650155,0.09990130015648901,0.7486334999557585
RSVPLG03,MR,20251014-103522,1.0.1,20251014-090324,703,Experiment,Both,1,Automatic,main,19,20251014-103710,local,global,750,S,H,E,E,E-S.png,H-E.png,sS,hH,mask-1.png,mask-4.png,s,1,0.6199344999622554,h,1,0.31981530017219484,0.04903599992394447,0.049714299850165844,0.09996619983576238,0.09987419983372092,0.7476182000245899
RSVPLG03,MR,20251014-103522,1.0.1,20251014-090324,703,Experiment,Both,1,Automatic,main,20,20251014-103715,global,local,750,H,S,E,E,H-E.png,E-S.png,hH,sS,mask-4.png,mask-1.png,s,0,1.2373269000090659,s,1,0.07942990004085004,0.050133900018408895,0.04903110000304878,0.10066160000860691,0.09982899995520711,0.7472287998534739
RSVPLG03,MR,20251014-103522,1.0.1,20251014-090324,703,Experiment,Both,1,Automatic,main,21,20251014-103720,local,local,300,S,S,E,A,E-S.png,A-S.png,sS,sS,mask-3.png,mask-4.png,s,1,0.9070896001067013,h,0,0.30944199999794364,0.05002920003607869,0.05005920003168285,0.09969589998945594,0.1007306999526918,0.2991051999852061
RSVPLG03,MR,20251014-103522,1.0.1,20251014-090324,703,Experiment,Both,1,Automatic,main,22,20251014-103725,local,local,300,H,H,E,E,E-H.png,E-H.png,hH,hH,mask-2.png,mask-2.png,h,1,1.2640180001035333,h,1,0.07794920005835593,0.04966349992901087,0.04963069991208613,0.09986190008930862,0.0990939000621438,0.29974859999492764
RSVPLG03,MR,20251014-103522,1.0.1,20251014-090324,703,Experiment,Both,1,Automatic,main,23,20251014-103730,global,global,750,H,H,E,A,H-E.png,H-A.png,hH,hH,mask-1.png,mask-2.png,h,1,0.3604361000470817,h,1,0.08695170003920794,0.0499036000110209,0.04832420009188354,0.0998923999723047,0.097673200070858,0.7493823999539018
RSVPLG03,MR,20251014-103522,1.0.1,20251014-090324,703,Experiment,Both,1,Automatic,main,24,20251014-103734,local,global,750,S,H,A,A,A-S.png,H-A.png,sS,hH,mask-1.png,mask-4.png,h,0,0.3088857000693679,h,1,0.06901899981312454,0.0488130000885576,0.04752619983628392,0.09959729993715882,0.09822040004655719,0.7483745000790805
RSVPLG03,MR,20251014-103522,1.0.1,20251014-090324,703,Experiment,Both,1,Automatic,main,25,20251014-103739,local,global,300,S,H,E,E,E-S.png,H-E.png,sS,hH,mask-4.png,mask-2.png,s,1,1.561158400028944,h,1,0.7179360999725759,0.0497359000146389,0.04965719999745488,0.1031074000056833,0.09919179999269545,0.29967130022123456
RSVPLG03,MR,20251014-103522,1.0.1,20251014-090324,703,Experiment,Both,1,Automatic,main,26,20251014-103749,global,global,750,S,H,A,E,S-A.png,H-E.png,sS,hH,mask-2.png,mask-2.png,s,1,0.7229399001225829,h,1,0.24796569999307394,0.04960869997739792,0.048911700025200844,0.10030099982395768,0.0987207000143826,0.7498988998122513
RSVPLG03,MR,20251014-103522,1.0.1,20251014-090324,703,Experiment,Both,1,Automatic,main,27,20251014-103754,global,local,750,H,S,E,E,H-E.png,E-S.png,hH,sS,mask-3.png,mask-4.png,h,1,0.365619600052014,s,1,0.2506236999761313,0.049528100062161684,0.049704200122505426,0.09821099997498095,0.09952739998698235,0.7482511999551207
RSVPLG03,MR,20251014-103522,1.0.1,20251014-090324,703,Experiment,Both,1,Automatic,main,28,20251014-103759,global,local,300,H,H,E,A,H-E.png,A-H.png,hH,hH,mask-2.png,mask-3.png,h,1,0.44474259996786714,h,1,0.16704429988749325,0.0512810000218451,0.049378800205886364,0.10009409999474883,0.10003209998831153,0.29995919996872544
RSVPLG03,MR,20251014-103522,1.0.1,20251014-090324,703,Experiment,Both,1,Automatic,main,29,20251014-103803,local,global,300,H,S,E,A,E-H.png,S-A.png,hH,sS,mask-4.png,mask-2.png,h,1,0.6327500001061708,s,1,0.2547229998745024,0.05071790004149079,0.04806739999912679,0.10055570001713932,0.09888289985246956,0.3010945999994874
RSVPLG03,MR,20251014-103522,1.0.1,20251014-090324,703,Experiment,Both,1,Automatic,main,30,20251014-103807,local,local,750,H,S,A,E,A-H.png,E-S.png,hH,sS,mask-3.png,mask-4.png,h,1,0.4338185000233352,s,1,0.25404000002890825,0.04903979995287955,0.049726299941539764,0.09928610012866557,0.09863419993780553,0.7496376000344753
RSVPLG03,MR,20251014-103522,1.0.1,20251014-090324,703,Experiment,Both,1,Automatic,main,31,20251014-103812,local,global,750,H,H,A,A,A-H.png,H-A.png,hH,hH,mask-1.png,mask-1.png,h,1,0.3312121001072228,h,1,0.09211129997856915,0.05006449995562434,0.04931759997271001,0.09941199980676174,0.09993689996190369,0.747141300002113
RSVPLG03,MR,20251014-103522,1.0.1,20251014-090324,703,Experiment,Both,1,Automatic,main,32,20251014-103817,local,local,300,H,H,A,A,A-H.png,A-H.png,hH,hH,mask-1.png,mask-4.png,h,1,0.8037326999474317,s,0,0.26266800006851554,0.04954100004397333,0.05001930007711053,0.10000019986182451,0.10015560011379421,0.29876869986765087
RSVPLG03,MR,20251014-103522,1.0.1,20251014-090324,703,Experiment,Both,1,Automatic,main,33,20251014-103821,global,global,300,H,S,A,E,H-A.png,S-E.png,hH,sS,mask-1.png,mask-3.png,h,1,0.5234375998843461,h,0,0.11115290015004575,0.04972080001607537,0.05011530010960996,0.10051840008236468,0.10035019996576011,0.2990510000381619
RSVPLG03,MR,20251014-103522,1.0.1,20251014-090324,703,Experiment,Both,1,Automatic,main,34,20251014-103825,global,local,300,H,S,E,A,H-E.png,A-S.png,hH,sS,mask-4.png,mask-3.png,h,1,0.3945895000360906,s,1,0.20595550001598895,0.0503430999815464,0.05074879992753267,0.09986359998583794,0.09923060005530715,0.30008159996941686
RSVPLG03,MR,20251014-103522,1.0.1,20251014-090324,703,Experiment,Both,1,Automatic,main,35,20251014-103830,global,global,300,S,H,E,E,S-E.png,H-E.png,sS,hH,mask-3.png,mask-4.png,s,1,0.5200615001376718,s,0,2.0633434001356363,0.05096770008094609,0.05048150010406971,0.09973160014487803,0.10107779991813004,0.29954960010945797
RSVPLG03,MR,20251014-103522,1.0.1,20251014-090324,703,Experiment,Both,1,Automatic,main,36,20251014-103836,local,local,300,S,S,A,E,A-S.png,E-S.png,sS,sS,mask-1.png,mask-3.png,s,1,0.5934795001521707,h,0,0.23844019998796284,0.05240719998255372,0.04938680003397167,0.09976749983616173,0.0981946000829339,0.2997897998429835
RSVPLG03,MR,20251014-103522,1.0.1,20251014-090324,703,Experiment,Both,1,Automatic,main,37,20251014-103840,local,local,750,H,S,A,E,A-H.png,E-S.png,hH,sS,mask-4.png,mask-1.png,h,1,0.652615400031209,s,1,0.2692839000374079,0.04962230008095503,0.04967639991082251,0.10030649998225272,0.09977569989860058,0.7485378000419587
RSVPLG03,MR,20251014-103522,1.0.1,20251014-090324,703,Experiment,Both,1,Automatic,main,38,20251014-103845,local,global,750,H,H,A,E,A-H.png,H-E.png,hH,hH,mask-3.png,mask-4.png,h,1,0.6264208999928087,h,1,0.08834789996035397,0.04871929995715618,0.04737780010327697,0.10050299996510148,0.09722260013222694,0.7499956998508424
RSVPLG03,MR,20251014-103522,1.0.1,20251014-090324,703,Experiment,Both,1,Automatic,main,39,20251014-103850,global,local,750,H,H,E,E,H-E.png,E-H.png,hH,hH,mask-3.png,mask-1.png,h,1,0.9509596999268979,h,1,0.8152327998541296,0.04970879992470145,0.051734100095927715,0.10048789996653795,0.10155620006844401,0.7479184998665005
RSVPLG03,MR,20251014-103522,1.0.1,20251014-090324,703,Experiment,Both,1,Automatic,main,40,20251014-103856,local,local,750,S,S,E,E,E-S.png,E-S.png,sS,sS,mask-3.png,mask-1.png,s,1,0.5718729000072926,s,1,0.07275820011273026,0.049797500018030405,0.04985320009291172,0.0994492000900209,0.09868820011615753,0.7480607000179589
RSVPLG03,MR,20251014-103522,1.0.1,20251014-090324,703,Experiment,Both,1,Automatic,main,41,20251014-103900,local,global,300,S,S,E,E,E-S.png,S-E.png,sS,sS,mask-1.png,mask-3.png,s,1,0.6607945000287145,s,1,0.08029259997420013,0.04614590015262365,0.04909350001253188,0.09648960013873875,0.09932519984431565,0.29635370010510087
RSVPLG03,MR,20251014-103522,1.0.1,20251014-090324,703,Experiment,Both,1,Automatic,main,42,20251014-103905,local,local,750,H,S,A,A,A-H.png,A-S.png,hH,sS,mask-2.png,mask-4.png,h,1,1.1383965001441538,h,0,0.06213349988684058,0.04952579992823303,0.04980999999679625,0.10005689994432032,0.09983329987153411,0.7485116000752896
RSVPLG03,MR,20251014-103522,1.0.1,20251014-090324,703,Experiment,Both,1,Automatic,main,43,20251014-103910,global,global,750,S,S,E,A,S-E.png,S-A.png,sS,sS,mask-3.png,mask-3.png,s,1,0.5495620998553932,s,1,0.0796326999552548,0.05007830006070435,0.05044709984213114,0.0999970999546349,0.09935379982925951,0.7486138001549989
RSVPLG03,MR,20251014-103522,1.0.1,20251014-090324,703,Experiment,Both,1,Automatic,main,44,20251014-103915,global,global,750,S,H,E,A,S-E.png,H-A.png,sS,hH,mask-2.png,mask-2.png,s,1,0.5964720000047237,h,1,0.29596280003897846,0.04972420004196465,0.04969060001894832,0.09956900007091463,0.09970470005646348,0.7474817000329494
RSVPLG03,MR,20251014-103522,1.0.1,20251014-090324,703,Experiment,Both,1,Automatic,main,45,20251014-103920,global,local,300,S,S,E,A,S-E.png,A-S.png,sS,sS,mask-1.png,mask-1.png,s,1,0.6574723001103848,h,0,0.6403689999133348,0.04964069998823106,0.05064589995890856,0.09935640008188784,0.09940720000304282,0.29928320017643273
RSVPLG03,MR,20251014-103522,1.0.1,20251014-090324,703,Experiment,Both,1,Automatic,main,46,20251014-103924,global,local,750,S,S,E,E,S-E.png,E-S.png,sS,sS,mask-1.png,mask-3.png,s,1,0.5243544999975711,s,1,0.07052109995856881,0.05046190018765628,0.05079080001451075,0.10059550008736551,0.10046019987203181,0.7482293001376092
RSVPLG03,MR,20251014-103522,1.0.1,20251014-090324,703,Experiment,Both,1,Automatic,main,47,20251014-103929,local,local,750,H,H,A,E,A-H.png,E-H.png,hH,hH,mask-2.png,mask-2.png,h,1,0.8854720999952406,s,0,1.1825216000434011,0.04900340014137328,0.04825590015389025,0.09840750019066036,0.0989073000382632,0.748385600047186
RSVPLG03,MR,20251014-103522,1.0.1,20251014-090324,703,Experiment,Both,1,Automatic,main,48,20251014-103935,local,global,300,H,S,A,E,A-H.png,S-E.png,hH,sS,mask-3.png,mask-3.png,h,1,0.8193587998393923,s,1,0.31884579989127815,0.04985099984332919,0.050668800016865134,0.0985997999086976,0.1009587999433279,0.298105499939993
RSVPLG03,MR,20251014-103522,1.0.1,20251014-090324,703,Experiment,Both,1,Automatic,main,49,20251014-103940,global,global,300,H,H,A,E,H-A.png,H-E.png,hH,hH,mask-1.png,mask-2.png,h,1,1.0351902002003044,h,1,0.05490850005298853,0.048665199894458055,0.050460899947211146,0.09896790003404021,0.09996349993161857,0.2981058000586927
RSVPLG03,MR,20251014-103522,1.0.1,20251014-090324,703,Experiment,Both,1,Automatic,main,50,20251014-103945,global,global,750,S,S,A,E,S-A.png,S-E.png,sS,sS,mask-3.png,mask-4.png,s,1,1.8982678002212197,h,0,0.31831260002218187,0.04841460008174181,0.05083710001781583,0.09885840001516044,0.10084359999746084,0.7479423000477254
RSVPLG03,MR,20251014-103522,1.0.1,20251014-090324,703,Experiment,Both,1,Automatic,main,51,20251014-103952,local,local,750,H,H,E,E,E-H.png,E-H.png,hH,hH,mask-1.png,mask-2.png,s,0,1.2566120000556111,h,1,0.2798246000893414,0.04827519995160401,0.048730599926784635,0.09966830001212656,0.09854319994337857,0.7484385999850929
RSVPLG03,MR,20251014-103522,1.0.1,20251014-090324,703,Experiment,Both,1,Automatic,main,52,20251014-103957,global,local,750,H,S,A,A,H-A.png,A-S.png,hH,sS,mask-2.png,mask-3.png,h,1,0.6916142001282424,h,0,0.07095339987426996,0.05168419983237982,0.04816969996318221,0.10151089983992279,0.09885249985381961,0.7498004999943078
RSVPLG03,MR,20251014-103522,1.0.1,20251014-090324,703,Experiment,Both,1,Automatic,main,53,20251014-104002,global,local,750,S,H,E,E,S-E.png,E-H.png,sS,hH,mask-2.png,mask-4.png,s,1,1.0408785999752581,h,1,0.24684889987111092,0.04896380007266998,0.050196200143545866,0.09916960005648434,0.09942940017208457,0.7491532999556512
RSVPLG03,MR,20251014-103522,1.0.1,20251014-090324,703,Experiment,Both,1,Automatic,main,54,20251014-104007,local,global,300,S,S,A,A,A-S.png,S-A.png,sS,sS,mask-4.png,mask-1.png,s,1,0.6672506998293102,h,0,1.4622536001261324,0.049946799874305725,0.05071859993040562,0.09863099991343915,0.09906099992804229,0.2986967999022454
RSVPLG03,MR,20251014-103522,1.0.1,20251014-090324,703,Experiment,Both,1,Automatic,main,55,20251014-104013,global,local,750,S,S,E,A,S-E.png,A-S.png,sS,sS,mask-1.png,mask-2.png,s,1,0.8767790000420064,s,1,0.30152829992584884,0.0485495999455452,0.05087639996781945,0.09826770005747676,0.09916170011274517,0.7468077000230551
RSVPLG03,MR,20251014-103522,1.0.1,20251014-090324,703,Experiment,Both,1,Automatic,main,56,20251014-104019,global,local,300,S,H,E,A,S-E.png,A-H.png,sS,hH,mask-4.png,mask-3.png,s,1,0.692572700092569,h,1,0.3273056000471115,0.05065319989807904,0.051008200040087104,0.10034230002202094,0.1007054999936372,0.29965880000963807
RSVPLG03,MR,20251014-103522,1.0.1,20251014-090324,703,Experiment,Both,1,Automatic,main,57,20251014-104023,global,global,750,H,H,A,E,H-A.png,H-E.png,hH,hH,mask-3.png,mask-2.png,h,1,0.39864639984443784,h,1,0.08457890013232827,0.0486926999874413,0.04939240007661283,0.10054260003380477,0.09852729993872344,0.7483268000651151
RSVPLG03,MR,20251014-103522,1.0.1,20251014-090324,703,Experiment,Both,1,Automatic,main,58,20251014-104028,local,global,300,H,H,E,A,E-H.png,H-A.png,hH,hH,mask-1.png,mask-3.png,s,0,1.266035299981013,h,1,0.3447525000665337,0.049491599900648,0.05056059989146888,0.09941029991023242,0.10051060002297163,0.2995456999633461
RSVPLG03,MR,20251014-103522,1.0.1,20251014-090324,703,Experiment,Both,1,Automatic,main,59,20251014-104033,local,global,750,H,H,E,E,E-H.png,H-E.png,hH,hH,mask-4.png,mask-2.png,h,1,0.9009075998328626,h,1,0.07015129993669689,0.04842939996160567,0.048616599990054965,0.09868520009331405,0.10004399996250868,0.7476926001254469
RSVPLG03,MR,20251014-103522,1.0.1,20251014-090324,703,Experiment,Both,1,Automatic,main,60,20251014-104038,global,local,750,H,S,E,E,H-E.png,E-S.png,hH,sS,mask-4.png,mask-2.png,h,1,0.7014740000013262,h,0,0.08845810010097921,0.04983959998935461,0.049786899937316775,0.1000216999091208,0.09991500014439225,0.7484412998892367
RSVPLG03,MR,20251014-103522,1.0.1,20251014-090324,703,Experiment,Both,1,Automatic,main,61,20251014-104043,global,local,300,H,H,A,A,H-A.png,A-H.png,hH,hH,mask-4.png,mask-2.png,h,1,0.9396603000350296,h,1,0.093313799938187,0.04807929997332394,0.04978220001794398,0.09901169990189373,0.10012630000710487,0.2971502000000328
RSVPLG03,MR,20251014-103522,1.0.1,20251014-090324,703,Experiment,Both,1,Automatic,main,62,20251014-104047,local,local,300,S,S,A,A,A-S.png,A-S.png,sS,sS,mask-2.png,mask-4.png,h,0,0.42622889997437596,h,0,0.08782720007002354,0.050173900090157986,0.050521699944511056,0.09850520011968911,0.1011073999106884,0.298046600073576
RSVPLG03,MR,20251014-103522,1.0.1,20251014-090324,703,Experiment,Both,1,Automatic,main,63,20251014-104051,global,global,300,H,H,A,A,H-A.png,H-A.png,hH,hH,mask-1.png,mask-1.png,h,1,2.5701577998697758,h,1,0.048022199887782335,0.050115999998524785,0.05091420002281666,0.10019519994966686,0.09885129984468222,0.29919510008767247
RSVPLG03,MR,20251014-103522,1.0.1,20251014-090324,703,Experiment,Both,1,Automatic,main,64,20251014-104058,global,local,300,S,S,A,A,S-A.png,A-S.png,sS,sS,mask-3.png,mask-2.png,s,1,0.7111442000605166,h,0,0.3365911999717355,0.049761699978262186,0.05027040001004934,0.09958849987015128,0.09899029997177422,0.29910339997150004
RSVPLG03,MR,20251014-103522,1.0.1,20251014-090324,703,Experiment,Both,1,Automatic,main,65,20251014-104102,global,local,750,S,H,E,E,S-E.png,E-H.png,sS,hH,mask-3.png,mask-4.png,s,1,1.4774142000824213,s,0,0.23160200007259846,0.04917749995365739,0.05058449995703995,0.09949690010398626,0.09987209993414581,0.7480504000559449
RSVPLG03,MR,20251014-103522,1.0.1,20251014-090324,703,Experiment,Both,1,Automatic,main,66,20251014-104108,global,global,750,H,S,A,A,H-A.png,S-A.png,hH,sS,mask-3.png,mask-4.png,h,1,0.6446672000456601,s,1,0.28190529998391867,0.050338299944996834,0.049707100028172135,0.09995629987679422,0.0992181000765413,0.7491112998686731
RSVPLG03,MR,20251014-103522,1.0.1,20251014-090324,703,Experiment,Both,1,Automatic,main,67,20251014-104113,local,global,750,S,S,A,A,A-S.png,S-A.png,sS,sS,mask-3.png,mask-3.png,h,0,0.6270944999996573,s,1,0.25518950005061924,0.04994529997929931,0.049919100012630224,0.09904509992338717,0.09973250003531575,0.7484298998024315
RSVPLG03,MR,20251014-103522,1.0.1,20251014-090324,703,Experiment,Both,1,Automatic,main,68,20251014-104118,local,local,750,S,S,A,E,A-S.png,E-S.png,sS,sS,mask-1.png,mask-1.png,s,1,0.8980588000267744,h,0,0.276871400186792,0.04974799999035895,0.0497084001544863,0.09843809995800257,0.09945240011438727,0.7486647998448461
RSVPLG03,MR,20251014-103522,1.0.1,20251014-090324,703,Experiment,Both,1,Automatic,main,69,20251014-104123,local,local,300,S,S,A,E,A-S.png,E-S.png,sS,sS,mask-4.png,mask-1.png,s,1,0.8704190999269485,h,0,0.21430410002358258,0.04866340011358261,0.04969149990938604,0.0983812001068145,0.09810539986938238,0.29873730009421706
RSVPLG03,MR,20251014-103522,1.0.1,20251014-090324,703,Experiment,Both,1,Automatic,main,70,20251014-104128,global,global,750,H,H,A,A,H-A.png,H-A.png,hH,hH,mask-1.png,mask-4.png,h,1,0.5464388998225331,h,1,0.08432500017806888,0.05039200000464916,0.04985770001076162,0.10015520011074841,0.10088059981353581,0.7490221001207829
RSVPLG03,MR,20251014-103522,1.0.1,20251014-090324,703,Experiment,Both,1,Automatic,main,71,20251014-104133,local,local,300,H,H,E,A,E-H.png,A-H.png,hH,hH,mask-2.png,mask-4.png,h,1,1.6574441001284868,h,1,0.1205124999396503,0.05125250015407801,0.04809840000234544,0.09995330008678138,0.09943930013105273,0.3002563000191003
RSVPLG03,MR,20251014-103522,1.0.1,20251014-090324,703,Experiment,Both,1,Automatic,main,72,20251014-104138,global,global,300,H,S,E,E,H-E.png,S-E.png,hH,sS,mask-3.png,mask-3.png,h,1,0.9078957000747323,s,1,0.29427559999749064,0.048740699887275696,0.049071399960666895,0.09901469992473722,0.09924459992907941,0.2993606999516487
RSVPLG03,MR,20251014-103522,1.0.1,20251014-090324,703,Experiment,Both,1,Automatic,main,73,20251014-104143,global,local,750,S,H,A,E,S-A.png,E-H.png,sS,hH,mask-3.png,mask-2.png,s,1,1.2536488000769168,h,1,0.35534470016136765,0.04874759982340038,0.0499700999353081,0.09963549999520183,0.10047249984927475,0.7475688999984413
RSVPLG03,MR,20251014-103522,1.0.1,20251014-090324,703,Experiment,Both,1,Automatic,main,74,20251014-104148,local,local,300,S,H,E,A,E-S.png,A-H.png,sS,hH,mask-1.png,mask-2.png,s,1,0.638712199870497,h,1,0.40858539985492826,0.04888639994896948,0.04995370004326105,0.09893290000036359,0.09999620006419718,0.2987791998311877
RSVPLG03,MR,20251014-103522,1.0.1,20251014-090324,703,Experiment,Both,1,Automatic,main,75,20251014-104153,global,global,750,S,S,A,A,S-A.png,S-A.png,sS,sS,mask-1.png,mask-1.png,s,1,0.7040953999385238,s,1,0.07743249996565282,0.0502534001134336,0.048514500027522445,0.10059779998846352,0.09968400001525879,0.7491707000881433
RSVPLG03,MR,20251014-103522,1.0.1,20251014-090324,703,Experiment,Both,1,Automatic,main,76,20251014-104159,local,global,300,H,H,A,E,A-H.png,H-E.png,hH,hH,mask-4.png,mask-4.png,h,1,0.5610442999750376,s,0,0.26973149995319545,0.04861870012246072,0.05036900006234646,0.10012680012732744,0.09982639993540943,0.29810980008915067
RSVPLG03,MR,20251014-103522,1.0.1,20251014-090324,703,Experiment,Both,1,Automatic,main,77,20251014-104204,global,local,300,S,H,A,A,S-A.png,A-H.png,sS,hH,mask-1.png,mask-1.png,s,1,0.6400471001397818,h,1,0.38255039998330176,0.04965039994567633,0.049807900097221136,0.09986230009235442,0.10100310016423464,0.3001214999239892
RSVPLG03,MR,20251014-103522,1.0.1,20251014-090324,703,Experiment,Both,1,Automatic,main,78,20251014-104208,local,local,750,S,H,E,A,E-S.png,A-H.png,sS,hH,mask-2.png,mask-4.png,s,1,0.7226682999171317,h,1,0.28844769997522235,0.04969009989872575,0.048138200072571635,0.09942799992859364,0.0983818001113832,0.7487047999165952
RSVPLG03,MR,20251014-103522,1.0.1,20251014-090324,703,Experiment,Both,1,Automatic,main,79,20251014-104213,global,global,300,H,S,A,E,H-A.png,S-E.png,hH,sS,mask-3.png,mask-2.png,h,1,0.6851737000979483,h,0,0.07678049989044666,0.050457300152629614,0.0497789999935776,0.10112370015121996,0.0985111000481993,0.2997804000042379
RSVPLG03,MR,20251014-103522,1.0.1,20251014-090324,703,Experiment,Both,1,Automatic,main,80,20251014-104218,local,global,300,S,S,E,A,E-S.png,S-A.png,sS,sS,mask-4.png,mask-4.png,s,1,0.6766250999644399,s,1,0.07068310002796352,0.04854829981923103,0.04923469992354512,0.09898609993979335,0.0992622000630945,0.29950589989311993
RSVPLG03,MR,20251014-103522,1.0.1,20251014-090324,703,Experiment,Both,1,Automatic,main,81,20251014-104222,global,global,300,S,H,E,A,S-E.png,H-A.png,sS,hH,mask-2.png,mask-3.png,s,1,0.667272699996829,h,1,0.3184770999941975,0.049952999921515584,0.049083099933341146,0.1007264000363648,0.09887020010501146,0.30119209992699325
RSVPLG03,MR,20251014-103522,1.0.1,20251014-090324,703,Experiment,Both,1,Automatic,main,82,20251014-104227,global,global,300,H,S,A,E,H-A.png,S-E.png,hH,sS,mask-4.png,mask-1.png,h,1,0.6579545999411494,s,1,0.2733724000863731,0.05068959994241595,0.05031699989922345,0.0994531000033021,0.10076220007613301,0.2986735000740737
RSVPLG03,MR,20251014-103522,1.0.1,20251014-090324,703,Experiment,Both,1,Automatic,main,83,20251014-104231,global,global,300,S,S,E,A,S-E.png,S-A.png,sS,sS,mask-4.png,mask-4.png,s,1,1.744169699959457,h,0,0.2314102000091225,0.04965880000963807,0.04960559983737767,0.10101640014909208,0.09928999980911613,0.2997706001624465
RSVPLG03,MR,20251014-103522,1.0.1,20251014-090324,703,Experiment,Both,1,Automatic,main,84,20251014-104237,local,local,750,H,S,A,E,A-H.png,E-S.png,hH,sS,mask-2.png,mask-2.png,h,1,0.6599987999070436,s,1,0.21671429998241365,0.049199100118130445,0.050011200131848454,0.10061120009049773,0.10093510011211038,0.7480081000830978
RSVPLG03,MR,20251014-103522,1.0.1,20251014-090324,703,Experiment,Both,1,Automatic,main,85,20251014-104242,global,local,750,H,S,A,A,H-A.png,A-S.png,hH,sS,mask-2.png,mask-2.png,h,1,0.858628099784255,h,0,1.0703314999118447,0.050709899980574846,0.04997849999926984,0.09951870003715158,0.09958490007556975,0.7484112000092864
RSVPLG03,MR,20251014-103522,1.0.1,20251014-090324,703,Experiment,Both,1,Automatic,main,86,20251014-104248,local,local,750,H,S,E,E,E-H.png,E-S.png,hH,sS,mask-1.png,mask-1.png,s,0,0.7877062000334263,s,1,0.06992989988066256,0.04969859984703362,0.0482095000334084,0.09949609986506402,0.09845390007831156,0.7496139998547733
RSVPLG03,MR,20251014-103522,1.0.1,20251014-090324,703,Experiment,Both,1,Automatic,main,87,20251014-104253,global,local,300,H,S,A,A,H-A.png,A-S.png,hH,sS,mask-3.png,mask-1.png,h,1,0.5052028999198228,h,0,0.15584370004944503,0.05151270003989339,0.049496900057420135,0.09967399993911386,0.10001630010083318,0.29970799991860986
RSVPLG03,MR,20251014-103522,1.0.1,20251014-090324,703,Experiment,Both,1,Automatic,main,88,20251014-104257,global,local,750,H,H,E,A,H-E.png,A-H.png,hH,hH,mask-4.png,mask-1.png,h,1,0.3187237000092864,h,1,0.09827390010468662,0.04941700003109872,0.05029859999194741,0.1006164001300931,0.099328099982813,0.748737100046128
RSVPLG03,MR,20251014-103522,1.0.1,20251014-090324,703,Experiment,Both,1,Automatic,main,89,20251014-104301,global,local,300,H,S,E,E,H-E.png,E-S.png,hH,sS,mask-4.png,mask-1.png,h,1,1.0697296999860555,s,1,0.24691520002670586,0.051438899943605065,0.05096699995920062,0.10095990006811917,0.09950489993207157,0.2998983000870794
RSVPLG03,MR,20251014-103522,1.0.1,20251014-090324,703,Experiment,Both,1,Automatic,main,90,20251014-104306,local,global,750,S,H,E,A,E-S.png,H-A.png,sS,hH,mask-1.png,mask-3.png,s,1,0.7272884999401867,h,1,0.3121355001349002,0.05068999994546175,0.051244799979031086,0.09996160003356636,0.09990359982475638,0.7484164000488818
RSVPLG03,MR,20251014-103522,1.0.1,20251014-090324,703,Experiment,Both,1,Automatic,main,91,20251014-104311,local,local,300,H,H,A,E,A-H.png,E-H.png,hH,hH,mask-1.png,mask-2.png,h,1,0.9328813999891281,s,0,0.23028259980492294,0.048909599892795086,0.04993370012380183,0.09887890005484223,0.09995119995437562,0.2986896999645978
RSVPLG03,MR,20251014-103522,1.0.1,20251014-090324,703,Experiment,Both,1,Automatic,main,92,20251014-104316,global,local,300,H,S,E,A,H-E.png,A-S.png,hH,sS,mask-4.png,mask-4.png,h,1,0.5883136000484228,s,1,0.23769199987873435,0.050603700103238225,0.04927970003336668,0.10043930006213486,0.10003029997460544,0.30082230013795197
RSVPLG03,MR,20251014-103522,1.0.1,20251014-090324,703,Experiment,Both,1,Automatic,main,93,20251014-104321,global,local,750,H,S,E,E,H-E.png,E-S.png,hH,sS,mask-4.png,mask-4.png,h,1,0.6645054998807609,s,1,0.37396190012805164,0.049717900110408664,0.04947710013948381,0.10060030012391508,0.09923300007358193,0.7488869000226259
RSVPLG03,MR,20251014-103522,1.0.1,20251014-090324,703,Experiment,Both,1,Automatic,main,94,20251014-104326,global,global,300,S,S,A,A,S-A.png,S-A.png,sS,sS,mask-3.png,mask-4.png,s,1,0.7014790000393987,s,1,0.07028259988874197,0.04905580007471144,0.04967239988036454,0.09978469996713102,0.09859219985082746,0.299089000094682
RSVPLG03,MR,20251014-103522,1.0.1,20251014-090324,703,Experiment,Both,1,Automatic,main,95,20251014-104330,global,local,300,H,H,A,A,H-A.png,A-H.png,hH,hH,mask-3.png,mask-4.png,h,1,0.7696973998099566,s,0,0.2553496998734772,0.049917199881747365,0.051240900065749884,0.09902699990198016,0.10202470002695918,0.2986729999538511
RSVPLG03,MR,20251014-103522,1.0.1,20251014-090324,703,Experiment,Both,1,Automatic,main,96,20251014-104335,global,local,300,S,H,E,E,S-E.png,E-H.png,sS,hH,mask-3.png,mask-4.png,s,1,0.5700590999331325,h,1,0.30906130000948906,0.050743200117722154,0.05149520002305508,0.10094780009239912,0.10095399990677834,0.2986467001028359
RSVPLG03,MR,20251014-103522,1.0.1,20251014-090324,703,Experiment,Both,1,Automatic,main,97,20251014-104339,local,global,750,H,H,A,E,A-H.png,H-E.png,hH,hH,mask-2.png,mask-2.png,h,1,0.4231312999036163,h,1,0.07823080010712147,0.051415299996733665,0.049372300039976835,0.10052390000782907,0.09918430005200207,0.7482731998898089
RSVPLG03,MR,20251014-103522,1.0.1,20251014-090324,703,Experiment,Both,1,Automatic,main,98,20251014-104344,local,local,750,H,S,A,A,A-H.png,A-S.png,hH,sS,mask-4.png,mask-2.png,h,1,0.9094046999234706,h,0,1.4046551000792533,0.04927469999529421,0.04931000014767051,0.0998114999383688,0.0992762001696974,0.7493292998988181
RSVPLG03,MR,20251014-103522,1.0.1,20251014-090324,703,Experiment,Both,1,Automatic,main,99,20251014-104350,local,local,300,H,H,E,E,E-H.png,E-H.png,hH,hH,mask-1.png,mask-4.png,h,1,1.0529018000233918,h,1,0.07920180005021393,0.05065620015375316,0.05043280008248985,0.09986660000868142,0.1016629000660032,0.29811710002832115
RSVPLG03,MR,20251014-103522,1.0.1,20251014-090324,703,Experiment,Both,1,Automatic,main,100,20251014-104355,global,local,300,H,H,E,A,H-E.png,A-H.png,hH,hH,mask-1.png,mask-3.png,h,1,0.45551540004089475,h,1,0.08653119998052716,0.05210239998996258,0.04896219982765615,0.10020549991168082,0.09828439983539283,0.3001310001127422
RSVPLG03,MR,20251014-103522,1.0.1,20251014-090324,703,Experiment,Both,1,Automatic,main,101,20251014-104400,local,local,300,S,S,A,A,A-S.png,A-S.png,sS,sS,mask-3.png,mask-1.png,h,0,0.44573840009979904,h,0,0.10370979993604124,0.04953689989633858,0.04841320007108152,0.09859599987976253,0.09888479998335242,0.29962319997139275
RSVPLG03,MR,20251014-103522,1.0.1,20251014-090324,703,Experiment,Both,1,Automatic,main,102,20251014-104404,global,global,300,H,S,E,A,H-E.png,S-A.png,hH,sS,mask-1.png,mask-4.png,h,1,0.5084201998542994,s,1,0.16441980004310608,0.0515147999394685,0.04910770012065768,0.10104819992557168,0.09882050007581711,0.3009879000019282
RSVPLG03,MR,20251014-103522,1.0.1,20251014-090324,703,Experiment,Both,1,Automatic,main,103,20251014-104408,local,local,750,H,S,A,A,A-H.png,A-S.png,hH,sS,mask-4.png,mask-1.png,h,1,0.5182886000256985,s,1,0.16029209992848337,0.04989939997904003,0.04988010018132627,0.09982290002517402,0.09978910000063479,0.7477777998428792
RSVPLG03,MR,20251014-103522,1.0.1,20251014-090324,703,Experiment,Both,1,Automatic,main,104,20251014-104413,global,global,750,H,H,A,A,H-A.png,H-A.png,hH,hH,mask-4.png,mask-3.png,h,1,0.42060360009782016,h,1,0.053797599859535694,0.04970579990185797,0.05054030008614063,0.09837949997745454,0.10123379994183779,0.7479262999258935
RSVPLG03,MR,20251014-103522,1.0.1,20251014-090324,703,Experiment,Both,1,Automatic,main,105,20251014-104417,local,global,750,S,S,E,A,E-S.png,S-A.png,sS,sS,mask-1.png,mask-1.png,s,1,0.8761169998906553,s,1,0.05795549997128546,0.04830670007504523,0.04956139996647835,0.09959910018369555,0.10018099984154105,0.7476056001614779
RSVPLG03,MR,20251014-103522,1.0.1,20251014-090324,703,Experiment,Both,1,Automatic,main,106,20251014-104422,global,global,750,H,H,A,E,H-A.png,H-E.png,hH,hH,mask-4.png,mask-1.png,h,1,0.27248180005699396,h,1,0.06312950002029538,0.0502664998639375,0.048725200118497014,0.09938919986598194,0.0985676001291722,0.7490995998959988
RSVPLG03,MR,20251014-103522,1.0.1,20251014-090324,703,Experiment,Both,1,Automatic,main,107,20251014-104427,global,global,300,S,S,E,E,S-E.png,S-E.png,sS,sS,mask-2.png,mask-3.png,s,1,0.7056356000248343,s,1,0.04621490021236241,0.048158999998122454,0.05016929982230067,0.09844820015132427,0.09944039979018271,0.2983716002199799
RSVPLG03,MR,20251014-103522,1.0.1,20251014-090324,703,Experiment,Both,1,Automatic,main,108,20251014-104431,local,local,300,H,S,E,E,E-H.png,E-S.png,hH,sS,mask-4.png,mask-2.png,s,0,0.6617175000719726,s,1,0.07479989994317293,0.04996400000527501,0.048500100150704384,0.0990052002016455,0.09781040018424392,0.3009007000364363
RSVPLG03,MR,20251014-103522,1.0.1,20251014-090324,703,Experiment,Both,1,Automatic,main,109,20251014-104435,local,global,300,H,S,A,A,A-H.png,S-A.png,hH,sS,mask-1.png,mask-4.png,h,1,0.525740799959749,s,1,0.12969720014370978,0.05103750014677644,0.047110200161114335,0.10040759993717074,0.09768300014548004,0.30288169998675585
RSVPLG03,MR,20251014-103522,1.0.1,20251014-090324,703,Experiment,Both,1,Automatic,main,110,20251014-104440,local,global,300,H,H,E,E,E-H.png,H-E.png,hH,hH,mask-4.png,mask-4.png,s,0,0.8548622000962496,h,1,0.18881960003636777,0.048554099863395095,0.05035039992071688,0.09884150000289083,0.10092959995381534,0.29715620004571974
RSVPLG03,MR,20251014-103522,1.0.1,20251014-090324,703,Experiment,Both,1,Automatic,main,111,20251014-104444,global,global,300,S,H,A,E,S-A.png,H-E.png,sS,hH,mask-1.png,mask-3.png,h,0,1.694253400200978,h,1,0.07037480012513697,0.05083369999192655,0.04915079986676574,0.09879860002547503,0.09942359989508986,0.29913610010407865
RSVPLG03,MR,20251014-103522,1.0.1,20251014-090324,703,Experiment,Both,1,Automatic,main,112,20251014-104450,local,local,300,S,H,E,E,E-S.png,E-H.png,sS,hH,mask-2.png,mask-3.png,s,1,0.537064400035888,h,1,1.0222243000753224,0.04885290004312992,0.04967300011776388,0.09990340005606413,0.10142800002358854,0.29828240000642836
RSVPLG03,MR,20251014-103522,1.0.1,20251014-090324,703,Experiment,Both,1,Automatic,main,113,20251014-104455,global,local,300,H,H,E,A,H-E.png,A-H.png,hH,hH,mask-1.png,mask-3.png,h,1,0.4943136000074446,h,1,0.079813800053671,0.04980850010178983,0.05006429995410144,0.1007069000042975,0.0991990000475198,0.3006132000591606
RSVPLG03,MR,20251014-103522,1.0.1,20251014-090324,703,Experiment,Both,1,Automatic,main,114,20251014-104459,local,global,300,H,S,E,A,E-H.png,S-A.png,hH,sS,mask-4.png,mask-1.png,h,1,1.6712781998794526,h,0,0.0906447998713702,0.049651999957859516,0.04866860015317798,0.09931809990666807,0.0988264000043273,0.29860099987126887
RSVPLG03,MR,20251014-103522,1.0.1,20251014-090324,703,Experiment,Both,1,Automatic,main,115,20251014-104504,local,global,750,H,H,A,A,A-H.png,H-A.png,hH,hH,mask-4.png,mask-4.png,s,0,0.7577329999767244,s,0,0.06440430018119514,0.048735500080510974,0.04985419986769557,0.09774630004540086,0.10083379992283881,0.7476296001113951
RSVPLG03,MR,20251014-103522,1.0.1,20251014-090324,703,Experiment,Both,1,Automatic,main,116,20251014-104509,local,local,750,S,S,A,A,A-S.png,A-S.png,sS,sS,mask-4.png,mask-4.png,s,1,0.7623057998716831,h,0,0.21333759999834,0.049730899976566434,0.05083950003609061,0.10070830001495779,0.09850089997053146,0.748490400146693
RSVPLG03,MR,20251014-103522,1.0.1,20251014-090324,703,Experiment,Both,1,Automatic,main,117,20251014-104514,local,global,300,S,H,A,E,A-S.png,H-E.png,sS,hH,mask-4.png,mask-4.png,s,1,0.5961287999525666,h,1,0.3342854001093656,0.049746699864044785,0.049705800134688616,0.10158469993621111,0.09959280001930892,0.3002416999079287
RSVPLG03,MR,20251014-103522,1.0.1,20251014-090324,703,Experiment,Both,1,Automatic,main,118,20251014-104519,global,global,750,H,H,A,A,H-A.png,H-A.png,hH,hH,mask-3.png,mask-4.png,h,1,0.3296202002093196,h,1,0.0075205001048743725,0.05066810012795031,0.05096600018441677,0.10013379994779825,0.10066790017299354,0.7490294999442995
RSVPLG03,MR,20251014-103522,1.0.1,20251014-090324,703,Experiment,Both,1,Automatic,main,119,20251014-104523,global,local,750,S,S,A,A,S-A.png,A-S.png,sS,sS,mask-3.png,mask-1.png,s,1,0.7987355999648571,h,0,0.2627222998999059,0.0512665999121964,0.04993039998225868,0.09963800013065338,0.10019969986751676,0.7494485001079738
RSVPLG03,MR,20251014-103522,1.0.1,20251014-090324,703,Experiment,Both,1,Automatic,main,120,20251014-104528,local,local,750,S,S,E,E,E-S.png,E-S.png,sS,sS,mask-4.png,mask-3.png,s,1,0.7453761999495327,s,1,0.1198195000179112,0.05042620003223419,0.049836300080642104,0.09915070002898574,0.09971250011585653,0.7492424000520259
RSVPLG03,MR,20251014-103522,1.0.1,20251014-090324,703,Experiment,Both,1,Automatic,main,121,20251014-104533,local,global,750,S,S,A,E,A-S.png,S-E.png,sS,sS,mask-3.png,mask-2.png,h,0,0.5582056001294404,h,0,0.1146024998743087,0.04868389992043376,0.049776599975302815,0.09946550009772182,0.09859680011868477,0.748826399911195
RSVPLG03,MR,20251014-103522,1.0.1,20251014-090324,703,Experiment,Both,1,Automatic,main,122,20251014-104538,global,global,750,H,S,A,A,H-A.png,S-A.png,hH,sS,mask-2.png,mask-4.png,h,1,0.7478851999621838,s,1,0.26874510012567043,0.048475899966433644,0.05003080004826188,0.09879030007869005,0.10081790015101433,0.7486723999027163
RSVPLG03,MR,20251014-103522,1.0.1,20251014-090324,703,Experiment,Both,1,Automatic,main,123,20251014-104543,global,local,750,H,H,E,E,H-E.png,E-H.png,hH,hH,mask-2.png,mask-2.png,h,1,0.3415507001336664,h,1,0.10251439991407096,0.049276999896392226,0.05065190000459552,0.09982850006781518,0.10131760011427104,0.7470899999607354
RSVPLG03,MR,20251014-103522,1.0.1,20251014-090324,703,Experiment,Both,1,Automatic,main,124,20251014-104548,global,global,300,H,S,A,A,H-A.png,S-A.png,hH,sS,mask-1.png,mask-3.png,h,1,0.5892392999958247,s,1,0.25007919990457594,0.049412399996072054,0.04975009988993406,0.09994149999693036,0.10004009981639683,0.29936870001256466
RSVPLG03,MR,20251014-103522,1.0.1,20251014-090324,703,Experiment,Both,1,Automatic,main,125,20251014-104552,local,global,750,H,H,A,E,A-H.png,H-E.png,hH,hH,mask-3.png,mask-2.png,h,1,0.3790431001689285,h,1,0.08717689989134669,0.04986159992404282,0.04970930004492402,0.09916380001232028,0.09816700010560453,0.7502992998342961
RSVPLG03,MR,20251014-104641,1.0.1,20251014-090324,703,Experiment,Both,1,Automatic,warmup,1,20251014-104702,local,global,300,H,H,E,E,E-H.png,H-E.png,hH,hH,mask-4.png,mask-4.png,h,1,2.346945600118488,s,0,0.7077321000397205,0.04085079999640584,0.04916679998859763,0.08993709995411336,0.09985789982602,0.2897922999691218
RSVPLG03,MR,20251014-104641,1.0.1,20251014-090324,703,Experiment,Both,1,Automatic,warmup,2,20251014-104709,local,local,300,H,H,E,A,E-H.png,A-H.png,hH,hH,mask-1.png,mask-1.png,h,1,0.6413002000190318,h,1,0.04847080004401505,0.05004310002550483,0.048509599873796105,0.09897029981948435,0.09890759992413223,0.29790979996323586
RSVPLG03,MR,20251014-104641,1.0.1,20251014-090324,703,Experiment,Both,1,Automatic,warmup,3,20251014-104713,local,local,750,S,H,A,A,A-S.png,A-H.png,sS,hH,mask-4.png,mask-1.png,s,1,0.6221121000126004,h,1,0.2709931000135839,0.051004899898543954,0.051317699952051044,0.09911819989793003,0.09947409993037581,0.7484379999805242
RSVPLG03,MR,20251014-104641,1.0.1,20251014-090324,703,Experiment,Both,1,Automatic,warmup,4,20251014-104718,global,local,300,S,S,E,A,S-E.png,A-S.png,sS,sS,mask-1.png,mask-3.png,s,1,0.7276010999921709,h,0,0.21051450003869832,0.05108879995532334,0.0496003997977823,0.09974069986492395,0.10029209987260401,0.2993604000657797
RSVPLG03,MR,20251014-104641,1.0.1,20251014-090324,703,Experiment,Both,1,Automatic,warmup,5,20251014-104722,global,global,300,H,H,E,E,H-E.png,H-E.png,hH,hH,mask-1.png,mask-3.png,h,1,0.34359339997172356,h,1,0.08215439994819462,0.05072669987566769,0.04978509992361069,0.10051749995909631,0.0986631999257952,0.30023059993982315
RSVPLG03,MR,20251014-104641,1.0.1,20251014-090324,703,Experiment,Both,1,Automatic,main,6,20251014-104726,local,local,750,S,S,E,E,E-S.png,E-S.png,sS,sS,mask-2.png,mask-1.png,s,1,0.6073295001406223,s,1,0.07054170011542737,0.049636200070381165,0.05012839986011386,0.09932709997519851,0.09803360002115369,0.7489684000611305
RSVPLG03,MR,20251014-104641,1.0.1,20251014-090324,703,Experiment,Both,1,Automatic,main,7,20251014-104731,global,global,300,H,H,E,E,H-E.png,H-E.png,hH,hH,mask-1.png,mask-2.png,h,1,0.3050873000174761,h,1,0.0627191998064518,0.04852980002760887,0.04863740014843643,0.09902449999935925,0.09982860018499196,0.29958310001529753
RSVPLG03,MR,20251014-104641,1.0.1,20251014-090324,703,Experiment,Both,1,Automatic,main,8,20251014-104735,local,local,750,S,H,A,E,A-S.png,E-H.png,sS,hH,mask-4.png,mask-3.png,s,1,0.8902686000801623,h,1,0.29604859999381006,0.048596000066027045,0.05054780002683401,0.09907360002398491,0.10116970003582537,0.7473603000398725
RSVPLG03,MR,20251014-104641,1.0.1,20251014-090324,703,Experiment,Both,1,Automatic,main,9,20251014-104740,local,global,750,S,H,E,A,E-S.png,H-A.png,sS,hH,mask-1.png,mask-2.png,s,1,0.7255854001268744,h,1,0.2556319001596421,0.050754299852997065,0.04983510007150471,0.10110650002025068,0.09984000003896654,0.7485999998170882
RSVPLG03,MR,20251014-104641,1.0.1,20251014-090324,703,Experiment,Both,1,Automatic,main,10,20251014-104746,global,local,750,S,S,A,E,S-A.png,E-S.png,sS,sS,mask-1.png,mask-3.png,s,1,0.7199313999153674,s,1,0.07061180006712675,0.051446199882775545,0.04992910008877516,0.09992809989489615,0.09971380000934005,0.7489787999074906
RSVPLG03,MR,20251014-104641,1.0.1,20251014-090324,703,Experiment,Both,1,Automatic,main,11,20251014-104750,local,local,300,H,H,E,A,E-H.png,A-H.png,hH,hH,mask-4.png,mask-2.png,s,0,0.7098638999741524,h,1,0.21398249990306795,0.050006400095298886,0.048800199991092086,0.1006481999065727,0.09862200007773936,0.29963929997757077
RSVPLG03,MR,20251014-104641,1.0.1,20251014-090324,703,Experiment,Both,1,Automatic,main,12,20251014-104755,local,local,750,S,H,A,A,A-S.png,A-H.png,sS,hH,mask-1.png,mask-2.png,s,1,0.6591889001429081,h,1,0.2398494000080973,0.04974439996294677,0.04968090006150305,0.10135819995775819,0.09944969997741282,0.7498110998421907
RSVPLG03,MR,20251014-104641,1.0.1,20251014-090324,703,Experiment,Both,1,Automatic,main,13,20251014-104800,global,local,300,H,H,E,E,H-E.png,E-H.png,hH,hH,mask-1.png,mask-4.png,h,1,0.41626389999873936,s,0,0.23809770005755126,0.050490699941292405,0.051547500072047114,0.10070469998754561,0.10050900001078844,0.2989862998947501
RSVPLG03,MR,20251014-104641,1.0.1,20251014-090324,703,Experiment,Both,1,Automatic,main,14,20251014-104804,global,local,300,S,S,E,A,S-E.png,A-S.png,sS,sS,mask-4.png,mask-3.png,s,1,0.8015664000995457,h,0,0.23662259988486767,0.04969389992766082,0.05024280003271997,0.10051100002601743,0.10087219998240471,0.2986095999367535
RSVPLG03,MR,20251014-104641,1.0.1,20251014-090324,703,Experiment,Both,1,Automatic,main,15,20251014-104809,local,local,300,H,S,A,E,A-H.png,E-S.png,hH,sS,mask-2.png,mask-4.png,h,1,0.48960989993065596,s,1,0.24739659996703267,0.049563099863007665,0.050556400092318654,0.10025279992260039,0.10023940005339682,0.29962429986335337
RSVPLG03,MR,20251014-104641,1.0.1,20251014-090324,703,Experiment,Both,1,Automatic,main,16,20251014-104813,global,global,300,S,H,E,E,S-E.png,H-E.png,sS,hH,mask-4.png,mask-3.png,s,1,0.5938446999061853,h,1,0.2230450001079589,0.05018960009329021,0.05014349985867739,0.10003120009787381,0.1009207998868078,0.29808760015293956
RSVPLG03,MR,20251014-104641,1.0.1,20251014-090324,703,Experiment,Both,1,Automatic,main,17,20251014-104818,global,local,300,S,S,E,E,S-E.png,E-S.png,sS,sS,mask-4.png,mask-2.png,s,1,0.5768681999761611,s,1,0.10906189982779324,0.04860209999606013,0.050363099901005626,0.09915290004573762,0.09997999994084239,0.29823870002292097
RSVPLG03,MR,20251014-104641,1.0.1,20251014-090324,703,Experiment,Both,1,Automatic,main,18,20251014-104822,global,global,300,S,H,E,E,S-E.png,H-E.png,sS,hH,mask-1.png,mask-2.png,s,1,0.5001515001058578,h,1,0.20261499984189868,0.04783659987151623,0.04969009989872575,0.09765270003117621,0.10054320003837347,0.29762009996920824
RSVPLG03,MR,20251014-104641,1.0.1,20251014-090324,703,Experiment,Both,1,Automatic,main,19,20251014-104826,local,global,750,S,S,E,A,E-S.png,S-A.png,sS,sS,mask-3.png,mask-3.png,s,1,0.6546754001174122,s,1,0.0867975999135524,0.050209299894049764,0.04967970005236566,0.09936290001496673,0.10045560006983578,0.7477360998746008
RSVPLG03,MR,20251014-104641,1.0.1,20251014-090324,703,Experiment,Both,1,Automatic,main,20,20251014-104831,local,global,300,S,S,A,E,A-S.png,S-E.png,sS,sS,mask-2.png,mask-2.png,s,1,0.6244532000273466,s,1,0.1120592001825571,0.048680400010198355,0.05046289996244013,0.09862990002147853,0.10051029990427196,0.29750380013138056
RSVPLG03,MR,20251014-104641,1.0.1,20251014-090324,703,Experiment,Both,1,Automatic,main,21,20251014-104835,global,global,300,S,H,A,E,S-A.png,H-E.png,sS,hH,mask-1.png,mask-2.png,s,1,0.5559104999992996,h,1,0.2766688000410795,0.050542799988761544,0.04817040008492768,0.09958299994468689,0.09983070008456707,0.2992169000208378
RSVPLG03,MR,20251014-104641,1.0.1,20251014-090324,703,Experiment,Both,1,Automatic,main,22,20251014-104840,local,global,750,H,H,E,E,E-H.png,H-E.png,hH,hH,mask-2.png,mask-1.png,s,0,0.8847952000796795,s,0,0.09061189997009933,0.04983530007302761,0.04999370011501014,0.0997444000095129,0.09955659997649491,0.7482441000174731
RSVPLG03,MR,20251014-104641,1.0.1,20251014-090324,703,Experiment,Both,1,Automatic,main,23,20251014-104845,global,local,750,H,S,A,E,H-A.png,E-S.png,hH,sS,mask-1.png,mask-3.png,h,1,0.6353925000876188,s,1,0.4056273000314832,0.04962619999423623,0.049838999984785914,0.09947550017386675,0.09974840003997087,0.7482084999792278
RSVPLG03,MR,20251014-104641,1.0.1,20251014-090324,703,Experiment,Both,1,Automatic,main,24,20251014-104850,global,global,300,H,S,A,E,H-A.png,S-E.png,hH,sS,mask-1.png,mask-1.png,h,1,1.0706837999168783,s,1,0.9352765998337418,0.049751600017771125,0.04854290001094341,0.09929220005869865,0.09819180006161332,0.29949939996004105
RSVPLG03,MR,20251014-104641,1.0.1,20251014-090324,703,Experiment,Both,1,Automatic,main,25,20251014-104856,global,global,300,S,H,A,E,S-A.png,H-E.png,sS,hH,mask-1.png,mask-3.png,s,1,0.5958970000501722,h,1,0.2355133998207748,0.04815350007265806,0.04951720009557903,0.0983623000793159,0.10072350013069808,0.2978566000238061
RSVPLG03,MR,20251014-104641,1.0.1,20251014-090324,703,Experiment,Both,1,Automatic,main,26,20251014-104909,local,global,300,S,S,E,E,E-S.png,S-E.png,sS,sS,mask-2.png,mask-4.png,s,1,0.6463122998829931,s,1,0.07916179997846484,0.04984320001676679,0.05023850011639297,0.09858280001208186,0.10040040011517704,0.29878389998339117
RSVPLG03,MR,20251014-104641,1.0.1,20251014-090324,703,Experiment,Both,1,Automatic,main,27,20251014-104913,local,local,300,H,H,A,E,A-H.png,E-H.png,hH,hH,mask-2.png,mask-3.png,h,1,0.5218935001175851,s,0,0.23056229995563626,0.05016410001553595,0.04969460004940629,0.09955540020018816,0.09852560004219413,0.300151800038293
RSVPLG03,MR,20251014-104641,1.0.1,20251014-090324,703,Experiment,Both,1,Automatic,main,28,20251014-104918,global,local,750,H,S,A,A,H-A.png,A-S.png,hH,sS,mask-1.png,mask-3.png,h,1,1.549392599845305,h,0,0.23945620004087687,0.048406500136479735,0.05054009985178709,0.09879479999653995,0.10036459984257817,0.7477488000877202
RSVPLG03,MR,20251014-104641,1.0.1,20251014-090324,703,Experiment,Both,1,Automatic,main,29,20251014-104923,local,global,750,H,S,A,A,A-H.png,S-A.png,hH,sS,mask-1.png,mask-4.png,h,1,0.40310600004158914,s,1,0.22153260000050068,0.050163199892267585,0.05137500003911555,0.10063649993389845,0.1008646001573652,0.7472259998321533
RSVPLG03,MR,20251014-104641,1.0.1,20251014-090324,703,Experiment,Both,1,Automatic,main,30,20251014-104928,global,local,750,H,S,E,E,H-E.png,E-S.png,hH,sS,mask-1.png,mask-4.png,h,1,0.3169883000664413,s,1,0.25601259991526604,0.051125100115314126,0.04904209985397756,0.0996626999694854,0.0990174999460578,0.7499069001059979
RSVPLG03,MR,20251014-104641,1.0.1,20251014-090324,703,Experiment,Both,1,Automatic,main,31,20251014-104933,local,local,300,S,S,A,A,A-S.png,A-S.png,sS,sS,mask-2.png,mask-1.png,h,0,2.600287399953231,h,0,0.08683529985137284,0.04867949988692999,0.0507128001190722,0.09851599996909499,0.10024790000170469,0.2975508999079466
RSVPLG03,MR,20251014-104641,1.0.1,20251014-090324,703,Experiment,Both,1,Automatic,main,32,20251014-104939,global,local,300,S,H,E,A,S-E.png,A-H.png,sS,hH,mask-1.png,mask-1.png,s,1,0.6432282000314444,h,1,0.407225500093773,0.04974919999949634,0.05063259997405112,0.09999959985725582,0.10127269988879561,0.2984635999891907
RSVPLG03,MR,20251014-104641,1.0.1,20251014-090324,703,Experiment,Both,1,Automatic,main,33,20251014-104944,local,global,750,S,H,E,E,E-S.png,H-E.png,sS,hH,mask-4.png,mask-3.png,s,1,0.5930425999686122,h,1,0.2942619000095874,0.049339700024574995,0.048271300038322806,0.10012469999492168,0.09810910001397133,0.7494526000227779
RSVPLG03,MR,20251014-104641,1.0.1,20251014-090324,703,Experiment,Both,1,Automatic,main,34,20251014-104949,global,global,300,S,H,A,E,S-A.png,H-E.png,sS,hH,mask-4.png,mask-1.png,s,1,0.6296422998420894,h,1,0.26205840008333325,0.05043639987707138,0.04981640004552901,0.10005659982562065,0.09971390012651682,0.2998706998769194
RSVPLG03,MR,20251014-104641,1.0.1,20251014-090324,703,Experiment,Both,1,Automatic,main,35,20251014-104953,local,local,750,H,S,A,E,A-H.png,E-S.png,hH,sS,mask-1.png,mask-4.png,h,1,0.5586415000725538,s,1,0.23963239998556674,0.05126359988935292,0.049741300055757165,0.1002749998588115,0.09957880014553666,0.7498587998561561
RSVPLG03,MR,20251014-104641,1.0.1,20251014-090324,703,Experiment,Both,1,Automatic,main,36,20251014-104958,local,global,300,H,H,E,E,E-H.png,H-E.png,hH,hH,mask-1.png,mask-1.png,s,0,0.8670185999944806,s,0,0.05468139983713627,0.049685899866744876,0.04946210002526641,0.10049710003659129,0.0987066999077797,0.2995746999513358
RSVPLG03,MR,20251014-104641,1.0.1,20251014-090324,703,Experiment,Both,1,Automatic,main,37,20251014-105003,local,global,750,S,H,A,E,A-S.png,H-E.png,sS,hH,mask-4.png,mask-2.png,s,1,0.5386284999549389,h,1,0.2071264002006501,0.049834199948236346,0.04879730008542538,0.09977899980731308,0.09847630001604557,0.7487169997766614
RSVPLG03,MR,20251014-104641,1.0.1,20251014-090324,703,Experiment,Both,1,Automatic,main,38,20251014-105007,global,local,750,H,H,E,A,H-E.png,A-H.png,hH,hH,mask-3.png,mask-2.png,h,1,0.40396839985623956,h,1,0.07261830009520054,0.048345600022003055,0.04983570007607341,0.09969979990273714,0.09977140021510422,0.7475554998964071
RSVPLG03,MR,20251014-104641,1.0.1,20251014-090324,703,Experiment,Both,1,Automatic,main,39,20251014-105012,global,global,750,H,S,E,A,H-E.png,S-A.png,hH,sS,mask-1.png,mask-4.png,h,1,0.5441850000061095,s,1,0.2548385001718998,0.050008000107482076,0.050018500071018934,0.09995260019786656,0.09936120011843741,0.7475062001030892
RSVPLG03,MR,20251014-104641,1.0.1,20251014-090324,703,Experiment,Both,1,Automatic,main,40,20251014-105017,local,global,300,S,S,A,A,A-S.png,S-A.png,sS,sS,mask-3.png,mask-1.png,s,1,0.8878657000605017,s,1,0.07202259986661375,0.050394299905747175,0.048400300089269876,0.09908249997533858,0.09952819999307394,0.2993840998969972
RSVPLG03,MR,20251014-104641,1.0.1,20251014-090324,703,Experiment,Both,1,Automatic,main,41,20251014-105021,global,global,300,S,S,A,E,S-A.png,S-E.png,sS,sS,mask-4.png,mask-1.png,s,1,0.730771399801597,s,1,0.0714171000290662,0.050702800042927265,0.050191399874165654,0.0994681001175195,0.10048520006239414,0.2984557000454515
RSVPLG03,MR,20251014-104641,1.0.1,20251014-090324,703,Experiment,Both,1,Automatic,main,42,20251014-105026,global,global,300,H,S,A,E,H-A.png,S-E.png,hH,sS,mask-1.png,mask-1.png,h,1,0.49796919990330935,h,0,0.27876750007271767,0.05089050019159913,0.05003709997981787,0.10099890013225377,0.10053730010986328,0.29853040003217757
RSVPLG03,MR,20251014-104641,1.0.1,20251014-090324,703,Experiment,Both,1,Automatic,main,43,20251014-105030,local,local,300,S,S,E,A,E-S.png,A-S.png,sS,sS,mask-4.png,mask-2.png,s,1,0.7662047001067549,h,0,0.19590960000641644,0.050602600211277604,0.05064819986000657,0.09960780013352633,0.10149289993569255,0.29891980020329356
RSVPLG03,MR,20251014-104641,1.0.1,20251014-090324,703,Experiment,Both,1,Automatic,main,44,20251014-105035,local,global,750,H,S,A,E,A-H.png,S-E.png,hH,sS,mask-3.png,mask-3.png,h,1,0.44465700001455843,s,1,0.16450910014100373,0.049835799960419536,0.050554299959912896,0.10049439989961684,0.10108599998056889,0.7481255999300629
RSVPLG03,MR,20251014-104641,1.0.1,20251014-090324,703,Experiment,Both,1,Automatic,main,45,20251014-105039,global,local,300,H,H,A,A,H-A.png,A-H.png,hH,hH,mask-1.png,mask-3.png,s,0,1.2860185999888927,h,1,0.18317990005016327,0.04966469993814826,0.05080990004353225,0.09993119980208576,0.10115149989724159,0.29799779993481934
RSVPLG03,MR,20251014-104641,1.0.1,20251014-090324,703,Experiment,Both,1,Automatic,main,46,20251014-105044,local,local,300,S,S,E,A,E-S.png,A-S.png,sS,sS,mask-4.png,mask-2.png,s,1,0.5689998001325876,h,0,0.29654900007881224,0.05035839998163283,0.05030460003763437,0.1007329998537898,0.10047710011713207,0.2988670999184251
RSVPLG03,MR,20251014-104641,1.0.1,20251014-090324,703,Experiment,Both,1,Automatic,main,47,20251014-105049,global,global,750,S,H,E,E,S-E.png,H-E.png,sS,hH,mask-4.png,mask-3.png,s,1,0.60413259989582,h,1,0.3654149998910725,0.04979779990389943,0.05082029988989234,0.10037939995527267,0.09849980007857084,0.7481243999209255
RSVPLG03,MR,20251014-104641,1.0.1,20251014-090324,703,Experiment,Both,1,Automatic,main,48,20251014-105054,global,global,750,S,H,A,E,S-A.png,H-E.png,sS,hH,mask-3.png,mask-4.png,s,1,0.5901424000039697,h,1,0.16641739988699555,0.0490703999530524,0.04919239995069802,0.10005160002037883,0.09927219990640879,0.7478128999937326
RSVPLG03,MR,20251014-104641,1.0.1,20251014-090324,703,Experiment,Both,1,Automatic,main,49,20251014-105059,global,global,300,S,S,E,E,S-E.png,S-E.png,sS,sS,mask-4.png,mask-1.png,s,1,0.6704935999587178,s,1,0.062333600129932165,0.051065600011497736,0.04974490008316934,0.09998649987392128,0.09993520006537437,0.29977079993113875
RSVPLG03,MR,20251014-104641,1.0.1,20251014-090324,703,Experiment,Both,1,Automatic,main,50,20251014-105103,global,global,750,H,H,A,A,H-A.png,H-A.png,hH,hH,mask-4.png,mask-3.png,h,1,0.34834980010055006,h,1,0.07533370004966855,0.05064780008979142,0.04982830001972616,0.09978289995342493,0.09983259998261929,0.7478597001172602
RSVPLG03,MR,20251014-104641,1.0.1,20251014-090324,703,Experiment,Both,1,Automatic,main,51,20251014-105109,global,local,300,H,S,E,A,H-E.png,A-S.png,hH,sS,mask-4.png,mask-3.png,h,1,0.6562500998843461,h,0,0.1429818000178784,0.04985139984637499,0.05068910005502403,0.09967239992693067,0.1005196999758482,0.2991209998726845
RSVPLG03,MR,20251014-104641,1.0.1,20251014-090324,703,Experiment,Both,1,Automatic,main,52,20251014-105113,global,local,750,H,H,E,E,H-E.png,E-H.png,hH,hH,mask-3.png,mask-2.png,h,1,0.7656181000638753,h,1,0.10253010015003383,0.05069159995764494,0.0507366000674665,0.09952010004781187,0.09933240013197064,0.7481579999439418
RSVPLG03,MR,20251014-104641,1.0.1,20251014-090324,703,Experiment,Both,1,Automatic,main,53,20251014-105118,local,global,300,H,S,A,A,A-H.png,S-A.png,hH,sS,mask-2.png,mask-4.png,h,1,0.4226679001003504,s,1,0.5101849001366645,0.05018289992585778,0.04915300011634827,0.1006514998152852,0.09922079998068511,0.3010419998317957
RSVPLG03,MR,20251014-104641,1.0.1,20251014-090324,703,Experiment,Both,1,Automatic,main,54,20251014-105122,global,global,300,S,H,E,A,S-E.png,H-A.png,sS,hH,mask-3.png,mask-3.png,s,1,0.6988204000517726,h,1,0.24227400007657707,0.049695400055497885,0.04870629985816777,0.09949079994112253,0.09763760003261268,0.30068850005045533
RSVPLG03,MR,20251014-104641,1.0.1,20251014-090324,703,Experiment,Both,1,Automatic,main,55,20251014-105127,local,local,300,S,H,E,E,E-S.png,E-H.png,sS,hH,mask-3.png,mask-1.png,s,1,1.1557968000415713,s,0,0.19171170005574822,0.051767800003290176,0.04869020008482039,0.10054149990901351,0.0981598999351263,0.3011612999252975
RSVPLG03,MR,20251014-104641,1.0.1,20251014-090324,703,Experiment,Both,1,Automatic,main,56,20251014-105132,global,local,300,H,S,A,A,H-A.png,A-S.png,hH,sS,mask-3.png,mask-4.png,h,1,0.39549929997883737,s,1,0.26902389992028475,0.048310899874195457,0.04966029990464449,0.09851170005276799,0.1001080998685211,0.2984372000209987
RSVPLG03,MR,20251014-104641,1.0.1,20251014-090324,703,Experiment,Both,1,Automatic,main,57,20251014-105136,local,global,750,H,H,E,A,E-H.png,H-A.png,hH,hH,mask-3.png,mask-3.png,h,1,1.0880432000849396,h,1,0.07122109993360937,0.04967049998231232,0.0488880998454988,0.09961340017616749,0.09960469999350607,0.7481383001431823
RSVPLG03,MR,20251014-104641,1.0.1,20251014-090324,703,Experiment,Both,1,Automatic,main,58,20251014-105141,global,local,750,H,H,A,A,H-A.png,A-H.png,hH,hH,mask-4.png,mask-3.png,h,1,0.28980370005592704,h,1,0.06557160010561347,0.049809500109404325,0.04970670002512634,0.09979000012390316,0.0994248001370579,0.7480651000514627
RSVPLG03,MR,20251014-104641,1.0.1,20251014-090324,703,Experiment,Both,1,Automatic,main,59,20251014-105146,local,local,750,S,S,A,A,A-S.png,A-S.png,sS,sS,mask-1.png,mask-1.png,s,1,0.9631807999685407,s,1,0.0045641998294740915,0.04881870001554489,0.050302800023928285,0.09978329995647073,0.10065370006486773,0.747161699924618
RSVPLG03,MR,20251014-104641,1.0.1,20251014-090324,703,Experiment,Both,1,Automatic,main,60,20251014-105151,local,global,750,H,S,A,E,A-H.png,S-E.png,hH,sS,mask-2.png,mask-1.png,h,1,0.4805026000831276,s,1,0.2445322999265045,0.04924240009859204,0.050360299879685044,0.09919420001097023,0.09951850003562868,0.7479256000369787
RSVPLG03,MR,20251014-104641,1.0.1,20251014-090324,703,Experiment,Both,1,Automatic,main,61,20251014-105156,local,global,300,S,S,A,E,A-S.png,S-E.png,sS,sS,mask-1.png,mask-2.png,s,1,0.5927325000520796,s,1,0.4562961000483483,0.048889399971812963,0.04942299984395504,0.09908950002864003,0.0999972999561578,0.2996076000854373
RSVPLG03,MR,20251014-104641,1.0.1,20251014-090324,703,Experiment,Both,1,Automatic,main,62,20251014-105200,global,local,300,S,S,E,E,S-E.png,E-S.png,sS,sS,mask-2.png,mask-2.png,s,1,0.5620450999122113,s,1,0.061973500065505505,0.048453800147399306,0.05052799987606704,0.09950900007970631,0.099877999862656,0.2988778001163155
RSVPLG03,MR,20251014-104641,1.0.1,20251014-090324,703,Experiment,Both,1,Automatic,main,63,20251014-105205,global,global,750,H,S,E,A,H-E.png,S-A.png,hH,sS,mask-2.png,mask-3.png,h,1,0.393718000035733,s,1,0.20656719990074635,0.04814460012130439,0.050246700178831816,0.09888969990424812,0.1008408002089709,0.7461488998960704
RSVPLG03,MR,20251014-104641,1.0.1,20251014-090324,703,Experiment,Both,1,Automatic,main,64,20251014-105209,local,global,300,S,H,E,E,E-S.png,H-E.png,sS,hH,mask-3.png,mask-2.png,s,1,0.4813120998442173,h,1,0.17507990007288754,0.049811000004410744,0.049801799934357405,0.10076269996352494,0.09974989993497729,0.29955790005624294
RSVPLG03,MR,20251014-104641,1.0.1,20251014-090324,703,Experiment,Both,1,Automatic,main,65,20251014-105213,local,local,750,H,H,A,A,A-H.png,A-H.png,hH,hH,mask-1.png,mask-3.png,h,1,0.3239829000085592,h,1,0.07809439999982715,0.04959789989516139,0.048765100073069334,0.09996260004118085,0.09957369999028742,0.7485946998931468
RSVPLG03,MR,20251014-104641,1.0.1,20251014-090324,703,Experiment,Both,1,Automatic,main,66,20251014-105218,global,global,300,S,H,A,A,S-A.png,H-A.png,sS,hH,mask-2.png,mask-2.png,s,1,0.5045940999407321,h,1,0.16039269999600947,0.049794299993664026,0.049556100042536855,0.09972709999419749,0.10049660014919937,0.2995157998520881
RSVPLG03,MR,20251014-104641,1.0.1,20251014-090324,703,Experiment,Both,1,Automatic,main,67,20251014-105222,local,global,750,S,H,E,A,E-S.png,H-A.png,sS,hH,mask-4.png,mask-1.png,s,1,0.568643799982965,h,1,0.17511009983718395,0.05008760001510382,0.050797600066289306,0.09806660003960133,0.1008461001329124,0.7466599000617862
RSVPLG03,MR,20251014-104641,1.0.1,20251014-090324,703,Experiment,Both,1,Automatic,main,68,20251014-105227,global,global,750,H,S,A,E,H-A.png,S-E.png,hH,sS,mask-2.png,mask-3.png,h,1,0.41675029997713864,s,1,0.16759820003062487,0.04960120003670454,0.05050939996726811,0.0994366998784244,0.09926869999617338,0.7483240000437945
RSVPLG03,MR,20251014-104641,1.0.1,20251014-090324,703,Experiment,Both,1,Automatic,main,69,20251014-105232,global,global,750,H,S,A,E,H-A.png,S-E.png,hH,sS,mask-2.png,mask-4.png,h,1,0.4770288998261094,s,1,0.1981217002030462,0.04998279991559684,0.05061450018547475,0.09969380008988082,0.09953560004942119,0.748761999886483
RSVPLG03,MR,20251014-104641,1.0.1,20251014-090324,703,Experiment,Both,1,Automatic,main,70,20251014-105236,local,local,750,H,H,A,E,A-H.png,E-H.png,hH,hH,mask-4.png,mask-1.png,h,1,0.6828792998567224,h,1,0.10307820001617074,0.05080499988980591,0.04968110006302595,0.10107809980399907,0.09992010006681085,0.7496532998047769
RSVPLG03,MR,20251014-104641,1.0.1,20251014-090324,703,Experiment,Both,1,Automatic,main,71,20251014-105241,global,local,750,H,S,A,A,H-A.png,A-S.png,hH,sS,mask-3.png,mask-2.png,h,1,0.42161819990724325,h,0,0.07730549992993474,0.04911880008876324,0.05027580005116761,0.0998313999734819,0.10063329990953207,0.747256200062111
RSVPLG03,MR,20251014-104641,1.0.1,20251014-090324,703,Experiment,Both,1,Automatic,main,72,20251014-105246,local,local,300,H,H,E,A,E-H.png,A-H.png,hH,hH,mask-1.png,mask-3.png,h,1,0.4315667999908328,h,1,0.07777040009386837,0.048560700146481395,0.0492106000892818,0.0978551001753658,0.099576500011608,0.2975212000310421
RSVPLG03,MR,20251014-104641,1.0.1,20251014-090324,703,Experiment,Both,1,Automatic,main,73,20251014-105250,global,local,300,H,H,E,A,H-E.png,A-H.png,hH,hH,mask-2.png,mask-2.png,h,1,0.28555140015669167,h,1,0.07955690007656813,0.04955070000141859,0.050037600100040436,0.10042949998751283,0.1002040000166744,0.2988193999044597
RSVPLG03,MR,20251014-104641,1.0.1,20251014-090324,703,Experiment,Both,1,Automatic,main,74,20251014-105254,global,local,750,H,H,E,E,H-E.png,E-H.png,hH,hH,mask-2.png,mask-4.png,h,1,0.5719757999759167,s,0,0.2544559999369085,0.05122599983587861,0.05072379997000098,0.10146389994770288,0.10002680006437004,0.7485906998626888
RSVPLG03,MR,20251014-104641,1.0.1,20251014-090324,703,Experiment,Both,1,Automatic,main,75,20251014-105259,local,local,750,S,H,E,E,E-S.png,E-H.png,sS,hH,mask-1.png,mask-2.png,s,1,0.5960280001163483,s,0,0.07427829992957413,0.05133619997650385,0.050243099918588996,0.10116520011797547,0.10070299985818565,0.7476991000585258
RSVPLG03,MR,20251014-104641,1.0.1,20251014-090324,703,Experiment,Both,1,Automatic,main,76,20251014-105304,local,global,300,H,H,E,A,E-H.png,H-A.png,hH,hH,mask-4.png,mask-1.png,s,0,0.58469929988496,h,1,0.14282030006870627,0.04951560008339584,0.05056560016237199,0.09867320000194013,0.10025250003673136,0.29789129993878305
RSVPLG03,MR,20251014-104641,1.0.1,20251014-090324,703,Experiment,Both,1,Automatic,main,77,20251014-105309,global,local,300,H,H,A,E,H-A.png,E-H.png,hH,hH,mask-2.png,mask-4.png,h,1,0.4227056000381708,s,0,0.17485609999857843,0.049674199894070625,0.04969899985007942,0.09949339996092021,0.09951229998841882,0.2983583000022918
RSVPLG03,MR,20251014-104641,1.0.1,20251014-090324,703,Experiment,Both,1,Automatic,main,78,20251014-105313,global,global,750,S,S,A,E,S-A.png,S-E.png,sS,sS,mask-4.png,mask-3.png,s,1,0.6233067000284791,s,1,0.0035441999789327383,0.04972869995981455,0.04887799988500774,0.09950349992141128,0.09891459997743368,0.7488891999237239
RSVPLG03,MR,20251014-104641,1.0.1,20251014-090324,703,Experiment,Both,1,Automatic,main,79,20251014-105318,global,global,300,H,S,A,E,H-A.png,S-E.png,hH,sS,mask-2.png,mask-4.png,h,1,0.8735291000921279,h,0,0.12002419983036816,0.05068690003827214,0.049640199868008494,0.10319119994528592,0.10046639991924167,0.2988160001114011
RSVPLG03,MR,20251014-104641,1.0.1,20251014-090324,703,Experiment,Both,1,Automatic,main,80,20251014-105322,local,global,750,S,H,A,A,A-S.png,H-A.png,sS,hH,mask-2.png,mask-4.png,h,0,0.6068895000498742,h,1,0.1107066001277417,0.049350199988111854,0.050659700063988566,0.09919290011748672,0.1008229001890868,0.7475866999011487
RSVPLG03,MR,20251014-104641,1.0.1,20251014-090324,703,Experiment,Both,1,Automatic,main,81,20251014-105327,local,local,750,H,S,A,A,A-H.png,A-S.png,hH,sS,mask-4.png,mask-2.png,h,1,0.5214782999828458,h,0,0.08783009997569025,0.049678799929097295,0.0496395998634398,0.09949469985440373,0.0992030999623239,0.747876700013876
RSVPLG03,MR,20251014-104641,1.0.1,20251014-090324,703,Experiment,Both,1,Automatic,main,82,20251014-105332,local,global,300,H,H,E,E,E-H.png,H-E.png,hH,hH,mask-1.png,mask-3.png,s,0,0.5165572999976575,h,1,0.1114662999752909,0.05009140004403889,0.04960719984956086,0.09881970006972551,0.10001189983449876,0.2993712001480162
RSVPLG03,MR,20251014-104641,1.0.1,20251014-090324,703,Experiment,Both,1,Automatic,main,83,20251014-105336,global,global,750,H,H,A,E,H-A.png,H-E.png,hH,hH,mask-2.png,mask-2.png,h,1,0.2315360999200493,h,1,0.08004010003060102,0.0492376999463886,0.04967249999754131,0.09899219986982644,0.09857219993136823,0.7489439998753369
RSVPLG03,MR,20251014-104641,1.0.1,20251014-090324,703,Experiment,Both,1,Automatic,main,84,20251014-105340,global,local,750,S,S,E,A,S-E.png,A-S.png,sS,sS,mask-2.png,mask-1.png,s,1,0.674087599851191,s,1,0.09298070007935166,0.048731999937444925,0.04962780000641942,0.09865589998662472,0.09912869986146688,0.7469242999795824
RSVPLG03,MR,20251014-104641,1.0.1,20251014-090324,703,Experiment,Both,1,Automatic,main,85,20251014-105345,local,global,750,S,S,E,A,E-S.png,S-A.png,sS,sS,mask-4.png,mask-2.png,s,1,0.749014199944213,s,1,0.022907699923962355,0.04986319993622601,0.05045360000804067,0.09883639984764159,0.10094260005280375,0.7473728999029845
RSVPLG03,MR,20251014-104641,1.0.1,20251014-090324,703,Experiment,Both,1,Automatic,main,86,20251014-105350,global,global,750,S,S,E,E,S-E.png,S-E.png,sS,sS,mask-2.png,mask-4.png,s,1,0.5646057000849396,s,1,0.05231789988465607,0.05095399986021221,0.04944239999167621,0.09981699986383319,0.10070660011842847,0.7482800998259336
RSVPLG03,MR,20251014-104641,1.0.1,20251014-090324,703,Experiment,Both,1,Automatic,main,87,20251014-105355,global,global,300,H,H,E,A,H-E.png,H-A.png,hH,hH,mask-3.png,mask-2.png,h,1,0.33908149995841086,h,1,0.1119474999140948,0.0488085001707077,0.048132099909707904,0.09976230002939701,0.09701189980842173,0.2997005002107471
RSVPLG03,MR,20251014-104641,1.0.1,20251014-090324,703,Experiment,Both,1,Automatic,main,88,20251014-105359,global,local,300,S,H,A,E,S-A.png,E-H.png,sS,hH,mask-4.png,mask-3.png,s,1,0.5887291000690311,s,0,0.05584679986350238,0.049923700047656894,0.04973780014552176,0.09836399997584522,0.09934650012291968,0.29916989989578724
RSVPLG03,MR,20251014-104641,1.0.1,20251014-090324,703,Experiment,Both,1,Automatic,main,89,20251014-105403,local,global,750,H,S,E,E,E-H.png,S-E.png,hH,sS,mask-3.png,mask-2.png,s,0,0.6137999999336898,s,1,0.07965090009383857,0.05087959999218583,0.04905360005795956,0.10134999989531934,0.0993041000328958,0.7485624998807907
RSVPLG03,MR,20251014-104641,1.0.1,20251014-090324,703,Experiment,Both,1,Automatic,main,90,20251014-105408,global,global,750,S,S,A,E,S-A.png,S-E.png,sS,sS,mask-1.png,mask-3.png,s,1,0.5685115000233054,s,1,0.09646399994380772,0.0494716998655349,0.0498794000595808,0.09942089999094605,0.09997049998492002,0.7482566998805851
RSVPLG03,MR,20251014-104641,1.0.1,20251014-090324,703,Experiment,Both,1,Automatic,main,91,20251014-105412,local,local,750,H,H,A,A,A-H.png,A-H.png,hH,hH,mask-1.png,mask-4.png,h,1,0.23923720000311732,h,1,0.13348300009965897,0.04949080012738705,0.04967720014974475,0.09979470004327595,0.09882030007429421,0.7478676999453455
RSVPLG03,MR,20251014-104641,1.0.1,20251014-090324,703,Experiment,Both,1,Automatic,main,92,20251014-105417,local,global,300,S,H,A,A,A-S.png,H-A.png,sS,hH,mask-2.png,mask-1.png,h,0,1.234948700061068,h,1,0.05457330006174743,0.04989139991812408,0.05108120013028383,0.10011229990050197,0.1013142999727279,0.29948439984582365
RSVPLG03,MR,20251014-104641,1.0.1,20251014-090324,703,Experiment,Both,1,Automatic,main,93,20251014-105422,local,global,300,H,H,A,E,A-H.png,H-E.png,hH,hH,mask-4.png,mask-3.png,h,1,0.4365540000144392,h,1,0.07726389984600246,0.048713100142776966,0.051744200056418777,0.09958010003902018,0.10040029999800026,0.29735890007577837
RSVPLG03,MR,20251014-104641,1.0.1,20251014-090324,703,Experiment,Both,1,Automatic,main,94,20251014-105426,local,local,300,H,H,E,E,E-H.png,E-H.png,hH,hH,mask-1.png,mask-3.png,s,0,2.511643399950117,s,0,0.10224370006471872,0.051515999948605895,0.04880369990132749,0.10003810003399849,0.09935709997080266,0.30100300000049174
RSVPLG03,MR,20251014-104641,1.0.1,20251014-090324,703,Experiment,Both,1,Automatic,main,95,20251014-105432,global,global,750,H,H,A,E,H-A.png,H-E.png,hH,hH,mask-4.png,mask-2.png,h,1,0.3306710999459028,h,1,0.07177579985000193,0.04968809988349676,0.049858600134029984,0.09946969989687204,0.10326940007507801,0.7475745999254286
RSVPLG03,MR,20251014-104641,1.0.1,20251014-090324,703,Experiment,Both,1,Automatic,main,96,20251014-105436,local,local,750,S,H,E,A,E-S.png,A-H.png,sS,hH,mask-1.png,mask-3.png,s,1,0.9052464999258518,h,1,0.18480039993301034,0.04985559987835586,0.051129099912941456,0.10046519991010427,0.09896390000358224,0.7474102000705898
RSVPLG03,MR,20251014-104641,1.0.1,20251014-090324,703,Experiment,Both,1,Automatic,main,97,20251014-105442,local,local,750,H,H,A,A,A-H.png,A-H.png,hH,hH,mask-3.png,mask-3.png,h,1,0.4685084999073297,h,1,0.08746909978799522,0.04881429998204112,0.05264520016498864,0.09985979995690286,0.09846200002357364,0.7485696999356151
RSVPLG03,MR,20251014-104641,1.0.1,20251014-090324,703,Experiment,Both,1,Automatic,main,98,20251014-105446,local,global,750,H,H,E,A,E-H.png,H-A.png,hH,hH,mask-3.png,mask-2.png,h,1,0.2799760000780225,h,1,0.10329609992913902,0.05038030003197491,0.049687599996104836,0.10038399999029934,0.10052830004133284,0.7477949999738485
RSVPLG03,MR,20251014-104641,1.0.1,20251014-090324,703,Experiment,Both,1,Automatic,main,99,20251014-105451,local,global,300,S,H,E,E,E-S.png,H-E.png,sS,hH,mask-3.png,mask-4.png,h,0,0.6223853998817503,h,1,0.20852129999548197,0.05000620009377599,0.04905000003054738,0.10069360001944005,0.0996012999676168,0.30059770005755126
RSVPLG03,MR,20251014-104641,1.0.1,20251014-090324,703,Experiment,Both,1,Automatic,main,100,20251014-105455,local,global,300,S,S,A,E,A-S.png,S-E.png,sS,sS,mask-4.png,mask-1.png,s,1,0.49883160018362105,h,0,0.041143300011754036,0.050262799952179193,0.05077839992009103,0.09959360002540052,0.10055530001409352,0.29905180004425347
RSVPLG03,MR,20251014-104641,1.0.1,20251014-090324,703,Experiment,Both,1,Automatic,main,101,20251014-105500,local,local,750,S,S,E,A,E-S.png,A-S.png,sS,sS,mask-3.png,mask-2.png,s,1,0.3767359000630677,s,1,0.08581149997189641,0.04872429999522865,0.04996669990941882,0.10067560011520982,0.10002349992282689,0.7475612000562251
RSVPLG03,MR,20251014-104641,1.0.1,20251014-090324,703,Experiment,Both,1,Automatic,main,102,20251014-105505,local,global,300,H,H,E,E,E-H.png,H-E.png,hH,hH,mask-3.png,mask-4.png,h,1,0.4325608001090586,h,1,0.11880489997565746,0.05172250000759959,0.04946619994007051,0.10015369998291135,0.10057299979962409,0.2997950001154095
RSVPLG03,MR,20251014-104641,1.0.1,20251014-090324,703,Experiment,Both,1,Automatic,main,103,20251014-105509,global,global,300,S,S,E,E,S-E.png,S-E.png,sS,sS,mask-2.png,mask-4.png,s,1,0.4101827999111265,s,1,0.10252519999630749,0.04949379991739988,0.04953889991156757,0.10013159993104637,0.09966599987819791,0.30026350007392466
RSVPLG03,MR,20251014-104641,1.0.1,20251014-090324,703,Experiment,Both,1,Automatic,main,104,20251014-105513,global,global,750,S,S,A,E,S-A.png,S-E.png,sS,sS,mask-4.png,mask-1.png,s,1,0.293817900121212,s,1,0.07905169995501637,0.04965699999593198,0.04845099989324808,0.09953310014680028,0.09902599989436567,0.7489883000962436
RSVPLG03,MR,20251014-104641,1.0.1,20251014-090324,703,Experiment,Both,1,Automatic,main,105,20251014-105517,global,local,750,S,H,A,A,S-A.png,A-H.png,sS,hH,mask-3.png,mask-3.png,s,1,0.49782159994356334,h,1,0.2235007998533547,0.051192599814385176,0.0500086999963969,0.09933130000717938,0.1007731999270618,0.7477359999902546
RSVPLG03,MR,20251014-104641,1.0.1,20251014-090324,703,Experiment,Both,1,Automatic,main,106,20251014-105522,local,global,750,S,H,E,E,E-S.png,H-E.png,sS,hH,mask-3.png,mask-2.png,s,1,0.45464379992336035,h,1,0.04456469998694956,0.04920860007405281,0.04885749984532595,0.09865260007791221,0.09984579985029995,0.7478462001308799
RSVPLG03,MR,20251014-104641,1.0.1,20251014-090324,703,Experiment,Both,1,Automatic,main,107,20251014-105527,local,global,300,S,S,E,A,E-S.png,S-A.png,sS,sS,mask-3.png,mask-3.png,s,1,1.0072132998611778,s,1,0.11192640010267496,0.04966710018925369,0.05060119996778667,0.0984834001865238,0.09926420007832348,0.2987665000837296
RSVPLG03,MR,20251014-104641,1.0.1,20251014-090324,703,Experiment,Both,1,Automatic,main,108,20251014-105531,global,local,750,H,H,E,A,H-E.png,A-H.png,hH,hH,mask-3.png,mask-1.png,h,1,0.246602299856022,h,1,0.09122860012575984,0.04865120002068579,0.05116959987208247,0.09867169987410307,0.09972649998962879,0.7465973000507802
RSVPLG03,MR,20251014-104641,1.0.1,20251014-090324,703,Experiment,Both,1,Automatic,main,109,20251014-105536,local,local,300,H,S,A,A,A-H.png,A-S.png,hH,sS,mask-3.png,mask-4.png,h,1,0.5751195999328047,s,1,0.4874281999655068,0.05075150006450713,0.04918490001000464,0.10056679998524487,0.09949269983917475,0.29995140014216304
RSVPLG03,MR,20251014-104641,1.0.1,20251014-090324,703,Experiment,Both,1,Automatic,main,110,20251014-105540,global,local,300,S,S,E,E,S-E.png,E-S.png,sS,sS,mask-2.png,mask-4.png,s,1,0.512073699850589,s,1,0.12069940008223057,0.04960799985565245,0.050695500103756785,0.10034759994596243,0.10005080001428723,0.2972648998256773
RSVPLG03,MR,20251014-104641,1.0.1,20251014-090324,703,Experiment,Both,1,Automatic,main,111,20251014-105545,global,local,300,S,S,E,A,S-E.png,A-S.png,sS,sS,mask-3.png,mask-4.png,s,1,0.9644434000365436,s,1,0.287565799895674,0.04881040006875992,0.051215199986472726,0.09873560001142323,0.10106920008547604,0.2980259999167174
RSVPLG03,MR,20251014-104641,1.0.1,20251014-090324,703,Experiment,Both,1,Automatic,main,112,20251014-105549,local,local,300,S,H,A,E,A-S.png,E-H.png,sS,hH,mask-1.png,mask-2.png,s,1,1.5656218999065459,h,1,0.07795800012536347,0.0497706001624465,0.05068180011585355,0.09931359998881817,0.09833190008066595,0.29945689998567104
RSVPLG03,MR,20251014-104641,1.0.1,20251014-090324,703,Experiment,Both,1,Automatic,main,113,20251014-105555,global,local,750,H,S,E,E,H-E.png,E-S.png,hH,sS,mask-4.png,mask-3.png,h,1,0.43625440006144345,s,1,0.20558639988303185,0.048849100014194846,0.04991229996085167,0.09781700000166893,0.09981030016206205,0.7486099998932332
RSVPLG03,MR,20251014-104641,1.0.1,20251014-090324,703,Experiment,Both,1,Automatic,main,114,20251014-105559,local,local,300,S,S,A,E,A-S.png,E-S.png,sS,sS,mask-2.png,mask-4.png,s,1,1.5972963001113385,h,0,0.016290999948978424,0.049696800066158175,0.04990029986947775,0.09955989988520741,0.0997436000034213,0.2996523000765592
RSVPLG03,MR,20251014-104641,1.0.1,20251014-090324,703,Experiment,Both,1,Automatic,main,115,20251014-105605,local,local,300,H,S,E,A,E-H.png,A-S.png,hH,sS,mask-3.png,mask-4.png,h,1,1.8445713999681175,h,0,0.07187059987336397,0.04942620010115206,0.049705500015988946,0.09923020005226135,0.09960779990069568,0.2993850000202656
RSVPLG03,MR,20251014-104641,1.0.1,20251014-090324,703,Experiment,Both,1,Automatic,main,116,20251014-105610,global,global,750,H,S,A,E,H-A.png,S-E.png,hH,sS,mask-1.png,mask-2.png,h,1,0.4902842999435961,s,1,0.6873097999487072,0.04916840000078082,0.04967639991082251,0.09947369992733002,0.10036360006779432,0.7479409999214113
RSVPLG03,MR,20251014-104641,1.0.1,20251014-090324,703,Experiment,Both,1,Automatic,main,117,20251014-105615,global,global,750,S,H,A,E,S-A.png,H-E.png,sS,hH,mask-3.png,mask-4.png,s,1,0.9262133999727666,h,1,0.4832636001519859,0.05012979987077415,0.04916630010120571,0.10041409987024963,0.09987180004827678,0.7489524998236448
RSVPLG03,MR,20251014-104641,1.0.1,20251014-090324,703,Experiment,Both,1,Automatic,main,118,20251014-105621,local,local,300,S,H,E,A,E-S.png,A-H.png,sS,hH,mask-3.png,mask-2.png,s,1,0.3580398000776768,h,1,0.16045839991420507,0.05074200010858476,0.0515729000326246,0.09947949997149408,0.10110680013895035,0.29857310000807047
RSVPLG03,MR,20251014-104641,1.0.1,20251014-090324,703,Experiment,Both,1,Automatic,main,119,20251014-105625,global,local,750,S,H,E,E,S-E.png,E-H.png,sS,hH,mask-1.png,mask-4.png,s,1,0.4424570999108255,h,1,0.06351700006052852,0.0496850002091378,0.049292099894955754,0.0995773000176996,0.09989660000428557,0.7476501001510769
RSVPLG03,MR,20251014-104641,1.0.1,20251014-090324,703,Experiment,Both,1,Automatic,main,120,20251014-105630,global,local,300,H,S,E,A,H-E.png,A-S.png,hH,sS,mask-1.png,mask-3.png,h,1,0.3501198999583721,h,0,0.11776420008391142,0.04946469981223345,0.04977050004526973,0.09977839980274439,0.09933650004677474,0.2988183998968452
RSVPLG03,MR,20251014-104641,1.0.1,20251014-090324,703,Experiment,Both,1,Automatic,main,121,20251014-105634,global,local,300,S,H,A,E,S-A.png,E-H.png,sS,hH,mask-4.png,mask-1.png,s,1,0.2772198000457138,s,0,0.5982121999841183,0.05057780002243817,0.05074370000511408,0.10105579998344183,0.10112310014665127,0.2997891998384148
RSVPLG03,MR,20251014-104641,1.0.1,20251014-090324,703,Experiment,Both,1,Automatic,main,122,20251014-105638,local,local,750,H,H,E,A,E-H.png,A-H.png,hH,hH,mask-3.png,mask-2.png,h,1,0.7846037000417709,h,1,0.08653250010684133,0.04988120007328689,0.04781729984097183,0.09929840010590851,0.09815149987116456,0.7480588001199067
