exp,exp_initials,runtime,ver,modtime,sub,blocktype,targets,cuetype,mode,trialtype,trial,trialtime,t1_level,t2_level,t2_lag,t1,t2,distractor1,distractor2,stimfile1,stimfile2,t1_corr,t2_corr,maskfile1,maskfile2,t1_resp,t1_acc,t1_rt,t2_resp,t2_acc,t2_rt,t1_dur,t2_dur,t1mask_soa,t2mask_soa,t1t2_soa
RSVPLG03,md,20251028-091412,1.0.1,20251020-085245,718,Introduction,T1,1,Automatic,main,1,20251028-092308,local,global,750,S,H,E,A,E-S.png,H-A.png,sS,hH,mask-2.png,mask-3.png,s,1,1.3189933999674395,none,-5,0,0.09737309999763966,0.09778609999921173,0.20052009995561093,0.20049169997218996,0.7485634000040591
RSVPLG03,md,20251028-091412,1.0.1,20251020-085245,718,Introduction,T1,1,Automatic,main,2,20251028-092314,global,local,750,S,H,E,A,S-E.png,A-H.png,sS,hH,mask-3.png,mask-2.png,h,0,1.4971763000357896,none,-5,0,0.09758279996458441,0.09649439994245768,0.19972079992294312,0.20021099993027747,0.7483643000014126
RSVPLG03,md,20251028-091412,1.0.1,20251020-085245,718,Introduction,T1,1,Automatic,main,3,20251028-092320,local,global,750,H,S,A,A,A-H.png,S-A.png,hH,sS,mask-4.png,mask-3.png,s,0,0.8450808000052348,none,-5,0,0.09744509996380657,0.09635450004134327,0.20034900004975498,0.19923270004801452,0.7492330999812111
RSVPLG03,md,20251028-091412,1.0.1,20251020-085245,718,Introduction,T1,1,Automatic,main,4,20251028-092325,global,local,750,S,S,A,A,S-A.png,A-S.png,sS,sS,mask-1.png,mask-1.png,s,1,0.9842232000082731,none,-5,0,0.09599990001879632,0.09758629999123514,0.19798710010945797,0.19865169993136078,0.7476905001094565
RSVPLG03,md,20251028-091412,1.0.1,20251020-085245,718,Introduction,T1,1,Automatic,main,5,20251028-092330,local,local,750,H,S,A,A,A-H.png,A-S.png,hH,sS,mask-1.png,mask-4.png,h,1,1.1838424999732524,none,-5,0,0.09571530006360263,0.09785319992806762,0.198278299998492,0.1997235999442637,0.7474991000490263
RSVPLG03,md,20251028-091412,1.0.1,20251020-085245,718,Introduction,T1,1,Automatic,main,6,20251028-092335,global,global,750,S,H,E,E,S-E.png,H-E.png,sS,hH,mask-4.png,mask-2.png,h,0,1.4336575999623165,none,-5,0,0.09739450004417449,0.09776140004396439,0.199313799967058,0.19864840002264827,0.7477168999612331
RSVPLG03,md,20251028-091412,1.0.1,20251020-085245,718,Introduction,T1,1,Automatic,main,7,20251028-092341,local,global,750,S,S,A,A,A-S.png,S-A.png,sS,sS,mask-1.png,mask-3.png,s,1,0.9289246000116691,none,-5,0,0.09749580000061542,0.09542000002693385,0.19938359991647303,0.19829309999477118,0.7492626999737695
RSVPLG03,md,20251028-091412,1.0.1,20251020-085245,718,Introduction,T1,1,Automatic,main,8,20251028-092346,local,global,750,H,H,E,A,E-H.png,H-A.png,hH,hH,mask-3.png,mask-4.png,h,1,0.6994482000591233,none,-5,0,0.09740730002522469,0.09659029997419566,0.20028410002123564,0.1987919999519363,0.7483966000145301
RSVPLG03,md,20251028-091412,1.0.1,20251020-085245,718,Introduction,T1,1,Automatic,main,9,20251028-092351,global,global,750,S,H,A,A,S-A.png,H-A.png,sS,hH,mask-2.png,mask-1.png,s,1,1.0736779000144452,none,-5,0,0.09739879996050149,0.09738220006693155,0.20028800005093217,0.20029990002512932,0.7481124999467283
RSVPLG03,md,20251028-091412,1.0.1,20251020-085245,718,Introduction,T1,1,Automatic,main,10,20251028-092356,local,local,750,H,S,A,E,A-H.png,E-S.png,hH,sS,mask-2.png,mask-1.png,h,1,0.7992668999359012,none,-5,0,0.09661659994162619,0.09776709997095168,0.19982029998209327,0.20075550000183284,0.7476265999721363
RSVPLG03,md,20251028-091412,1.0.1,20251020-085245,718,Introduction,T1,1,Automatic,main,11,20251028-092401,local,local,750,H,H,A,E,A-H.png,E-H.png,hH,hH,mask-3.png,mask-2.png,h,1,1.2890538000501692,none,-5,0,0.09572109999135137,0.09655929997097701,0.19809810002334416,0.1987253000261262,0.747861500014551
RSVPLG03,md,20251028-091412,1.0.1,20251020-085245,718,Introduction,T1,1,Automatic,main,12,20251028-092406,global,local,750,S,H,E,E,S-E.png,E-H.png,sS,hH,mask-2.png,mask-2.png,h,0,0.8531820999924093,none,-5,0,0.09701320005115122,0.09669940010644495,0.1990657999413088,0.19964180001989007,0.7494730999460444
RSVPLG03,md,20251028-091412,1.0.1,20251020-085245,718,Introduction,T1,1,Automatic,main,13,20251028-092411,global,global,750,S,H,A,E,S-A.png,H-E.png,sS,hH,mask-2.png,mask-3.png,h,0,1.1888392000691965,none,-5,0,0.09738570009358227,0.09613099996931851,0.19824520009569824,0.19849890004843473,0.7481550000375137
RSVPLG03,md,20251028-091412,1.0.1,20251020-085245,718,Introduction,T1,1,Automatic,main,14,20251028-092417,global,global,750,H,H,E,A,H-E.png,H-A.png,hH,hH,mask-1.png,mask-1.png,s,0,0.9775678999722004,none,-5,0,0.09765070001594722,0.09752559999469668,0.2006895000813529,0.1988608998944983,0.748682500096038
RSVPLG03,md,20251028-091412,1.0.1,20251020-085245,718,Introduction,T1,1,Automatic,main,15,20251028-092422,global,local,750,S,S,E,A,S-E.png,A-S.png,sS,sS,mask-4.png,mask-3.png,s,1,0.7058950000209734,none,-5,0,0.09746890002861619,0.09574129991233349,0.1993924000998959,0.1989291999489069,0.7495381000917405
RSVPLG03,md,20251028-091412,1.0.1,20251020-085245,718,Introduction,T1,1,Automatic,main,16,20251028-092427,local,local,750,S,S,A,A,A-S.png,A-S.png,sS,sS,mask-1.png,mask-2.png,s,1,0.7945853000273928,none,-5,0,0.09658959996886551,0.0965923999901861,0.19767749996390194,0.1986834000563249,0.7479765999596566
RSVPLG03,md,20251028-092508,1.0.1,20251020-085245,718,Practice,T1,1,Automatic,main,1,20251028-092528,global,local,300,H,S,A,A,H-A.png,A-S.png,hH,sS,mask-1.png,mask-1.png,s,0,1.2517698999727145,none,-5,0,0.04024610004853457,0.0473657000111416,0.0913411999354139,0.09899920003954321,0.2915365999797359
RSVPLG03,md,20251028-092508,1.0.1,20251020-085245,718,Practice,T1,1,Automatic,main,2,20251028-092533,global,global,300,H,H,E,A,H-E.png,H-A.png,hH,hH,mask-2.png,mask-3.png,h,1,0.6618712999625131,none,-5,0,0.04748839989770204,0.04860719991847873,0.09872029989492148,0.09981709998100996,0.2982975000049919
RSVPLG03,md,20251028-092508,1.0.1,20251020-085245,718,Practice,T1,1,Automatic,main,3,20251028-092537,local,global,300,S,H,E,A,E-S.png,H-A.png,sS,hH,mask-4.png,mask-4.png,s,1,0.8283024999545887,none,-5,0,0.048687399947084486,0.04771329998038709,0.0998730999417603,0.09902580000925809,0.2994366999482736
RSVPLG03,md,20251028-092508,1.0.1,20251020-085245,718,Practice,T1,1,Automatic,main,4,20251028-092542,global,global,750,S,S,A,A,S-A.png,S-A.png,sS,sS,mask-3.png,mask-2.png,s,1,0.6779566000914201,none,-5,0,0.047682999982498586,0.048712900024838746,0.09918450005352497,0.10089480003807694,0.7488794999662787
RSVPLG03,md,20251028-092508,1.0.1,20251020-085245,718,Practice,T1,1,Automatic,main,5,20251028-092546,global,local,300,S,S,A,A,S-A.png,A-S.png,sS,sS,mask-4.png,mask-2.png,s,1,0.6030104000819847,none,-5,0,0.04752220003865659,0.04698170011397451,0.09949439996853471,0.09950190002564341,0.29900709993671626
RSVPLG03,md,20251028-092508,1.0.1,20251020-085245,718,Practice,T1,1,Automatic,main,6,20251028-092550,local,local,750,H,S,A,A,A-H.png,A-S.png,hH,sS,mask-3.png,mask-4.png,h,1,1.700551399961114,none,-5,0,0.046558900037780404,0.046603400027379394,0.09850670001469553,0.09857229993212968,0.7477274000411853
RSVPLG03,md,20251028-092508,1.0.1,20251020-085245,718,Practice,T1,1,Automatic,main,7,20251028-092556,local,local,750,H,H,E,A,E-H.png,A-H.png,hH,hH,mask-1.png,mask-4.png,h,1,0.7696104000788182,none,-5,0,0.04705569997895509,0.046847500023432076,0.10090540000237525,0.09990259993355721,0.7485703000565991
RSVPLG03,md,20251028-092508,1.0.1,20251020-085245,718,Practice,T1,1,Automatic,main,8,20251028-092601,global,local,750,H,S,A,E,H-A.png,E-S.png,hH,sS,mask-4.png,mask-1.png,h,1,0.7211355000035837,none,-5,0,0.04568640002980828,0.04760000004898757,0.10006100009195507,0.09978010004851967,0.7481353000039235
RSVPLG03,md,20251028-092508,1.0.1,20251020-085245,718,Practice,T1,1,Automatic,main,9,20251028-092605,global,global,300,S,H,E,E,S-E.png,H-E.png,sS,hH,mask-1.png,mask-2.png,s,1,0.5610460999887437,none,-5,0,0.04750459990464151,0.04761190002318472,0.09954229998402297,0.10068120004143566,0.29986409994307905
RSVPLG03,md,20251028-092508,1.0.1,20251020-085245,718,Practice,T1,1,Automatic,main,10,20251028-092609,local,local,300,S,H,A,A,A-S.png,A-H.png,sS,hH,mask-2.png,mask-1.png,s,1,1.3366068999748677,none,-5,0,0.046978100086562335,0.04708419996313751,0.10028400004375726,0.09925480000674725,0.3005862000863999
RSVPLG03,md,20251028-092508,1.0.1,20251020-085245,718,Practice,T1,1,Automatic,main,11,20251028-092614,global,global,750,S,H,A,E,S-A.png,H-E.png,sS,hH,mask-1.png,mask-1.png,s,1,0.9846072000218555,none,-5,0,0.047692200052551925,0.047792800003662705,0.09989260009024292,0.10091659997124225,0.7475941000739112
RSVPLG03,md,20251028-092508,1.0.1,20251020-085245,718,Practice,T1,1,Automatic,main,12,20251028-092619,local,global,300,H,S,E,A,E-H.png,S-A.png,hH,sS,mask-2.png,mask-1.png,h,1,0.510748100001365,none,-5,0,0.04773990006651729,0.04613730008713901,0.0993898999877274,0.09899170009884983,0.299366099992767
RSVPLG03,md,20251028-092508,1.0.1,20251020-085245,718,Practice,T1,1,Automatic,main,13,20251028-092623,local,global,750,H,S,E,E,E-H.png,S-E.png,hH,sS,mask-3.png,mask-2.png,h,1,0.8458990000654012,none,-5,0,0.04637780005577952,0.04812870000023395,0.09895899996627122,0.09895620006136596,0.7481631999835372
RSVPLG03,md,20251028-092508,1.0.1,20251020-085245,718,Practice,T1,1,Automatic,main,14,20251028-092628,global,local,750,S,H,A,E,S-A.png,E-H.png,sS,hH,mask-2.png,mask-1.png,s,1,1.0507582999998704,none,-5,0,0.04702320008073002,0.047777900006622076,0.10105000005569309,0.09970929997507483,0.7477741000475362
RSVPLG03,md,20251028-092508,1.0.1,20251020-085245,718,Practice,T1,1,Automatic,main,15,20251028-092633,local,global,750,S,S,E,E,E-S.png,S-E.png,sS,sS,mask-3.png,mask-1.png,s,1,0.8328864000504836,none,-5,0,0.0475250999443233,0.04779940005391836,0.09892409993335605,0.10053549997974187,0.7480330999242142
RSVPLG03,md,20251028-092508,1.0.1,20251020-085245,718,Practice,T1,1,Automatic,main,16,20251028-092638,local,local,300,S,S,E,E,E-S.png,E-S.png,sS,sS,mask-3.png,mask-4.png,s,1,0.6756350999930874,none,-5,0,0.04770739993546158,0.04763250006362796,0.09911359997931868,0.09982760006096214,0.29992409993428737
RSVPLG03,md,20251028-092747,1.0.1,20251020-085245,718,Practice,Both,1,Automatic,main,1,20251028-092807,global,global,300,S,S,E,E,S-E.png,S-E.png,sS,sS,mask-1.png,mask-4.png,s,1,0.6366672000149265,h,0,3.469251099973917,0.0399735999526456,0.0475567999528721,0.0930537999374792,0.10084690002258867,0.29253430000972
RSVPLG03,md,20251028-092747,1.0.1,20251020-085245,718,Practice,Both,1,Automatic,main,2,20251028-092815,local,global,750,H,H,A,A,A-H.png,H-A.png,hH,hH,mask-2.png,mask-3.png,h,1,1.0327135000843555,s,0,0.7059891000390053,0.048631299985572696,0.04665419994853437,0.1004460999974981,0.1009351999964565,0.7519733000081033
RSVPLG03,md,20251028-092747,1.0.1,20251020-085245,718,Practice,Both,1,Automatic,main,3,20251028-092821,global,global,750,S,H,E,A,S-E.png,H-A.png,sS,hH,mask-1.png,mask-2.png,s,1,1.1407758999848738,h,1,1.1418989000376314,0.046212000073865056,0.04770729993470013,0.10023290000390261,0.0998844999121502,0.7513846000656486
RSVPLG03,md,20251028-092747,1.0.1,20251020-085245,718,Practice,Both,1,Automatic,main,4,20251028-092827,local,local,300,H,H,E,A,E-H.png,A-H.png,hH,hH,mask-3.png,mask-1.png,h,1,0.907454099971801,s,0,0.929725700058043,0.048608000040985644,0.04859809996560216,0.10064130008686334,0.09960199997294694,0.3010702000465244
RSVPLG03,md,20251028-092747,1.0.1,20251020-085245,718,Practice,Both,1,Automatic,main,5,20251028-092833,local,local,300,H,H,E,E,E-H.png,E-H.png,hH,hH,mask-1.png,mask-4.png,h,1,1.0464256000705063,h,1,0.9914049999788404,0.047219400061294436,0.04651979997288436,0.09917539998423308,0.09975469997152686,0.30092740000691265
RSVPLG03,md,20251028-092747,1.0.1,20251020-085245,718,Practice,Both,1,Automatic,main,6,20251028-092838,global,local,750,S,H,A,A,S-A.png,A-H.png,sS,hH,mask-4.png,mask-4.png,s,1,1.0092946999939159,h,1,0.6884088999358937,0.04734029993414879,0.047604700084775686,0.10018700000364333,0.1000434000743553,0.7518674999009818
RSVPLG03,md,20251028-092747,1.0.1,20251020-085245,718,Practice,Both,1,Automatic,main,7,20251028-092844,global,local,300,H,S,A,E,H-A.png,E-S.png,hH,sS,mask-1.png,mask-2.png,h,1,0.9945964000653476,s,1,0.5856047000270337,0.047797500039450824,0.047647599945776165,0.10099070006981492,0.10143619996961206,0.3007807000540197
RSVPLG03,md,20251028-092747,1.0.1,20251020-085245,718,Practice,Both,1,Automatic,main,8,20251028-092849,global,global,300,S,S,E,A,S-E.png,S-A.png,sS,sS,mask-3.png,mask-1.png,s,1,0.8479864000109956,h,0,0.2995399000355974,0.04740519996266812,0.04866739991120994,0.099484600010328,0.09951219998765737,0.29981550003867596
RSVPLG03,md,20251028-092747,1.0.1,20251020-085245,718,Practice,Both,1,Automatic,main,9,20251028-092854,global,global,750,S,H,A,A,S-A.png,H-A.png,sS,hH,mask-1.png,mask-2.png,s,1,1.2310065999627113,h,1,1.2949174999957904,0.047772300080396235,0.04668339993804693,0.10080580005887896,0.10052340000402182,0.7518636001041159
RSVPLG03,md,20251028-092747,1.0.1,20251020-085245,718,Practice,Both,1,Automatic,main,10,20251028-092859,local,global,300,S,S,E,E,E-S.png,S-E.png,sS,sS,mask-2.png,mask-4.png,s,1,0.570750700077042,h,0,0.5336869999300689,0.04772809997666627,0.04721280001103878,0.09952619997784495,0.09975059994030744,0.29965489997994155
RSVPLG03,md,20251028-092747,1.0.1,20251020-085245,718,Practice,Both,1,Automatic,main,11,20251028-092904,local,local,750,H,H,A,E,A-H.png,E-H.png,hH,hH,mask-1.png,mask-3.png,h,1,0.7965125000337139,h,1,0.17040099995210767,0.04749529995024204,0.047449300065636635,0.10052039998117834,0.09964839997701347,0.751749699935317
RSVPLG03,md,20251028-092747,1.0.1,20251020-085245,718,Practice,Both,1,Automatic,main,12,20251028-092909,local,local,750,S,S,E,E,E-S.png,E-S.png,sS,sS,mask-2.png,mask-3.png,s,1,0.7626704999711365,s,1,1.4546164999483153,0.04745589999947697,0.04725719999987632,0.10042439994867891,0.098681699950248,0.753486100002192
RSVPLG03,md,20251028-092747,1.0.1,20251020-085245,718,Practice,Both,1,Automatic,main,13,20251028-092916,global,local,750,H,H,E,E,H-E.png,E-H.png,hH,hH,mask-4.png,mask-3.png,s,0,1.1906921999761835,h,1,0.12185609992593527,0.047690900042653084,0.04750290000811219,0.10158190003130585,0.09964130003936589,0.7524796000216156
RSVPLG03,md,20251028-092747,1.0.1,20251020-085245,718,Practice,Both,1,Automatic,main,14,20251028-092921,global,local,300,H,H,E,A,H-E.png,A-H.png,hH,hH,mask-1.png,mask-4.png,h,1,0.8113772999495268,s,0,0.16579189989715815,0.046469700057059526,0.048111199983395636,0.10035209998022765,0.10053749999497086,0.29997749999165535
RSVPLG03,md,20251028-092747,1.0.1,20251020-085245,718,Practice,Both,1,Automatic,main,15,20251028-092926,local,global,300,S,S,E,E,E-S.png,S-E.png,sS,sS,mask-2.png,mask-3.png,s,1,1.2759653000393882,h,0,0.18427730002440512,0.0476065999828279,0.047674500034190714,0.09947530005592853,0.10096310009248555,0.30004889995325357
RSVPLG03,md,20251028-092747,1.0.1,20251020-085245,718,Practice,Both,1,Automatic,main,16,20251028-092931,local,global,750,H,S,E,E,E-H.png,S-E.png,hH,sS,mask-4.png,mask-4.png,h,1,1.8247365999268368,s,1,1.3131956999422982,0.04677000001538545,0.04552469996269792,0.09919570002239197,0.09947310003917664,0.7523150000488386
RSVPLG03,md,20251028-093001,1.0.1,20251020-085245,718,Practice,Both,1,Automatic,main,1,20251028-093025,global,local,750,S,H,A,E,S-A.png,E-H.png,sS,hH,mask-1.png,mask-3.png,s,1,1.080722299986519,h,1,0.4492639999371022,0.04012910008896142,0.04872999992221594,0.09301130007952452,0.1018476999597624,0.7434546001022682
RSVPLG03,md,20251028-093001,1.0.1,20251020-085245,718,Practice,Both,1,Automatic,main,2,20251028-093031,local,global,750,S,S,A,A,A-S.png,S-A.png,sS,sS,mask-1.png,mask-4.png,s,1,0.6344167999923229,s,1,0.2748779999092221,0.04754059994593263,0.047509800060652196,0.0996205999981612,0.09968290000688285,0.7500357999233529
RSVPLG03,md,20251028-093001,1.0.1,20251020-085245,718,Practice,Both,1,Automatic,main,3,20251028-093036,global,global,300,S,S,E,E,S-E.png,S-E.png,sS,sS,mask-2.png,mask-2.png,s,1,0.6180908000096679,h,0,0.009812999982386827,0.047517500002868474,0.04860239999834448,0.09856509999372065,0.09984869998879731,0.29930590000003576
RSVPLG03,md,20251028-093001,1.0.1,20251020-085245,718,Practice,Both,1,Automatic,main,4,20251028-093040,global,global,300,S,H,A,E,S-A.png,H-E.png,sS,hH,mask-3.png,mask-1.png,s,1,0.5164839000208303,h,1,0.20779840007890016,0.04841430007945746,0.04749549995176494,0.10097220004536211,0.10049859993159771,0.3012905000941828
RSVPLG03,md,20251028-093001,1.0.1,20251020-085245,718,Practice,Both,1,Automatic,main,5,20251028-093045,local,local,300,H,S,A,A,A-H.png,A-S.png,hH,sS,mask-1.png,mask-2.png,h,1,0.5573965999064967,s,1,0.0773850999539718,0.04657400003634393,0.04752270004246384,0.09961250005289912,0.09957439999561757,0.2998184999451041
RSVPLG03,md,20251028-093001,1.0.1,20251020-085245,718,Practice,Both,1,Automatic,main,6,20251028-093049,global,local,750,H,S,E,E,H-E.png,E-S.png,hH,sS,mask-3.png,mask-1.png,h,1,0.7743529999861494,s,1,0.021686499938368797,0.048511300003156066,0.04755839996505529,0.0995143000036478,0.09957409999333322,0.7513307000044733
RSVPLG03,md,20251028-093001,1.0.1,20251020-085245,718,Practice,Both,1,Automatic,main,7,20251028-093054,local,global,300,S,S,E,E,E-S.png,S-E.png,sS,sS,mask-4.png,mask-2.png,h,0,0.6249182999599725,s,1,1.2709746999898925,0.0473970000166446,0.047004700056277215,0.09969120007008314,0.09891249996144325,0.3001989000476897
RSVPLG03,md,20251028-093001,1.0.1,20251020-085245,718,Practice,Both,1,Automatic,main,8,20251028-093100,local,local,750,S,H,E,A,E-S.png,A-H.png,sS,hH,mask-4.png,mask-3.png,s,1,0.7425852000014856,h,1,0.2369874999858439,0.048543799901381135,0.0477621000027284,0.09931429999414831,0.09994440001901239,0.7511295999865979
RSVPLG03,md,20251028-093001,1.0.1,20251020-085245,718,Practice,Both,1,Automatic,main,9,20251028-093105,local,local,300,H,H,A,A,A-H.png,A-H.png,hH,hH,mask-4.png,mask-4.png,h,1,0.4927589000435546,h,1,0.2032486000098288,0.04812750010751188,0.04859629995189607,0.10141190001741052,0.10049059998709708,0.30039810005109757
RSVPLG03,md,20251028-093001,1.0.1,20251020-085245,718,Practice,Both,1,Automatic,main,10,20251028-093109,global,global,750,S,H,E,E,S-E.png,H-E.png,sS,hH,mask-2.png,mask-4.png,s,1,0.6402166000334546,h,1,0.18097660003695637,0.04850380006246269,0.04714579996652901,0.10072019998915493,0.10008310002740473,0.7510857000015676
RSVPLG03,md,20251028-093001,1.0.1,20251020-085245,718,Practice,Both,1,Automatic,main,11,20251028-093114,global,local,300,S,S,E,E,S-E.png,E-S.png,sS,sS,mask-4.png,mask-2.png,s,1,0.737341700005345,s,1,0.7321738000027835,0.04750569991301745,0.04749730008188635,0.09965160000137985,0.09951940004248172,0.29990799992810935
RSVPLG03,md,20251028-093001,1.0.1,20251020-085245,718,Practice,Both,1,Automatic,main,12,20251028-093119,local,global,750,H,S,A,E,A-H.png,S-E.png,hH,sS,mask-4.png,mask-4.png,h,1,1.8577074999921024,h,0,2.5074175999034196,0.0465753999305889,0.04768129996955395,0.09881369990762323,0.10153729992453009,0.7494031999958679
RSVPLG03,md,20251028-093001,1.0.1,20251020-085245,718,Practice,Both,1,Automatic,main,13,20251028-093128,local,global,300,S,S,E,A,E-S.png,S-A.png,sS,sS,mask-4.png,mask-4.png,s,1,1.325102400034666,h,0,0.3373721999814734,0.047521600034087896,0.04749919997993857,0.09965750004630536,0.10059350007213652,0.29993199999444187
RSVPLG03,md,20251028-093001,1.0.1,20251020-085245,718,Practice,Both,1,Automatic,main,14,20251028-093133,global,global,750,H,S,E,E,H-E.png,S-E.png,hH,sS,mask-1.png,mask-1.png,h,1,0.6996538999956101,s,1,0.08220659999642521,0.04921720002312213,0.04553869995288551,0.10022000002209097,0.09957890002988279,0.7527522000018507
RSVPLG03,md,20251028-093001,1.0.1,20251020-085245,718,Practice,Both,1,Automatic,main,15,20251028-093138,global,local,300,H,H,A,A,H-A.png,A-H.png,hH,hH,mask-3.png,mask-3.png,h,1,1.853542400058359,s,0,0.9890237000072375,0.04751230007968843,0.047533400007523596,0.0995350000448525,0.10054410004522651,0.2998549999902025
RSVPLG03,md,20251028-093001,1.0.1,20251020-085245,718,Practice,Both,1,Automatic,main,16,20251028-093145,local,local,750,S,S,E,E,E-S.png,E-S.png,sS,sS,mask-1.png,mask-4.png,s,1,0.4912343999603763,s,1,0.21950350003316998,0.04853890009690076,0.047492400044575334,0.1015828000381589,0.10149759997148067,0.7510000000474975
RSVPLG03,md,20251028-093316,1.0.1,20251020-085245,718,Experiment,Both,1,Automatic,warmup,1,20251028-093419,global,global,750,H,S,E,A,H-E.png,S-A.png,hH,sS,mask-2.png,mask-2.png,h,1,0.7813097999896854,s,1,0.180072300019674,0.04002850002143532,0.04767799994442612,0.09238309995271266,0.10085049993358552,0.7429687000112608
RSVPLG03,md,20251028-093316,1.0.1,20251020-085245,718,Experiment,Both,1,Automatic,warmup,2,20251028-093424,global,global,300,S,H,A,A,S-A.png,H-A.png,sS,hH,mask-2.png,mask-1.png,s,1,1.8504578000865877,h,1,0.5086692000040784,0.048252100008539855,0.04745850001927465,0.09976700006518513,0.10034490004181862,0.30083860002923757
RSVPLG03,md,20251028-093316,1.0.1,20251020-085245,718,Experiment,Both,1,Automatic,warmup,3,20251028-093430,local,global,300,S,H,E,E,E-S.png,H-E.png,sS,hH,mask-2.png,mask-2.png,s,1,1.4890272999182343,h,1,1.5696104998933151,0.047420899965800345,0.04757249995600432,0.10038800002075732,0.09859489998780191,0.30164920003153384
RSVPLG03,md,20251028-093316,1.0.1,20251020-085245,718,Experiment,Both,1,Automatic,warmup,4,20251028-093435,local,local,300,S,H,A,A,A-S.png,A-H.png,sS,hH,mask-4.png,mask-3.png,s,1,0.6050377999199554,h,1,0.732979099964723,0.047566400025971234,0.047622499987483025,0.10003760003019124,0.09839199995622039,0.3005958000430837
RSVPLG03,md,20251028-093316,1.0.1,20251020-085245,718,Experiment,Both,1,Automatic,warmup,5,20251028-093439,global,local,300,S,H,A,E,S-A.png,E-H.png,sS,hH,mask-3.png,mask-2.png,s,1,1.111099199973978,h,1,0.4067885000258684,0.0475878999568522,0.04748359997756779,0.09995890001300722,0.09832300001289696,0.3014959000283852
RSVPLG03,md,20251028-093316,1.0.1,20251020-085245,718,Experiment,Both,1,Automatic,main,6,20251028-093444,global,local,750,S,H,E,E,S-E.png,E-H.png,sS,hH,mask-3.png,mask-4.png,s,1,0.6557251999620348,h,1,0.3118150000227615,0.04610849998425692,0.04736830003093928,0.09932759997900575,0.10092250001616776,0.7501578000374138
RSVPLG03,md,20251028-093316,1.0.1,20251020-085245,718,Experiment,Both,1,Automatic,main,7,20251028-093449,global,local,750,S,S,E,A,S-E.png,A-S.png,sS,sS,mask-1.png,mask-3.png,s,1,0.5926399999298155,h,0,0.266287500038743,0.04845470003783703,0.048154099960811436,0.10066750005353242,0.09979879995808005,0.7508309000404552
RSVPLG03,md,20251028-093316,1.0.1,20251020-085245,718,Experiment,Both,1,Automatic,main,8,20251028-093454,local,global,300,H,S,A,A,A-H.png,S-A.png,hH,sS,mask-3.png,mask-1.png,h,1,1.0854544000467286,s,1,0.6378222000785172,0.04910509998444468,0.0492073999485001,0.1002038000151515,0.1004759999923408,0.29996410000603646
RSVPLG03,md,20251028-093316,1.0.1,20251020-085245,718,Experiment,Both,1,Automatic,main,9,20251028-093500,local,local,750,S,S,E,A,E-S.png,A-S.png,sS,sS,mask-2.png,mask-4.png,s,1,0.4894442999502644,s,1,0.5439784999471158,0.047617899952456355,0.047064000042155385,0.09981589997187257,0.10022150003351271,0.7501698998967186
RSVPLG03,md,20251028-093316,1.0.1,20251020-085245,718,Experiment,Both,1,Automatic,main,10,20251028-093505,local,global,750,S,H,A,A,A-S.png,H-A.png,sS,hH,mask-2.png,mask-1.png,s,1,1.0313311000354588,h,1,0.1523548000259325,0.047692400054074824,0.04743050003889948,0.0998614999698475,0.09838350000791252,0.7517884999979287
RSVPLG03,md,20251028-093316,1.0.1,20251020-085245,718,Experiment,Both,1,Automatic,main,11,20251028-093510,global,global,750,S,H,E,A,S-E.png,H-A.png,sS,hH,mask-2.png,mask-3.png,s,1,1.0673098999541253,h,1,0.002902099979110062,0.04770919994916767,0.04671899997629225,0.10095069999806583,0.09892140002921224,0.7513305000029504
RSVPLG03,md,20251028-093316,1.0.1,20251020-085245,718,Experiment,Both,1,Automatic,main,12,20251028-093516,local,global,750,S,S,A,E,A-S.png,S-E.png,sS,sS,mask-2.png,mask-1.png,s,1,1.4556620999937877,h,0,0.05255689995829016,0.048496800009161234,0.04833719995804131,0.09979589993599802,0.09907390002626926,0.7508848999859765
RSVPLG03,md,20251028-093316,1.0.1,20251020-085245,718,Experiment,Both,1,Automatic,main,13,20251028-093521,global,local,300,H,H,E,A,H-E.png,A-H.png,hH,hH,mask-3.png,mask-2.png,s,0,1.0406707000220194,h,1,0.049877399927936494,0.04749899997841567,0.04850619996432215,0.09951159998308867,0.10150609991978854,0.29878549999557436
RSVPLG03,md,20251028-093316,1.0.1,20251020-085245,718,Experiment,Both,1,Automatic,main,14,20251028-093526,global,local,300,S,H,E,E,S-E.png,E-H.png,sS,hH,mask-3.png,mask-1.png,s,1,0.8433168999617919,h,1,0.3955534000415355,0.04852209996897727,0.04862909996882081,0.10035409999545664,0.09967099991627038,0.3004750000545755
RSVPLG03,md,20251028-093316,1.0.1,20251020-085245,718,Experiment,Both,1,Automatic,main,15,20251028-093531,global,global,750,H,S,A,E,H-A.png,S-E.png,hH,sS,mask-4.png,mask-2.png,s,0,1.0752436000620946,h,0,0.09101089998148382,0.04771389998495579,0.04780199995730072,0.09989750001113862,0.09998099994845688,0.7500654000323266
RSVPLG03,md,20251028-093316,1.0.1,20251020-085245,718,Experiment,Both,1,Automatic,main,16,20251028-093536,global,local,750,S,H,E,A,S-E.png,A-H.png,sS,hH,mask-1.png,mask-1.png,s,1,0.5792995999800041,h,1,0.13868869992438704,0.04950530000496656,0.047296299948357046,0.10071589995641261,0.09931910003069788,0.75221629999578
RSVPLG03,md,20251028-093316,1.0.1,20251020-085245,718,Experiment,Both,1,Automatic,main,17,20251028-093541,global,local,750,H,H,E,A,H-E.png,A-H.png,hH,hH,mask-3.png,mask-4.png,h,1,0.5534054999006912,h,1,0.13928040000610054,0.04754310008138418,0.04590759996790439,0.09940930001903325,0.09895050001796335,0.750330200069584
RSVPLG03,md,20251028-093316,1.0.1,20251020-085245,718,Experiment,Both,1,Automatic,main,18,20251028-093546,local,local,750,S,H,E,E,E-S.png,E-H.png,sS,hH,mask-4.png,mask-4.png,s,1,1.1868357999483123,h,1,0.7808497999794781,0.04750610003247857,0.047970699961297214,0.09996849996969104,0.10108769999351352,0.7486228999914601
RSVPLG03,md,20251028-093316,1.0.1,20251020-085245,718,Experiment,Both,1,Automatic,main,19,20251028-093552,global,global,750,S,S,A,A,S-A.png,S-A.png,sS,sS,mask-3.png,mask-3.png,s,1,0.5042809000005946,s,1,0.10214589990209788,0.04654599993955344,0.04851370002143085,0.09854989999439567,0.0995155000127852,0.7497877998976037
RSVPLG03,md,20251028-093316,1.0.1,20251020-085245,718,Experiment,Both,1,Automatic,main,20,20251028-093557,global,global,750,H,S,E,A,H-E.png,S-A.png,hH,sS,mask-4.png,mask-1.png,h,1,1.0822359999874607,s,1,0.6217635000357404,0.04807519994210452,0.04877630004193634,0.1003410000121221,0.10036979999858886,0.7500217999331653
RSVPLG03,md,20251028-093316,1.0.1,20251020-085245,718,Experiment,Both,1,Automatic,main,21,20251028-093603,global,local,750,S,H,A,A,S-A.png,A-H.png,sS,hH,mask-3.png,mask-1.png,s,1,1.035565400030464,h,1,0.5201136999530718,0.04850019991863519,0.04653400008101016,0.10067459999118,0.09967230004258454,0.7521735999034718
RSVPLG03,md,20251028-093316,1.0.1,20251020-085245,718,Experiment,Both,1,Automatic,main,22,20251028-093608,global,global,750,S,H,E,A,S-E.png,H-A.png,sS,hH,mask-2.png,mask-3.png,s,1,0.8110721999546513,h,1,2.4273709999397397,0.04763080005068332,0.046170700108632445,0.09832890005782247,0.09947330004069954,0.7504558999789879
RSVPLG03,md,20251028-093316,1.0.1,20251020-085245,718,Experiment,Both,1,Automatic,main,23,20251028-093616,global,local,300,H,H,E,A,H-E.png,A-H.png,hH,hH,mask-3.png,mask-3.png,h,1,3.121212799916975,s,0,1.8317106999456882,0.04752550006378442,0.045896600000560284,0.09926060005091131,0.09874340007081628,0.29996750003192574
RSVPLG03,md,20251028-093316,1.0.1,20251020-085245,718,Experiment,Both,1,Automatic,main,24,20251028-093625,global,global,750,H,S,E,E,H-E.png,S-E.png,hH,sS,mask-3.png,mask-3.png,h,1,0.6363557999720797,s,1,0.5695410000625998,0.04761590005364269,0.0480277999304235,0.10101320000831038,0.10025519994087517,0.7501960000954568
RSVPLG03,md,20251028-093316,1.0.1,20251020-085245,718,Experiment,Both,1,Automatic,main,25,20251028-093630,global,global,300,S,S,A,A,S-A.png,S-A.png,sS,sS,mask-4.png,mask-1.png,s,1,0.940185800078325,s,1,0.5837823000038043,0.04876579996198416,0.04747029999271035,0.10015529999509454,0.098478400032036,0.3022002000361681
RSVPLG03,md,20251028-093316,1.0.1,20251020-085245,718,Experiment,Both,1,Automatic,main,26,20251028-093723,local,global,750,S,S,A,E,A-S.png,S-E.png,sS,sS,mask-3.png,mask-1.png,s,1,1.5573226000415161,h,0,0.40671840007416904,0.04788410000037402,0.048003199975937605,0.1001072000944987,0.10065939999185503,0.7504848000826314
RSVPLG03,md,20251028-093316,1.0.1,20251020-085245,718,Experiment,Both,1,Automatic,main,27,20251028-093729,local,local,300,S,H,E,E,E-S.png,E-H.png,sS,hH,mask-2.png,mask-4.png,s,1,0.40922469994984567,h,1,0.32112819992471486,0.04739780002273619,0.04854160000104457,0.09937129996251315,0.09999450005125254,0.2991286999313161
RSVPLG03,md,20251028-093316,1.0.1,20251020-085245,718,Experiment,Both,1,Automatic,main,28,20251028-093734,local,global,750,S,S,A,E,A-S.png,S-E.png,sS,sS,mask-3.png,mask-4.png,s,1,0.8084630999946967,h,0,0.06275739998091012,0.04758500005118549,0.047865499975159764,0.09914730000309646,0.10105719999410212,0.7496993000386283
RSVPLG03,md,20251028-093316,1.0.1,20251020-085245,718,Experiment,Both,1,Automatic,main,29,20251028-093739,local,local,750,S,H,A,E,A-S.png,E-H.png,sS,hH,mask-1.png,mask-4.png,s,1,0.9894581999396905,s,0,0.3539042000193149,0.04762880003545433,0.04871659993659705,0.09930150001309812,0.10191229998599738,0.7504381000762805
RSVPLG03,md,20251028-093316,1.0.1,20251020-085245,718,Experiment,Both,1,Automatic,main,30,20251028-093744,local,local,300,S,S,A,A,A-S.png,A-S.png,sS,sS,mask-1.png,mask-3.png,s,1,0.4569380000466481,s,1,0.44716689991764724,0.04853190004359931,0.046700399951078,0.10087070008739829,0.09919789992272854,0.30129000009037554
RSVPLG03,md,20251028-093316,1.0.1,20251020-085245,718,Experiment,Both,1,Automatic,main,31,20251028-093749,global,local,300,S,H,E,E,S-E.png,E-H.png,sS,hH,mask-3.png,mask-3.png,s,1,0.9438090000767261,h,1,0.0351156999822706,0.047659600037150085,0.04776280000805855,0.10183230007532984,0.10093700001016259,0.30105710006318986
RSVPLG03,md,20251028-093316,1.0.1,20251020-085245,718,Experiment,Both,1,Automatic,main,32,20251028-093754,global,local,750,H,S,E,E,H-E.png,E-S.png,hH,sS,mask-4.png,mask-4.png,s,0,1.6545896999305114,h,0,0.07093749998603016,0.046031399979256094,0.047395700006745756,0.09906559996306896,0.09952079993672669,0.7509203000226989
RSVPLG03,md,20251028-093316,1.0.1,20251020-085245,718,Experiment,Both,1,Automatic,main,33,20251028-093800,local,global,300,H,H,E,A,E-H.png,H-A.png,hH,hH,mask-1.png,mask-4.png,h,1,0.6733332999283448,s,0,0.04087280004750937,0.04757319996133447,0.0482641999842599,0.10128059994895011,0.10092669993173331,0.3000854999991134
RSVPLG03,md,20251028-093316,1.0.1,20251020-085245,718,Experiment,Both,1,Automatic,main,34,20251028-093804,global,local,300,S,H,A,A,S-A.png,A-H.png,sS,hH,mask-1.png,mask-2.png,s,1,1.0865352000109851,h,1,1.7510715000098571,0.04774740000721067,0.046688899979926646,0.10002989997155964,0.0999621000373736,0.2999741999665275
RSVPLG03,md,20251028-093316,1.0.1,20251020-085245,718,Experiment,Both,1,Automatic,main,35,20251028-093810,local,global,750,H,S,A,A,A-H.png,S-A.png,hH,sS,mask-1.png,mask-1.png,h,1,0.9013703999808058,h,0,0.2503073000116274,0.04597219999413937,0.047678499948233366,0.09819310007151216,0.09983510000165552,0.7492436000611633
RSVPLG03,md,20251028-093316,1.0.1,20251020-085245,718,Experiment,Both,1,Automatic,main,36,20251028-093816,local,global,750,S,H,A,A,A-S.png,H-A.png,sS,hH,mask-4.png,mask-3.png,s,1,1.0042312999721617,h,1,0.0343133999267593,0.047727799974381924,0.047749800025485456,0.0990477999439463,0.09999270003754646,0.7500997999450192
RSVPLG03,md,20251028-093316,1.0.1,20251020-085245,718,Experiment,Both,1,Automatic,main,37,20251028-093821,local,local,750,H,S,A,E,A-H.png,E-S.png,hH,sS,mask-4.png,mask-2.png,h,1,1.2560365999815986,s,1,0.13817639998160303,0.04656789998989552,0.04874170001130551,0.09855569992214441,0.0996813999954611,0.7493482999270782
RSVPLG03,md,20251028-093316,1.0.1,20251020-085245,718,Experiment,Both,1,Automatic,main,38,20251028-093826,local,local,300,H,H,E,E,E-H.png,E-H.png,hH,hH,mask-2.png,mask-1.png,h,1,0.47608629998285323,h,1,0.6362737999297678,0.0460307999746874,0.04767929995432496,0.0990864000050351,0.10108259995467961,0.29897310002706945
RSVPLG03,md,20251028-093316,1.0.1,20251020-085245,718,Experiment,Both,1,Automatic,main,39,20251028-093831,global,global,750,H,H,E,A,H-E.png,H-A.png,hH,hH,mask-4.png,mask-2.png,h,1,0.5223670999985188,h,1,1.5310413999250159,0.04736820003017783,0.04651860008016229,0.10056379996240139,0.10059749998617917,0.7511137999827042
RSVPLG03,md,20251028-093316,1.0.1,20251020-085245,718,Experiment,Both,1,Automatic,main,40,20251028-093837,global,local,750,H,H,A,E,H-A.png,E-H.png,hH,hH,mask-2.png,mask-4.png,h,1,0.7932624000823125,s,0,0.044512399937957525,0.0473768999800086,0.04850659996736795,0.10040019999723881,0.09953210002277046,0.7500295999925584
RSVPLG03,md,20251028-093316,1.0.1,20251020-085245,718,Experiment,Both,1,Automatic,main,41,20251028-093842,global,local,300,S,S,E,E,S-E.png,E-S.png,sS,sS,mask-4.png,mask-1.png,s,1,1.0978939000051469,h,0,0.5368288999889046,0.04604399995878339,0.046939600026234984,0.09976440004538745,0.10101989994291216,0.2990627000108361
RSVPLG03,md,20251028-093316,1.0.1,20251020-085245,718,Experiment,Both,1,Automatic,main,42,20251028-093848,global,local,750,S,S,A,E,S-A.png,E-S.png,sS,sS,mask-4.png,mask-2.png,s,1,1.2557481999974698,h,0,0.3131586000090465,0.046681499923579395,0.04675209999550134,0.09989940002560616,0.10022289992775768,0.7494336999952793
RSVPLG03,md,20251028-093316,1.0.1,20251020-085245,718,Experiment,Both,1,Automatic,main,43,20251028-093853,local,global,300,S,H,A,A,A-S.png,H-A.png,sS,hH,mask-2.png,mask-3.png,s,1,1.0497554999310523,s,0,0.06398300000000745,0.04657819995190948,0.04751629999373108,0.09963609999977052,0.10058389999903738,0.2989333999576047
RSVPLG03,md,20251028-093316,1.0.1,20251020-085245,718,Experiment,Both,1,Automatic,main,44,20251028-093858,local,local,300,S,H,A,A,A-S.png,A-H.png,sS,hH,mask-1.png,mask-1.png,s,1,0.7324830000288785,h,1,0.1073154000332579,0.047732000006362796,0.04756690002977848,0.1000991000328213,0.09880119992885739,0.30140830005984753
RSVPLG03,md,20251028-093316,1.0.1,20251020-085245,718,Experiment,Both,1,Automatic,main,45,20251028-093903,local,local,300,H,S,E,A,E-H.png,A-S.png,hH,sS,mask-3.png,mask-1.png,h,1,0.995091799995862,s,1,0.18806110008154064,0.0476071999873966,0.04789010004606098,0.09905070008244365,0.09943059994839132,0.299785100040026
RSVPLG03,md,20251028-093316,1.0.1,20251020-085245,718,Experiment,Both,1,Automatic,main,46,20251028-093908,global,local,300,H,S,A,E,H-A.png,E-S.png,hH,sS,mask-2.png,mask-4.png,h,1,0.5983614000724629,s,1,0.24980840005446225,0.047361499979160726,0.04603630001656711,0.09952699998393655,0.09859770000912249,0.3002292000455782
RSVPLG03,md,20251028-093316,1.0.1,20251020-085245,718,Experiment,Both,1,Automatic,main,47,20251028-093912,local,global,300,H,H,A,E,A-H.png,H-E.png,hH,hH,mask-2.png,mask-1.png,h,1,0.9888977999798954,s,0,0.03738270001485944,0.04753760003950447,0.047687500016763806,0.09925550001207739,0.10041990003082901,0.29904160008300096
RSVPLG03,md,20251028-093316,1.0.1,20251020-085245,718,Experiment,Both,1,Automatic,main,48,20251028-093917,local,global,750,H,S,A,E,A-H.png,S-E.png,hH,sS,mask-1.png,mask-3.png,h,1,1.2308892000000924,s,1,0.06167730002198368,0.04885859997011721,0.048606300028041005,0.10076549998484552,0.10058750002644956,0.750007199938409
RSVPLG03,md,20251028-093316,1.0.1,20251020-085245,718,Experiment,Both,1,Automatic,main,49,20251028-093922,global,global,300,S,S,A,E,S-A.png,S-E.png,sS,sS,mask-3.png,mask-3.png,s,1,0.9122702000895515,s,1,0.27279319998342544,0.047595900017768145,0.047693600063212216,0.10078169999178499,0.09970540006179363,0.30019049998372793
RSVPLG03,md,20251028-093316,1.0.1,20251020-085245,718,Experiment,Both,1,Automatic,main,50,20251028-093927,global,local,300,H,S,E,A,H-E.png,A-S.png,hH,sS,mask-3.png,mask-2.png,h,1,0.59691570000723,s,1,0.1875524000497535,0.04834579990711063,0.04706999997142702,0.10093279997818172,0.10019449994433671,0.300270100007765
RSVPLG03,md,20251028-093316,1.0.1,20251020-085245,718,Experiment,Both,1,Automatic,main,51,20251028-094034,local,global,300,S,H,E,A,E-S.png,H-A.png,sS,hH,mask-3.png,mask-1.png,s,1,0.8802522999467328,h,1,1.154402699903585,0.04787139990366995,0.047495000064373016,0.10056569997686893,0.10066710005048662,0.3009183999383822
RSVPLG03,md,20251028-093316,1.0.1,20251020-085245,718,Experiment,Both,1,Automatic,main,52,20251028-094040,local,local,300,S,S,A,A,A-S.png,A-S.png,sS,sS,mask-3.png,mask-3.png,s,1,1.0818399999989197,h,0,0.25599979993421584,0.046605899930000305,0.04687510000076145,0.09897880000062287,0.10112319991458207,0.29877570003736764
RSVPLG03,md,20251028-093316,1.0.1,20251020-085245,718,Experiment,Both,1,Automatic,main,53,20251028-094045,global,local,750,S,H,A,E,S-A.png,E-H.png,sS,hH,mask-1.png,mask-1.png,s,1,0.8396013000747189,s,0,0.4968742999481037,0.04759970004670322,0.04778339993208647,0.09959460003301501,0.10127360001206398,0.7498107000719756
RSVPLG03,md,20251028-093316,1.0.1,20251020-085245,718,Experiment,Both,1,Automatic,main,54,20251028-094050,global,local,750,H,S,E,A,H-E.png,A-S.png,hH,sS,mask-3.png,mask-2.png,h,1,0.4857817000010982,s,1,0.42269389994908124,0.04783960001077503,0.04678440000861883,0.10039439995307475,0.10033879999537021,0.7503998000174761
RSVPLG03,md,20251028-093316,1.0.1,20251020-085245,718,Experiment,Both,1,Automatic,main,55,20251028-094055,local,local,750,S,S,E,A,E-S.png,A-S.png,sS,sS,mask-2.png,mask-1.png,s,1,0.6043777000159025,s,1,0.7434019999345765,0.04870210005901754,0.04785319999791682,0.10195160005241632,0.10007309995125979,0.7510756000410765
RSVPLG03,md,20251028-093316,1.0.1,20251020-085245,718,Experiment,Both,1,Automatic,main,56,20251028-094101,local,local,300,H,S,A,A,A-H.png,A-S.png,hH,sS,mask-2.png,mask-4.png,h,1,0.49907130002975464,s,1,0.19190219999291003,0.047963500022888184,0.04767889995127916,0.0998889000620693,0.10076649999246001,0.30099140002857894
RSVPLG03,md,20251028-093316,1.0.1,20251020-085245,718,Experiment,Both,1,Automatic,main,57,20251028-094105,local,global,300,S,S,E,E,E-S.png,S-E.png,sS,sS,mask-2.png,mask-1.png,s,1,1.4525454000104219,h,0,0.18429970007855445,0.04708610009402037,0.04709420003928244,0.10025120002683252,0.09878800006117672,0.30002830002922565
RSVPLG03,md,20251028-093316,1.0.1,20251020-085245,718,Experiment,Both,1,Automatic,main,58,20251028-094110,global,local,300,H,S,E,E,H-E.png,E-S.png,hH,sS,mask-2.png,mask-3.png,h,1,0.8354766999837011,s,1,1.0221654999768361,0.047658300027251244,0.04868300002999604,0.10158550005871803,0.10138100001495332,0.30023769999388605
RSVPLG03,md,20251028-093316,1.0.1,20251020-085245,718,Experiment,Both,1,Automatic,main,59,20251028-094116,local,local,750,S,S,E,E,E-S.png,E-S.png,sS,sS,mask-1.png,mask-1.png,s,1,1.0834168000146747,s,1,0.27327969996258616,0.04758899996522814,0.04754279996268451,0.09892929997295141,0.09865319996606559,0.751827499945648
RSVPLG03,md,20251028-093316,1.0.1,20251020-085245,718,Experiment,Both,1,Automatic,main,60,20251028-094122,global,global,300,S,S,A,E,S-A.png,S-E.png,sS,sS,mask-3.png,mask-4.png,s,1,0.45741200004704297,s,1,0.2035718000261113,0.04783379996661097,0.04803770000580698,0.09923970000818372,0.10041179996915162,0.29996350000146776
RSVPLG03,md,20251028-093316,1.0.1,20251020-085245,718,Experiment,Both,1,Automatic,main,61,20251028-094126,local,global,300,S,H,A,E,A-S.png,H-E.png,sS,hH,mask-1.png,mask-3.png,s,1,1.1605680999346077,h,1,0.013645099941641092,0.04674279992468655,0.046694900025613606,0.09890069998800755,0.10011460003443062,0.2998956999508664
RSVPLG03,md,20251028-093316,1.0.1,20251020-085245,718,Experiment,Both,1,Automatic,main,62,20251028-094131,global,local,300,S,S,A,E,S-A.png,E-S.png,sS,sS,mask-2.png,mask-2.png,s,1,0.5490983000490814,s,1,0.4706982000498101,0.04750789992976934,0.047392599983140826,0.10144659993238747,0.10025030001997948,0.29991349996998906
RSVPLG03,md,20251028-093316,1.0.1,20251020-085245,718,Experiment,Both,1,Automatic,main,63,20251028-094136,global,local,300,H,S,A,A,H-A.png,A-S.png,hH,sS,mask-1.png,mask-2.png,h,1,0.5907681999960914,h,0,0.3369630000088364,0.045806000009179115,0.04752150003332645,0.09791099990252405,0.09890720003750175,0.3003026999067515
RSVPLG03,md,20251028-093316,1.0.1,20251020-085245,718,Experiment,Both,1,Automatic,main,64,20251028-094140,global,global,300,S,S,E,A,S-E.png,S-A.png,sS,sS,mask-3.png,mask-2.png,s,1,0.7021131999790668,s,1,0.15767510002478957,0.04878029995597899,0.04742009995970875,0.10180119995493442,0.09829590003937483,0.3020401999820024
RSVPLG03,md,20251028-093316,1.0.1,20251020-085245,718,Experiment,Both,1,Automatic,main,65,20251028-094145,local,local,750,H,H,A,E,A-H.png,E-H.png,hH,hH,mask-1.png,mask-3.png,h,1,0.4750537999207154,h,1,1.1110136000206694,0.04781600006390363,0.04849590000230819,0.10101410001516342,0.10071260004770011,0.7497572000138462
RSVPLG03,md,20251028-093316,1.0.1,20251020-085245,718,Experiment,Both,1,Automatic,main,66,20251028-094151,global,global,750,S,S,A,E,S-A.png,S-E.png,sS,sS,mask-1.png,mask-1.png,s,1,0.49941950000356883,s,1,0.5027413000352681,0.04769079992547631,0.0479297999991104,0.09969059994909912,0.10176290001254529,0.7488256999058649
RSVPLG03,md,20251028-093316,1.0.1,20251020-085245,718,Experiment,Both,1,Automatic,main,67,20251028-094157,local,local,750,S,S,E,E,E-S.png,E-S.png,sS,sS,mask-2.png,mask-2.png,s,1,1.2672820999287069,s,1,2.0345714000286534,0.0467268000356853,0.04805009998381138,0.09982840006705374,0.09995389997493476,0.7510335000697523
RSVPLG03,md,20251028-093316,1.0.1,20251020-085245,718,Experiment,Both,1,Automatic,main,68,20251028-094204,local,global,750,H,S,E,A,E-H.png,S-A.png,hH,sS,mask-2.png,mask-3.png,h,1,1.0812973999418318,s,1,0.4098766000242904,0.04742459999397397,0.04598429996985942,0.09956690005492419,0.09822199994232506,0.7511422000825405
RSVPLG03,md,20251028-093316,1.0.1,20251020-085245,718,Experiment,Both,1,Automatic,main,69,20251028-094210,local,global,300,H,H,A,A,A-H.png,H-A.png,hH,hH,mask-3.png,mask-3.png,h,1,1.0820482999552041,h,1,0.8053371999412775,0.04769149993080646,0.047377999988384545,0.10057709994725883,0.10036300006322563,0.3006447999505326
RSVPLG03,md,20251028-093316,1.0.1,20251020-085245,718,Experiment,Both,1,Automatic,main,70,20251028-094216,global,local,750,S,S,A,E,S-A.png,E-S.png,sS,sS,mask-1.png,mask-4.png,s,1,1.0729747000150383,s,1,0.4112839000299573,0.04850340005941689,0.04850809997878969,0.10149550007190555,0.09950979996938258,0.7513007000088692
RSVPLG03,md,20251028-093316,1.0.1,20251020-085245,718,Experiment,Both,1,Automatic,main,71,20251028-094221,global,global,300,S,S,A,A,S-A.png,S-A.png,sS,sS,mask-1.png,mask-2.png,s,1,1.0599423999665305,s,1,0.8556719999760389,0.047763200011104345,0.04654169990681112,0.09985849994700402,0.10092989995609969,0.29972460004501045
RSVPLG03,md,20251028-093316,1.0.1,20251020-085245,718,Experiment,Both,1,Automatic,main,72,20251028-094227,global,local,750,H,H,E,E,H-E.png,E-H.png,hH,hH,mask-3.png,mask-2.png,h,1,0.6078537000576034,h,1,0.4924165999982506,0.04702589998487383,0.048555899993516505,0.10048440005630255,0.10066630004439503,0.750669899978675
RSVPLG03,md,20251028-093316,1.0.1,20251020-085245,718,Experiment,Both,1,Automatic,main,73,20251028-094233,local,local,750,H,S,E,A,E-H.png,A-S.png,hH,sS,mask-1.png,mask-4.png,h,1,0.49883209995459765,s,1,1.8823977999854833,0.04738160001579672,0.0473697999259457,0.10124490002635866,0.10038750001695007,0.7516077000182122
RSVPLG03,md,20251028-093316,1.0.1,20251020-085245,718,Experiment,Both,1,Automatic,main,74,20251028-094239,global,global,300,S,H,E,E,S-E.png,H-E.png,sS,hH,mask-4.png,mask-3.png,s,1,0.7613870999775827,h,1,1.312284899991937,0.04754140006843954,0.04772300005424768,0.09992080007214099,0.0993043000344187,0.30026920000091195
RSVPLG03,md,20251028-093316,1.0.1,20251020-085245,718,Experiment,Both,1,Automatic,main,75,20251028-094245,local,global,750,H,H,A,A,A-H.png,H-A.png,hH,hH,mask-1.png,mask-1.png,h,1,1.2002645999891683,s,0,1.4654940000036731,0.046725699910894036,0.04758879996370524,0.10027199995238334,0.09964090003632009,0.7512337999651209
RSVPLG03,md,20251028-093316,1.0.1,20251020-085245,718,Experiment,Both,1,Automatic,main,76,20251028-094327,local,global,750,S,S,E,A,E-S.png,S-A.png,sS,sS,mask-4.png,mask-2.png,s,1,1.1317758999066427,h,0,0.37138180003967136,0.04816789994947612,0.047389299958013,0.10028709995094687,0.10034439992159605,0.750321300001815
RSVPLG03,md,20251028-093316,1.0.1,20251020-085245,718,Experiment,Both,1,Automatic,main,77,20251028-094332,local,local,750,H,S,A,A,A-H.png,A-S.png,hH,sS,mask-4.png,mask-3.png,h,1,0.47629469993989915,s,1,0.5506634999765083,0.047581200022250414,0.04791349999140948,0.10066769993864,0.10030170006211847,0.7502063999418169
RSVPLG03,md,20251028-093316,1.0.1,20251020-085245,718,Experiment,Both,1,Automatic,main,78,20251028-094338,local,local,750,S,S,A,E,A-S.png,E-S.png,sS,sS,mask-1.png,mask-4.png,s,1,0.41148669994436204,s,1,1.0912879999959841,0.046674700104631484,0.047693399945273995,0.09953810006845742,0.09988220001105219,0.7495841000927612
RSVPLG03,md,20251028-093316,1.0.1,20251020-085245,718,Experiment,Both,1,Automatic,main,79,20251028-094344,global,global,300,S,S,A,A,S-A.png,S-A.png,sS,sS,mask-2.png,mask-1.png,s,1,0.4501855999697,s,1,0.37593760003801435,0.047692100051790476,0.04770719993393868,0.09974550001788884,0.09980749990791082,0.3003829000517726
RSVPLG03,md,20251028-093316,1.0.1,20251020-085245,718,Experiment,Both,1,Automatic,main,80,20251028-094348,global,local,300,S,H,A,A,S-A.png,A-H.png,sS,hH,mask-3.png,mask-3.png,s,1,0.6817015999695286,h,1,0.25804510002490133,0.04758299991954118,0.0476572000188753,0.10026719991583377,0.09968189999926835,0.3001341999042779
RSVPLG03,md,20251028-093316,1.0.1,20251020-085245,718,Experiment,Both,1,Automatic,main,81,20251028-094353,local,local,300,S,S,A,E,A-S.png,E-S.png,sS,sS,mask-3.png,mask-1.png,s,1,0.4753514000913128,s,1,1.3040515000466257,0.04648989997804165,0.04660980007611215,0.09959870006423444,0.09972519997972995,0.30002510000485927
RSVPLG03,md,20251028-093316,1.0.1,20251020-085245,718,Experiment,Both,1,Automatic,main,82,20251028-094359,local,global,750,H,S,E,E,E-H.png,S-E.png,hH,sS,mask-4.png,mask-1.png,h,1,1.399947899975814,s,1,0.5878781999927014,0.04698169999755919,0.04669870005454868,0.10016629996243864,0.09970950009301305,0.7511263999622315
RSVPLG03,md,20251028-093316,1.0.1,20251020-085245,718,Experiment,Both,1,Automatic,main,83,20251028-094405,global,global,750,S,H,A,A,S-A.png,H-A.png,sS,hH,mask-3.png,mask-1.png,s,1,1.9489856999134645,h,1,2.0453343999106437,0.04864130006171763,0.0497094999300316,0.09980510000605136,0.10179370001424104,0.750280800042674
RSVPLG03,md,20251028-093316,1.0.1,20251020-085245,718,Experiment,Both,1,Automatic,main,84,20251028-094411,local,local,300,H,S,E,A,E-H.png,A-S.png,hH,sS,mask-1.png,mask-4.png,h,1,0.6739906999282539,s,1,1.3238304000115022,0.0477314000017941,0.04744140000548214,0.10006550000980496,0.1000436000758782,0.3006679000100121
RSVPLG03,md,20251028-093316,1.0.1,20251020-085245,718,Experiment,Both,1,Automatic,main,85,20251028-094417,local,global,300,H,S,A,A,A-H.png,S-A.png,hH,sS,mask-3.png,mask-2.png,h,1,1.180680499994196,h,0,0.6541855999967083,0.04915099998470396,0.04629379999823868,0.09999580006115139,0.09939730004407465,0.3020566999912262
RSVPLG03,md,20251028-093316,1.0.1,20251020-085245,718,Experiment,Both,1,Automatic,main,86,20251028-094423,local,local,300,H,S,A,E,A-H.png,E-S.png,hH,sS,mask-1.png,mask-1.png,h,1,0.8017516999971122,s,1,0.12449930002912879,0.04742459999397397,0.04766339994966984,0.10011879994999617,0.10037199989892542,0.29985920002218336
RSVPLG03,md,20251028-093316,1.0.1,20251020-085245,718,Experiment,Both,1,Automatic,main,87,20251028-094427,local,global,750,S,H,E,A,E-S.png,H-A.png,sS,hH,mask-1.png,mask-3.png,s,1,1.2462954999646172,h,1,0.47626599995419383,0.04714289994444698,0.045881500001996756,0.09876139997504652,0.10000819992274046,0.7508017000509426
RSVPLG03,md,20251028-093316,1.0.1,20251020-085245,718,Experiment,Both,1,Automatic,main,88,20251028-094433,global,global,300,H,S,A,E,H-A.png,S-E.png,hH,sS,mask-4.png,mask-3.png,h,1,0.5630940000992268,s,1,2.779368199990131,0.048967899987474084,0.048593100043945014,0.10086729994509369,0.10167790006380528,0.3003822999307886
RSVPLG03,md,20251028-093316,1.0.1,20251020-085245,718,Experiment,Both,1,Automatic,main,89,20251028-094441,local,local,750,H,H,E,A,E-H.png,A-H.png,hH,hH,mask-1.png,mask-4.png,h,1,0.9709464999614283,h,1,0.507130500045605,0.04746530007105321,0.04751520010177046,0.10106350004207343,0.10033450007904321,0.7510555000044405
RSVPLG03,md,20251028-093316,1.0.1,20251020-085245,718,Experiment,Both,1,Automatic,main,90,20251028-094446,global,local,300,S,H,A,E,S-A.png,E-H.png,sS,hH,mask-2.png,mask-4.png,s,1,0.9234031999949366,h,1,0.34329880005680025,0.0465828999876976,0.048892099992372096,0.09972019994165748,0.10015720000956208,0.29866390000097454
RSVPLG03,md,20251028-093316,1.0.1,20251020-085245,718,Experiment,Both,1,Automatic,main,91,20251028-094452,global,global,750,S,S,E,E,S-E.png,S-E.png,sS,sS,mask-3.png,mask-1.png,s,1,0.48389579996000975,s,1,1.0322732999920845,0.046888999990187585,0.04769569996278733,0.0986188999377191,0.1008727999869734,0.7494192000012845
RSVPLG03,md,20251028-093316,1.0.1,20251020-085245,718,Experiment,Both,1,Automatic,main,92,20251028-094457,global,local,750,H,H,E,E,H-E.png,E-H.png,hH,hH,mask-1.png,mask-1.png,h,1,0.7267165000084788,s,0,1.1562948999926448,0.047715699998661876,0.04693750001024455,0.0999364999588579,0.10023169999476522,0.7496086999308318
RSVPLG03,md,20251028-093316,1.0.1,20251020-085245,718,Experiment,Both,1,Automatic,main,93,20251028-094504,global,global,750,H,H,E,A,H-E.png,H-A.png,hH,hH,mask-1.png,mask-2.png,h,1,0.4370916000334546,h,1,1.0827289000153542,0.0484707000432536,0.04761330003384501,0.100869300076738,0.10062390007078648,0.7504759000148624
RSVPLG03,md,20251028-093316,1.0.1,20251020-085245,718,Experiment,Both,1,Automatic,main,94,20251028-094509,local,global,300,S,H,A,A,A-S.png,H-A.png,sS,hH,mask-3.png,mask-1.png,s,1,1.203861799906008,h,1,0.5178915000287816,0.04869930003769696,0.04652229999192059,0.10070359997916967,0.09956350002903491,0.3010451999725774
RSVPLG03,md,20251028-093316,1.0.1,20251020-085245,718,Experiment,Both,1,Automatic,main,95,20251028-094515,global,global,750,S,H,E,E,S-E.png,H-E.png,sS,hH,mask-4.png,mask-1.png,s,1,0.6970822000876069,h,1,1.0168782999971882,0.0473575999494642,0.0478444000473246,0.09893709991592914,0.10186940000858158,0.7493301999056712
RSVPLG03,md,20251028-093316,1.0.1,20251020-085245,718,Experiment,Both,1,Automatic,main,96,20251028-094521,local,local,300,S,H,A,A,A-S.png,A-H.png,sS,hH,mask-2.png,mask-3.png,s,1,0.916777899954468,h,1,1.3253967999480665,0.04653609998058528,0.04749610007274896,0.0995585999917239,0.09954309999011457,0.29982499999459833
RSVPLG03,md,20251028-093316,1.0.1,20251020-085245,718,Experiment,Both,1,Automatic,main,97,20251028-094527,global,local,300,H,S,A,A,H-A.png,A-S.png,hH,sS,mask-3.png,mask-3.png,h,1,0.5003766999579966,s,1,0.8758933000499383,0.04855239996686578,0.048523199977353215,0.10038579988759011,0.10034649993758649,0.30023279995657504
RSVPLG03,md,20251028-093316,1.0.1,20251020-085245,718,Experiment,Both,1,Automatic,main,98,20251028-094532,global,local,750,S,S,A,E,S-A.png,E-S.png,sS,sS,mask-1.png,mask-3.png,s,1,0.4346928000450134,s,1,0.8267637999961153,0.04653849999886006,0.046601500012911856,0.098545299959369,0.09959889994934201,0.7502582999877632
RSVPLG03,md,20251028-093316,1.0.1,20251020-085245,718,Experiment,Both,1,Automatic,main,99,20251028-094538,global,global,300,S,S,A,A,S-A.png,S-A.png,sS,sS,mask-1.png,mask-1.png,s,1,0.4065802999539301,s,1,0.7934930000919849,0.04766609997022897,0.04668979998677969,0.09985309990588576,0.09986219997517765,0.3004529000027105
RSVPLG03,md,20251028-093316,1.0.1,20251020-085245,718,Experiment,Both,1,Automatic,main,100,20251028-094543,local,local,300,S,S,E,A,E-S.png,A-S.png,sS,sS,mask-2.png,mask-1.png,s,1,0.38268879998940974,s,1,0.7322583000641316,0.045708200079388916,0.04853579995688051,0.09984430007170886,0.10151499998755753,0.2991417000303045
RSVPLG03,md,20251028-093316,1.0.1,20251020-085245,718,Experiment,Both,1,Automatic,main,101,20251028-094628,global,global,300,H,H,A,A,H-A.png,H-A.png,hH,hH,mask-4.png,mask-1.png,h,1,1.0857806999702007,s,0,0.1784576999489218,0.047428500023670495,0.0458008999703452,0.09845099993981421,0.09998499997891486,0.3001658000284806
RSVPLG03,md,20251028-093316,1.0.1,20251020-085245,718,Experiment,Both,1,Automatic,main,102,20251028-094633,local,global,300,H,H,E,E,E-H.png,H-E.png,hH,hH,mask-4.png,mask-2.png,h,1,0.9380101000424474,s,0,0.23582080006599426,0.04750739992596209,0.04814369999803603,0.09983479999937117,0.10108699998818338,0.2993484999751672
RSVPLG03,md,20251028-093316,1.0.1,20251020-085245,718,Experiment,Both,1,Automatic,main,103,20251028-094638,local,global,750,S,H,E,E,E-S.png,H-E.png,sS,hH,mask-3.png,mask-2.png,s,1,0.43328460003249347,h,1,0.10404580004978925,0.04641309997532517,0.04750949994195253,0.09942510002292693,0.10052290000021458,0.7493655000580475
RSVPLG03,md,20251028-093316,1.0.1,20251020-085245,718,Experiment,Both,1,Automatic,main,104,20251028-094642,global,global,300,H,H,A,A,H-A.png,H-A.png,hH,hH,mask-4.png,mask-4.png,h,1,0.4175712000578642,h,1,0.8122178999474272,0.047524900059215724,0.04735379992052913,0.09954890003427863,0.10038820002228022,0.29986730008386075
RSVPLG03,md,20251028-093316,1.0.1,20251020-085245,718,Experiment,Both,1,Automatic,main,105,20251028-094647,local,global,300,H,H,E,E,E-H.png,H-E.png,hH,hH,mask-3.png,mask-4.png,h,1,0.6440703000407666,s,0,0.009156700107268989,0.04753120010718703,0.04756360000465065,0.10059140005614609,0.10161070001777261,0.29890230007003993
RSVPLG03,md,20251028-093316,1.0.1,20251020-085245,718,Experiment,Both,1,Automatic,main,106,20251028-094652,global,global,300,S,H,A,E,S-A.png,H-E.png,sS,hH,mask-3.png,mask-1.png,s,1,0.650233699940145,h,1,0.11785289994440973,0.04565920005552471,0.04864279995672405,0.09984180005267262,0.1014614999294281,0.29840150009840727
RSVPLG03,md,20251028-093316,1.0.1,20251020-085245,718,Experiment,Both,1,Automatic,main,107,20251028-094657,global,local,750,H,S,A,E,H-A.png,E-S.png,hH,sS,mask-3.png,mask-2.png,h,1,0.4415559000335634,s,1,0.27830219990573823,0.04769490007311106,0.04806770000141114,0.10076260007917881,0.10007799998857081,0.7506269000004977
RSVPLG03,md,20251028-093316,1.0.1,20251020-085245,718,Experiment,Both,1,Automatic,main,108,20251028-094701,local,global,300,S,S,E,E,E-S.png,S-E.png,sS,sS,mask-4.png,mask-1.png,s,1,0.924078100011684,h,0,0.10832979995757341,0.04663349990732968,0.04777019994799048,0.10067569999955595,0.10097020003013313,0.29937969997990876
RSVPLG03,md,20251028-093316,1.0.1,20251020-085245,718,Experiment,Both,1,Automatic,main,109,20251028-094706,global,global,300,S,S,A,E,S-A.png,S-E.png,sS,sS,mask-2.png,mask-1.png,s,1,1.1190242999000475,h,0,0.03652800002600998,0.046724399900995195,0.047634400078095496,0.09998709999490529,0.09986050007864833,0.2997360998997465
RSVPLG03,md,20251028-093316,1.0.1,20251020-085245,718,Experiment,Both,1,Automatic,main,110,20251028-094711,local,local,750,S,S,A,E,A-S.png,E-S.png,sS,sS,mask-3.png,mask-2.png,s,1,0.4229617000091821,s,1,0.5382764000678435,0.04678179998882115,0.0476067999843508,0.10001159994862974,0.09910049999598414,0.7503793999785557
RSVPLG03,md,20251028-093316,1.0.1,20251020-085245,718,Experiment,Both,1,Automatic,main,111,20251028-094716,global,global,750,S,H,A,A,S-A.png,H-A.png,sS,hH,mask-4.png,mask-2.png,s,1,0.5131528000347316,h,1,0.31333879998419434,0.04769609996583313,0.04685139993671328,0.10090059996582568,0.09831649996340275,0.7516810999950394
RSVPLG03,md,20251028-093316,1.0.1,20251020-085245,718,Experiment,Both,1,Automatic,main,112,20251028-094721,local,local,750,H,H,E,A,E-H.png,A-H.png,hH,hH,mask-1.png,mask-4.png,h,1,0.6660400000400841,h,1,0.538934100070037,0.047502600005827844,0.047496299957856536,0.09950240002945065,0.0995189999230206,0.7499189000809565
RSVPLG03,md,20251028-093316,1.0.1,20251020-085245,718,Experiment,Both,1,Automatic,main,113,20251028-094727,global,local,300,H,H,A,E,H-A.png,E-H.png,hH,hH,mask-2.png,mask-2.png,h,1,0.4798108999384567,s,0,0.23612650006543845,0.04780419997405261,0.04623520001769066,0.10096809989772737,0.09904740005731583,0.3009152999147773
RSVPLG03,md,20251028-093316,1.0.1,20251020-085245,718,Experiment,Both,1,Automatic,main,114,20251028-094731,local,local,750,S,H,E,A,E-S.png,A-H.png,sS,hH,mask-1.png,mask-4.png,s,1,0.7763202999485657,h,1,0.3304702000459656,0.04753999994136393,0.047545499983243644,0.10054789995774627,0.10152799997013062,0.7498782000038773
RSVPLG03,md,20251028-093316,1.0.1,20251020-085245,718,Experiment,Both,1,Automatic,main,115,20251028-094737,global,global,300,H,S,E,A,H-E.png,S-A.png,hH,sS,mask-1.png,mask-4.png,h,1,0.6069627000251785,s,1,0.5719001999823377,0.04851250001229346,0.048317500040866435,0.10052380000706762,0.09933180001098663,0.3007594000082463
RSVPLG03,md,20251028-093316,1.0.1,20251020-085245,718,Experiment,Both,1,Automatic,main,116,20251028-094742,global,global,750,H,S,A,E,H-A.png,S-E.png,hH,sS,mask-2.png,mask-3.png,h,1,0.7180138999829069,s,1,0.40067909995559603,0.04769569996278733,0.047738100052811205,0.0999352999497205,0.09907410002779216,0.7507855999283493
RSVPLG03,md,20251028-093316,1.0.1,20251020-085245,718,Experiment,Both,1,Automatic,main,117,20251028-094747,local,local,300,S,S,A,A,A-S.png,A-S.png,sS,sS,mask-2.png,mask-2.png,s,1,0.6211283999728039,s,1,0.4332515000132844,0.04757599998265505,0.04876819998025894,0.09983339998871088,0.1009471999714151,0.29956199997104704
RSVPLG03,md,20251028-093316,1.0.1,20251020-085245,718,Experiment,Both,1,Automatic,main,118,20251028-094752,local,global,300,S,S,E,E,E-S.png,S-E.png,sS,sS,mask-3.png,mask-3.png,s,1,0.4957521000178531,h,0,0.11696070001926273,0.04738310002721846,0.04636659997049719,0.10022000002209097,0.10026650002691895,0.301231799996458
RSVPLG03,md,20251028-093316,1.0.1,20251020-085245,718,Experiment,Both,1,Automatic,main,119,20251028-094756,local,local,300,S,H,E,A,E-S.png,A-H.png,sS,hH,mask-2.png,mask-3.png,s,1,0.422297399956733,h,1,0.10425620002206415,0.04752119991462678,0.047176199965178967,0.09959569992497563,0.09908799990080297,0.3011442000279203
RSVPLG03,md,20251028-093316,1.0.1,20251020-085245,718,Experiment,Both,1,Automatic,main,120,20251028-094800,global,global,300,S,H,A,A,S-A.png,H-A.png,sS,hH,mask-3.png,mask-4.png,s,1,0.379235899890773,h,1,0.07904570002574474,0.047706900048069656,0.04753470001742244,0.10178090003319085,0.09947369992733002,0.30120930005796254
RSVPLG03,md,20251028-093316,1.0.1,20251020-085245,718,Experiment,Both,1,Automatic,main,121,20251028-094805,local,global,750,S,H,E,A,E-S.png,H-A.png,sS,hH,mask-1.png,mask-1.png,s,1,1.0035562999546528,h,1,0.025288800010457635,0.04765439999755472,0.04767779994290322,0.10183870000764728,0.09986759989988059,0.751931200036779
RSVPLG03,md,20251028-093316,1.0.1,20251020-085245,718,Experiment,Both,1,Automatic,main,122,20251028-094810,local,local,300,H,H,E,E,E-H.png,E-H.png,hH,hH,mask-4.png,mask-3.png,h,1,0.3913380999583751,h,1,0.26147869997657835,0.0464582999702543,0.048477499978616834,0.09911129996180534,0.1013325999956578,0.29836470005102456
RSVPLG03,md,20251028-093316,1.0.1,20251020-085245,718,Experiment,Both,1,Automatic,main,123,20251028-094814,local,global,750,H,S,A,A,A-H.png,S-A.png,hH,sS,mask-1.png,mask-2.png,h,1,0.5620707999914885,s,1,0.12270310008898377,0.047495400067418814,0.04751270008273423,0.09950320003554225,0.09877410007175058,0.7502720999764279
RSVPLG03,md,20251028-093316,1.0.1,20251020-085245,718,Experiment,Both,1,Automatic,main,124,20251028-094819,global,global,750,H,S,E,A,H-E.png,S-A.png,hH,sS,mask-4.png,mask-1.png,h,1,0.4793434999883175,s,1,0.1590556000592187,0.04854889994021505,0.04755550005938858,0.10070970002561808,0.1005705000134185,0.7517204999458045
RSVPLG03,md,20251028-093316,1.0.1,20251020-085245,718,Experiment,Both,1,Automatic,main,125,20251028-094824,local,global,300,H,H,E,A,E-H.png,H-A.png,hH,hH,mask-2.png,mask-2.png,h,1,0.7496793000027537,s,0,0.006396800046786666,0.04773480002768338,0.04851530003361404,0.09993190004024655,0.10076800000388175,0.2995649999938905
RSVPLG03,md,20251028-094915,1.0.1,20251020-085245,718,Experiment,Both,1,Automatic,warmup,1,20251028-095003,local,global,750,H,H,E,E,E-H.png,H-E.png,hH,hH,mask-2.png,mask-1.png,h,1,1.2257094000233337,s,0,0.1856459000846371,0.040137300034984946,0.046727700042538345,0.09338229999411851,0.09986970003228635,0.7434866999974474
RSVPLG03,md,20251028-094915,1.0.1,20251020-085245,718,Experiment,Both,1,Automatic,warmup,2,20251028-095009,local,local,750,H,S,A,A,A-H.png,A-S.png,hH,sS,mask-1.png,mask-1.png,h,1,0.5461276000132784,s,1,0.005916299996897578,0.04777350008953363,0.04776980006136,0.0999627000419423,0.09994620003271848,0.74914940004237
RSVPLG03,md,20251028-094915,1.0.1,20251020-085245,718,Experiment,Both,1,Automatic,warmup,3,20251028-095014,global,local,300,S,H,A,A,S-A.png,A-H.png,sS,hH,mask-4.png,mask-1.png,s,1,0.8688265000237152,h,1,0.28326169995125383,0.0476809999672696,0.04691759997513145,0.0998193999985233,0.09929859999101609,0.30090909998398274
RSVPLG03,md,20251028-094915,1.0.1,20251020-085245,718,Experiment,Both,1,Automatic,warmup,4,20251028-095018,global,global,300,H,H,E,E,H-E.png,H-E.png,hH,hH,mask-4.png,mask-1.png,h,1,0.3579420999158174,h,1,0.77783279994037,0.046650400036014616,0.04846129997167736,0.09984659997280687,0.10064720001537353,0.29844990000128746
RSVPLG03,md,20251028-094915,1.0.1,20251020-085245,718,Experiment,Both,1,Automatic,warmup,5,20251028-095023,local,local,300,H,S,A,A,A-H.png,A-S.png,hH,sS,mask-1.png,mask-3.png,h,1,0.47698439995292574,s,1,0.3095333999954164,0.0473463999805972,0.04758030001539737,0.09987939998973161,0.09958609996829182,0.30051620001904666
RSVPLG03,md,20251028-094915,1.0.1,20251020-085245,718,Experiment,Both,1,Automatic,main,6,20251028-095028,global,global,300,H,H,E,A,H-E.png,H-A.png,hH,hH,mask-2.png,mask-1.png,h,1,0.4701634000521153,h,1,0.17258319992106408,0.04860229999758303,0.04753099998924881,0.10066160000860691,0.10058480000589043,0.2992179000284523
RSVPLG03,md,20251028-094915,1.0.1,20251020-085245,718,Experiment,Both,1,Automatic,main,7,20251028-095032,global,global,300,S,H,E,E,S-E.png,H-E.png,sS,hH,mask-1.png,mask-1.png,h,0,1.6661497000604868,s,0,0.13132080005016178,0.04624209995381534,0.04851959994994104,0.09890969994012266,0.09989810001570731,0.2983469000319019
RSVPLG03,md,20251028-094915,1.0.1,20251020-085245,718,Experiment,Both,1,Automatic,main,8,20251028-095038,global,local,300,S,H,A,A,S-A.png,A-H.png,sS,hH,mask-2.png,mask-2.png,s,1,0.9041901000309736,h,1,0.13087959995027632,0.047521400032565,0.04739029996562749,0.10003450000658631,0.10005689994432032,0.30007970007136464
RSVPLG03,md,20251028-094915,1.0.1,20251020-085245,718,Experiment,Both,1,Automatic,main,9,20251028-095043,local,local,300,H,H,A,A,A-H.png,A-H.png,hH,hH,mask-4.png,mask-3.png,h,1,0.5267640999518335,h,1,2.0494988000718877,0.04750409990083426,0.04750899993814528,0.10058879991993308,0.0995187999214977,0.2998860999941826
RSVPLG03,md,20251028-094915,1.0.1,20251020-085245,718,Experiment,Both,1,Automatic,main,10,20251028-095049,global,global,750,S,H,A,E,S-A.png,H-E.png,sS,hH,mask-2.png,mask-1.png,s,1,0.5247162999585271,h,1,1.091504200012423,0.04751249996479601,0.04749699996318668,0.09955019992776215,0.1005121999187395,0.7492655999958515
RSVPLG03,md,20251028-094915,1.0.1,20251020-085245,718,Experiment,Both,1,Automatic,main,11,20251028-095055,local,global,750,S,S,E,E,E-S.png,S-E.png,sS,sS,mask-1.png,mask-3.png,s,1,1.3300952999852598,h,0,0.12107919994741678,0.04855770000722259,0.045598599943332374,0.10157749999780208,0.09859870001673698,0.7506575000006706
RSVPLG03,md,20251028-094915,1.0.1,20251020-085245,718,Experiment,Both,1,Automatic,main,12,20251028-095100,local,local,300,S,H,A,A,A-S.png,A-H.png,sS,hH,mask-2.png,mask-1.png,s,1,0.4258274999447167,s,0,0.10742210003081709,0.04757840000092983,0.048409500042907894,0.10162009997293353,0.10058890003710985,0.2999487000051886
RSVPLG03,md,20251028-094915,1.0.1,20251020-085245,718,Experiment,Both,1,Automatic,main,13,20251028-095105,global,global,750,S,H,A,E,S-A.png,H-E.png,sS,hH,mask-3.png,mask-1.png,s,1,0.5304645000724122,h,1,0.10664349992293864,0.04759610001929104,0.04683889995794743,0.10177569999359548,0.09904189989902079,0.7504294000100344
RSVPLG03,md,20251028-094915,1.0.1,20251020-085245,718,Experiment,Both,1,Automatic,main,14,20251028-095109,global,local,750,H,S,E,A,H-E.png,A-S.png,hH,sS,mask-3.png,mask-4.png,h,1,0.42068169999402016,s,1,0.05993220000527799,0.0486928999889642,0.04666290001478046,0.0999312000349164,0.09988630004227161,0.7498903999803588
RSVPLG03,md,20251028-094915,1.0.1,20251020-085245,718,Experiment,Both,1,Automatic,main,15,20251028-095114,local,local,300,S,S,E,E,E-S.png,E-S.png,sS,sS,mask-2.png,mask-4.png,s,1,0.4878288999898359,s,1,0.8819539999822155,0.04947229998651892,0.047853500000201166,0.1005822999868542,0.10065560007933527,0.3010305999778211
RSVPLG03,md,20251028-094915,1.0.1,20251020-085245,718,Experiment,Both,1,Automatic,main,16,20251028-095119,global,global,750,S,S,E,A,S-E.png,S-A.png,sS,sS,mask-2.png,mask-1.png,s,1,0.3574688999215141,s,1,0.3614975999807939,0.046668399940244853,0.0487473999382928,0.09986029996071011,0.10002609994262457,0.7478388999588788
RSVPLG03,md,20251028-094915,1.0.1,20251020-085245,718,Experiment,Both,1,Automatic,main,17,20251028-095124,global,local,300,S,S,A,A,S-A.png,A-S.png,sS,sS,mask-4.png,mask-4.png,s,1,0.48609720007516444,s,1,0.12826959998346865,0.047699599992483854,0.04692829994019121,0.09878620004747063,0.10006889991927892,0.2989606000483036
RSVPLG03,md,20251028-094915,1.0.1,20251020-085245,718,Experiment,Both,1,Automatic,main,18,20251028-095129,local,local,750,S,S,A,A,A-S.png,A-S.png,sS,sS,mask-2.png,mask-1.png,s,1,0.41228859999682754,s,1,0.5013515999307856,0.04616989998612553,0.046969300019554794,0.09850050008390099,0.10014919994864613,0.7477478000801057
RSVPLG03,md,20251028-094915,1.0.1,20251020-085245,718,Experiment,Both,1,Automatic,main,19,20251028-095134,global,global,300,H,S,E,A,H-E.png,S-A.png,hH,sS,mask-3.png,mask-1.png,h,1,0.4177147001028061,s,1,0.2799720000475645,0.04744820005726069,0.047656800015829504,0.10128770000301301,0.09891359996981919,0.3011926000472158
RSVPLG03,md,20251028-094915,1.0.1,20251020-085245,718,Experiment,Both,1,Automatic,main,20,20251028-095138,global,local,300,S,H,E,A,S-E.png,A-H.png,sS,hH,mask-3.png,mask-2.png,s,1,0.9258110000519082,h,1,0.1785064999712631,0.04733580001629889,0.047342199948616326,0.09993310004938394,0.09963049995712936,0.2989565000170842
RSVPLG03,md,20251028-094915,1.0.1,20251020-085245,718,Experiment,Both,1,Automatic,main,21,20251028-095143,local,local,300,S,H,E,E,E-S.png,E-H.png,sS,hH,mask-3.png,mask-2.png,s,1,0.46330029994715005,h,1,0.02234100003261119,0.047372099943459034,0.04741170001216233,0.10023360000923276,0.10028359992429614,0.29996490001212806
RSVPLG03,md,20251028-094915,1.0.1,20251020-085245,718,Experiment,Both,1,Automatic,main,22,20251028-095147,local,global,300,S,H,E,E,E-S.png,H-E.png,sS,hH,mask-4.png,mask-3.png,s,1,0.8884905999293551,h,1,0.07453280000481755,0.04749899997841567,0.047557299956679344,0.09990190004464239,0.09994960005860776,0.2995690000243485
RSVPLG03,md,20251028-094915,1.0.1,20251020-085245,718,Experiment,Both,1,Automatic,main,23,20251028-095152,local,global,300,S,H,E,E,E-S.png,H-E.png,sS,hH,mask-4.png,mask-1.png,s,1,1.249363400042057,h,1,1.3941087001003325,0.047410800005309284,0.047458200016990304,0.09923189994879067,0.09953790006693453,0.2990376999368891
RSVPLG03,md,20251028-094915,1.0.1,20251020-085245,718,Experiment,Both,1,Automatic,main,24,20251028-095157,local,global,300,S,H,E,A,E-S.png,H-A.png,sS,hH,mask-2.png,mask-1.png,s,1,0.6967239000368863,h,1,0.9189916000468656,0.046749800094403327,0.045848799985833466,0.09809580002911389,0.09810449997894466,0.29960020002909005
RSVPLG03,md,20251028-094915,1.0.1,20251020-085245,718,Experiment,Both,1,Automatic,main,25,20251028-095202,local,local,300,S,S,E,A,E-S.png,A-S.png,sS,sS,mask-4.png,mask-4.png,s,1,0.4247967000119388,s,1,0.2986310999840498,0.04751059995032847,0.04847720009274781,0.1005731999175623,0.09956880006939173,0.2988805999048054
RSVPLG03,md,20251028-094915,1.0.1,20251020-085245,718,Experiment,Both,1,Automatic,main,26,20251028-095230,global,local,750,S,H,A,A,S-A.png,A-H.png,sS,hH,mask-1.png,mask-1.png,s,1,0.8883408000692725,h,1,0.28655379998963326,0.04682709998451173,0.04769839998334646,0.09904040000401437,0.09980020008515567,0.7492128999438137
RSVPLG03,md,20251028-094915,1.0.1,20251020-085245,718,Experiment,Both,1,Automatic,main,27,20251028-095236,global,global,750,S,S,A,E,S-A.png,S-E.png,sS,sS,mask-4.png,mask-4.png,s,1,0.4286977000301704,s,1,0.34417070006020367,0.04772660008165985,0.04838619998190552,0.09998940001241863,0.10102380008902401,0.7486094000050798
RSVPLG03,md,20251028-094915,1.0.1,20251020-085245,718,Experiment,Both,1,Automatic,main,28,20251028-095241,local,global,750,H,S,A,A,A-H.png,S-A.png,hH,sS,mask-1.png,mask-3.png,h,1,0.7668064000317827,h,0,0.11866230005398393,0.04849130008369684,0.047317399992607534,0.10067549999803305,0.09851669997442514,0.7494602000806481
RSVPLG03,md,20251028-094915,1.0.1,20251020-085245,718,Experiment,Both,1,Automatic,main,29,20251028-095246,local,local,300,S,S,A,A,A-S.png,A-S.png,sS,sS,mask-2.png,mask-1.png,s,1,0.3262229999527335,s,1,0.5211246999679133,0.047659500036388636,0.0476734999101609,0.10086779994890094,0.0998425999423489,0.3004262000322342
RSVPLG03,md,20251028-094915,1.0.1,20251020-085245,718,Experiment,Both,1,Automatic,main,30,20251028-095250,local,global,300,H,H,E,E,E-H.png,H-E.png,hH,hH,mask-2.png,mask-1.png,h,1,0.6863084000069648,s,0,0.18238429992925376,0.04651189991272986,0.04647489998023957,0.09870639990549535,0.09895779995713383,0.2990589999826625
RSVPLG03,md,20251028-094915,1.0.1,20251020-085245,718,Experiment,Both,1,Automatic,main,31,20251028-095255,global,global,750,H,H,A,E,H-A.png,H-E.png,hH,hH,mask-3.png,mask-3.png,h,1,0.37276629998814315,h,1,0.07290769997052848,0.04855479998514056,0.047542199958115816,0.10056039993651211,0.09893290000036359,0.7499635999556631
RSVPLG03,md,20251028-094915,1.0.1,20251020-085245,718,Experiment,Both,1,Automatic,main,32,20251028-095300,global,global,300,H,H,E,E,H-E.png,H-E.png,hH,hH,mask-3.png,mask-2.png,h,1,0.34882890002336353,h,1,5.011635199887678,0.04665690008550882,0.04821270005777478,0.09891659999266267,0.10047080006916076,0.2984167999820784
RSVPLG03,md,20251028-094915,1.0.1,20251020-085245,718,Experiment,Both,1,Automatic,main,33,20251028-095309,local,local,750,H,H,A,A,A-H.png,A-H.png,hH,hH,mask-1.png,mask-3.png,h,1,0.5027522000018507,h,1,2.0762578001013026,0.046828099992126226,0.04758419992867857,0.10015389998443425,0.09796599997207522,0.7494243000401184
RSVPLG03,md,20251028-094915,1.0.1,20251020-085245,718,Experiment,Both,1,Automatic,main,34,20251028-095315,global,global,750,S,S,E,E,S-E.png,S-E.png,sS,sS,mask-3.png,mask-1.png,s,1,0.34655349992681295,s,1,0.19883030001074076,0.04752579994965345,0.04654670006129891,0.09815899992827326,0.09840160002931952,0.7493625999195501
RSVPLG03,md,20251028-094915,1.0.1,20251020-085245,718,Experiment,Both,1,Automatic,main,35,20251028-095320,global,local,300,H,S,A,E,H-A.png,E-S.png,hH,sS,mask-4.png,mask-1.png,h,1,0.44020810001529753,s,1,0.6135771999834105,0.04864450008608401,0.04672989994287491,0.1002552000572905,0.09998840000480413,0.3007342000491917
RSVPLG03,md,20251028-094915,1.0.1,20251020-085245,718,Experiment,Both,1,Automatic,main,36,20251028-095325,global,local,750,H,H,A,E,H-A.png,E-H.png,hH,hH,mask-1.png,mask-1.png,h,1,0.7138086999766529,s,0,0.16952180000953376,0.048561399918980896,0.04754480009432882,0.10157189995516092,0.09884320001583546,0.7495938999345526
RSVPLG03,md,20251028-094915,1.0.1,20251020-085245,718,Experiment,Both,1,Automatic,main,37,20251028-095330,local,local,750,H,S,A,A,A-H.png,A-S.png,hH,sS,mask-2.png,mask-4.png,h,1,0.5201327999820933,s,1,0.04055050003807992,0.048543900018557906,0.04754599998705089,0.10064520000014454,0.09965640003792942,0.7494395000394434
RSVPLG03,md,20251028-094915,1.0.1,20251020-085245,718,Experiment,Both,1,Automatic,main,38,20251028-095335,global,local,750,S,H,E,E,S-E.png,E-H.png,sS,hH,mask-2.png,mask-1.png,s,1,1.3111907999264076,h,1,1.4553512999555096,0.04772150004282594,0.047171899932436645,0.09970060002524406,0.10016719996929169,0.7497284000273794
RSVPLG03,md,20251028-094915,1.0.1,20251020-085245,718,Experiment,Both,1,Automatic,main,39,20251028-095340,global,local,300,S,S,A,A,S-A.png,A-S.png,sS,sS,mask-3.png,mask-3.png,s,1,0.6272019000025466,s,1,0.08987340005114675,0.04645219992380589,0.04726899997331202,0.10015760001260787,0.09816609998233616,0.3000420000171289
RSVPLG03,md,20251028-094915,1.0.1,20251020-085245,718,Experiment,Both,1,Automatic,main,40,20251028-095345,local,local,750,H,H,A,E,A-H.png,E-H.png,hH,hH,mask-3.png,mask-3.png,h,1,0.4112467000959441,h,1,0.24358060001395643,0.04708429996389896,0.04766709997784346,0.09830890002194792,0.09978839999530464,0.7483639999991283
RSVPLG03,md,20251028-094915,1.0.1,20251020-085245,718,Experiment,Both,1,Automatic,main,41,20251028-095349,local,local,750,S,H,A,E,A-S.png,E-H.png,sS,hH,mask-2.png,mask-2.png,s,1,0.5668805000605062,h,1,0.6807591998949647,0.04867619997821748,0.04766409995499998,0.09986750001553446,0.09984619996976107,0.7500346000306308
RSVPLG03,md,20251028-094915,1.0.1,20251020-085245,718,Experiment,Both,1,Automatic,main,42,20251028-095355,global,global,300,H,H,E,E,H-E.png,H-E.png,hH,hH,mask-1.png,mask-3.png,h,1,0.3962341999867931,h,1,0.08877899998333305,0.04851550003513694,0.0477120999712497,0.09955360007006675,0.09976169990841299,0.29931820009369403
RSVPLG03,md,20251028-094915,1.0.1,20251020-085245,718,Experiment,Both,1,Automatic,main,43,20251028-095359,local,local,750,H,S,E,E,E-H.png,E-S.png,hH,sS,mask-2.png,mask-4.png,h,1,0.3401533999713138,s,1,0.3197950000176206,0.04743250005412847,0.0471282999496907,0.09949689998757094,0.09907720005139709,0.7495435000164434
RSVPLG03,md,20251028-094915,1.0.1,20251020-085245,718,Experiment,Both,1,Automatic,main,44,20251028-095404,local,local,750,S,S,E,E,E-S.png,E-S.png,sS,sS,mask-4.png,mask-2.png,s,1,0.3623545999871567,s,1,0.18830059992615134,0.04786540009081364,0.04808269999921322,0.09974259999580681,0.10097459994722158,0.7483714000554755
RSVPLG03,md,20251028-094915,1.0.1,20251020-085245,718,Experiment,Both,1,Automatic,main,45,20251028-095409,local,local,750,S,H,E,E,E-S.png,E-H.png,sS,hH,mask-2.png,mask-2.png,s,1,0.3908221999881789,h,1,0.652157099917531,0.04626460000872612,0.04650719999335706,0.09783759992569685,0.09851079992949963,0.7490346999838948
RSVPLG03,md,20251028-094915,1.0.1,20251020-085245,718,Experiment,Both,1,Automatic,main,46,20251028-095414,local,local,300,S,S,E,E,E-S.png,E-S.png,sS,sS,mask-3.png,mask-4.png,s,1,0.38703730003908277,s,1,0.17238230002112687,0.047514500096440315,0.047536800033412874,0.1005028000799939,0.10051840008236468,0.2998571000061929
RSVPLG03,md,20251028-094915,1.0.1,20251020-085245,718,Experiment,Both,1,Automatic,main,47,20251028-095418,local,local,300,S,S,E,E,E-S.png,E-S.png,sS,sS,mask-4.png,mask-3.png,s,1,0.29594750003889203,s,1,0.13325169996824116,0.0467501999810338,0.04776539991144091,0.09989939990919083,0.10001599998213351,0.29815819999203086
RSVPLG03,md,20251028-094915,1.0.1,20251020-085245,718,Experiment,Both,1,Automatic,main,48,20251028-095423,local,local,750,S,H,E,E,E-S.png,E-H.png,sS,hH,mask-3.png,mask-1.png,s,1,0.30213179998099804,h,1,0.04109339998103678,0.047665400081314147,0.04765439999755472,0.09885860001668334,0.09972399997059256,0.7483698000432923
RSVPLG03,md,20251028-094915,1.0.1,20251020-085245,718,Experiment,Both,1,Automatic,main,49,20251028-095427,local,global,750,H,H,A,A,A-H.png,H-A.png,hH,hH,mask-2.png,mask-3.png,h,1,0.5334657999919727,s,0,0.12285169993992895,0.047499299980700016,0.04660719993989915,0.09850730001926422,0.09960329998284578,0.7486705000046641
RSVPLG03,md,20251028-094915,1.0.1,20251020-085245,718,Experiment,Both,1,Automatic,main,50,20251028-095432,local,global,750,S,H,A,E,A-S.png,H-E.png,sS,hH,mask-4.png,mask-1.png,s,1,0.5932846999494359,s,0,0.0561087999958545,0.04713530000299215,0.04749239992816001,0.09817909996490926,0.09950399992521852,0.7482543999794871
RSVPLG03,md,20251028-094915,1.0.1,20251020-085245,718,Experiment,Both,1,Automatic,main,51,20251028-095440,local,global,750,S,H,E,A,E-S.png,H-A.png,sS,hH,mask-3.png,mask-2.png,s,1,0.40726549993269145,h,1,0.5355415999656543,0.047532099997624755,0.04754279996268451,0.10057480004616082,0.10060550004709512,0.7494790999917313
RSVPLG03,md,20251028-094915,1.0.1,20251020-085245,718,Experiment,Both,1,Automatic,main,52,20251028-095445,global,global,750,H,S,E,A,H-E.png,S-A.png,hH,sS,mask-1.png,mask-2.png,h,1,0.7766183000057936,s,1,0.9503870999906212,0.04752090002875775,0.04784969997126609,0.10151599999517202,0.10010370006784797,0.7491773000219837
RSVPLG03,md,20251028-094915,1.0.1,20251020-085245,718,Experiment,Both,1,Automatic,main,53,20251028-095451,global,global,750,S,H,E,E,S-E.png,H-E.png,sS,hH,mask-4.png,mask-4.png,h,0,1.4296534999739379,s,0,0.11356139997951686,0.04850119992624968,0.04674849996808916,0.09971879993099719,0.09929559996817261,0.7499365999829024
RSVPLG03,md,20251028-094915,1.0.1,20251020-085245,718,Experiment,Both,1,Automatic,main,54,20251028-095457,local,local,750,S,H,E,E,E-S.png,E-H.png,sS,hH,mask-1.png,mask-2.png,s,1,0.6454441999085248,h,1,0.7573535999981686,0.0466885999776423,0.04764060000889003,0.1002468999940902,0.09974600002169609,0.7487067000474781
RSVPLG03,md,20251028-094915,1.0.1,20251020-085245,718,Experiment,Both,1,Automatic,main,55,20251028-095501,global,local,750,S,H,A,E,S-A.png,E-H.png,sS,hH,mask-2.png,mask-1.png,s,1,1.0914113000035286,h,1,1.2359239999204874,0.047518600011244416,0.04675759992096573,0.09960299998056144,0.0998112999368459,0.7486578000243753
RSVPLG03,md,20251028-094915,1.0.1,20251020-085245,718,Experiment,Both,1,Automatic,main,56,20251028-095507,global,local,300,H,S,A,A,H-A.png,A-S.png,hH,sS,mask-1.png,mask-3.png,s,0,1.4208388000261039,h,0,1.5008379999781027,0.04755480005405843,0.047401900053955615,0.09885319997556508,0.09924300003331155,0.29971769999247044
RSVPLG03,md,20251028-094915,1.0.1,20251020-085245,718,Experiment,Both,1,Automatic,main,57,20251028-095512,global,local,750,H,S,A,E,H-A.png,E-S.png,hH,sS,mask-2.png,mask-3.png,h,1,0.2841368999797851,s,1,0.8680943999206647,0.04754729999694973,0.04713870002888143,0.09956120001152158,0.09978329995647073,0.7496615999843925
RSVPLG03,md,20251028-094915,1.0.1,20251020-085245,718,Experiment,Both,1,Automatic,main,58,20251028-095517,global,local,300,H,H,E,A,H-E.png,A-H.png,hH,hH,mask-4.png,mask-3.png,h,1,0.597574400017038,h,1,0.06552730000112206,0.04833849996794015,0.04943819995969534,0.09938709996640682,0.10045289993286133,0.2988323000026867
RSVPLG03,md,20251028-094915,1.0.1,20251020-085245,718,Experiment,Both,1,Automatic,main,59,20251028-095521,global,global,300,H,S,E,A,H-E.png,S-A.png,hH,sS,mask-2.png,mask-2.png,h,1,0.6283390000462532,s,1,0.2373456999193877,0.048487799940630794,0.046650800039060414,0.10045229992829263,0.09894170006737113,0.2995730999391526
RSVPLG03,md,20251028-094915,1.0.1,20251020-085245,718,Experiment,Both,1,Automatic,main,60,20251028-095526,local,global,750,H,H,E,E,E-H.png,H-E.png,hH,hH,mask-4.png,mask-4.png,h,1,0.8920180998975411,s,0,0.2802386999828741,0.047784300055354834,0.04772979998961091,0.10077730007469654,0.09925039997324347,0.749197700060904
RSVPLG03,md,20251028-094915,1.0.1,20251020-085245,718,Experiment,Both,1,Automatic,main,61,20251028-095531,global,local,750,H,S,A,A,H-A.png,A-S.png,hH,sS,mask-3.png,mask-2.png,h,1,0.3762950000818819,h,0,0.3259503999724984,0.048982699983753264,0.04843989992514253,0.10133189999032766,0.09946439997293055,0.7494158999761567
RSVPLG03,md,20251028-094915,1.0.1,20251020-085245,718,Experiment,Both,1,Automatic,main,62,20251028-095536,local,local,300,H,H,E,A,E-H.png,A-H.png,hH,hH,mask-3.png,mask-4.png,h,1,0.7842990999342874,s,0,0.2745575000299141,0.047694899956695735,0.04650709999259561,0.09991959994658828,0.09878539992496371,0.3007159000262618
RSVPLG03,md,20251028-094915,1.0.1,20251020-085245,718,Experiment,Both,1,Automatic,main,63,20251028-095541,local,global,750,H,S,A,A,A-H.png,S-A.png,hH,sS,mask-2.png,mask-4.png,h,1,0.451505700009875,s,1,0.1707563999807462,0.04749559995252639,0.04762219998519868,0.09850690001621842,0.09960610000416636,0.7483394000446424
RSVPLG03,md,20251028-094915,1.0.1,20251020-085245,718,Experiment,Both,1,Automatic,main,64,20251028-095546,local,global,750,H,H,A,A,A-H.png,H-A.png,hH,hH,mask-3.png,mask-2.png,h,1,0.7821988000068814,h,1,0.07659090007655323,0.0475330000044778,0.04672410001512617,0.10064720001537353,0.09973820007871836,0.7488574999151751
RSVPLG03,md,20251028-094915,1.0.1,20251020-085245,718,Experiment,Both,1,Automatic,main,65,20251028-095551,global,local,300,S,H,E,A,S-E.png,A-H.png,sS,hH,mask-4.png,mask-4.png,s,1,0.9314536000601947,h,1,0.12334740010555834,0.04756769991945475,0.04772100003901869,0.10155999998096377,0.1002044000197202,0.2997082999208942
RSVPLG03,md,20251028-094915,1.0.1,20251020-085245,718,Experiment,Both,1,Automatic,main,66,20251028-095556,local,global,300,S,H,A,A,A-S.png,H-A.png,sS,hH,mask-3.png,mask-3.png,s,1,0.7177583000157028,h,1,0.5926966000115499,0.04693549999501556,0.047535100020468235,0.09915499994531274,0.09873820003122091,0.30052569997496903
RSVPLG03,md,20251028-094915,1.0.1,20251020-085245,718,Experiment,Both,1,Automatic,main,67,20251028-095601,local,local,750,S,S,E,A,E-S.png,A-S.png,sS,sS,mask-4.png,mask-4.png,s,1,0.3823451000498608,s,1,0.07602559996303171,0.04691639996599406,0.04728529998101294,0.10013010003603995,0.09868339996319264,0.751073700026609
RSVPLG03,md,20251028-094915,1.0.1,20251020-085245,718,Experiment,Both,1,Automatic,main,68,20251028-095606,local,global,750,S,H,A,E,A-S.png,H-E.png,sS,hH,mask-3.png,mask-3.png,s,1,0.5942039000801742,h,1,0.697604599990882,0.047687900019809604,0.04683260002639145,0.09890780004207045,0.09985450003296137,0.7487508000340313
RSVPLG03,md,20251028-094915,1.0.1,20251020-085245,718,Experiment,Both,1,Automatic,main,69,20251028-095611,global,global,750,H,S,E,E,H-E.png,S-E.png,hH,sS,mask-1.png,mask-2.png,h,1,0.40183740004431456,s,1,0.35654380009509623,0.04651380004361272,0.04756080009974539,0.09950749995186925,0.09990470006596297,0.7491200999356806
RSVPLG03,md,20251028-094915,1.0.1,20251020-085245,718,Experiment,Both,1,Automatic,main,70,20251028-095617,local,global,300,S,S,E,A,E-S.png,S-A.png,sS,sS,mask-3.png,mask-3.png,s,1,0.39256960002239794,h,0,0.03919260005932301,0.0465515999821946,0.0475677999202162,0.09857869998086244,0.099674699944444,0.29892860003747046
RSVPLG03,md,20251028-094915,1.0.1,20251020-085245,718,Experiment,Both,1,Automatic,main,71,20251028-095621,global,local,750,H,H,E,E,H-E.png,E-H.png,hH,hH,mask-1.png,mask-4.png,h,1,0.26682689995504916,s,0,0.24169980001170188,0.047536400030367076,0.04649390000849962,0.1014340000692755,0.0995817999355495,0.7506537000881508
RSVPLG03,md,20251028-094915,1.0.1,20251020-085245,718,Experiment,Both,1,Automatic,main,72,20251028-095626,local,global,300,S,H,E,A,E-S.png,H-A.png,sS,hH,mask-4.png,mask-4.png,s,1,0.677853100001812,h,1,0.09544439997989684,0.04656249994877726,0.04862939997110516,0.10059259994886816,0.1006556999636814,0.29806950001511723
RSVPLG03,md,20251028-094915,1.0.1,20251020-085245,718,Experiment,Both,1,Automatic,main,73,20251028-095630,local,global,750,H,S,A,A,A-H.png,S-A.png,hH,sS,mask-4.png,mask-1.png,h,1,0.9214108999585733,h,0,0.2516430999385193,0.04758370004128665,0.04749860009178519,0.1006125999847427,0.09951090009417385,0.7497165999375284
RSVPLG03,md,20251028-094915,1.0.1,20251020-085245,718,Experiment,Both,1,Automatic,main,74,20251028-095636,global,local,750,H,H,E,A,H-E.png,A-H.png,hH,hH,mask-4.png,mask-3.png,h,1,0.38355130003765225,h,1,0.07724130002316087,0.04754540009889752,0.04889850004110485,0.10059879999607801,0.09988590003922582,0.748929199995473
RSVPLG03,md,20251028-094915,1.0.1,20251020-085245,718,Experiment,Both,1,Automatic,main,75,20251028-095640,local,global,300,S,S,A,A,A-S.png,S-A.png,sS,sS,mask-4.png,mask-1.png,s,1,0.5163826999487355,s,1,0.05315739999059588,0.04736800002865493,0.045569300069473684,0.10023360000923276,0.09861590003129095,0.30046309996396303
RSVPLG03,md,20251028-094915,1.0.1,20251020-085245,718,Experiment,Both,1,Automatic,main,76,20251028-095655,local,global,750,H,S,E,A,E-H.png,S-A.png,hH,sS,mask-3.png,mask-4.png,h,1,0.4391512000001967,s,1,0.23082219995558262,0.04658129997551441,0.0475832000374794,0.099712900002487,0.0995956000406295,0.7487557999556884
RSVPLG03,md,20251028-094915,1.0.1,20251020-085245,718,Experiment,Both,1,Automatic,main,77,20251028-095700,global,global,300,H,H,A,A,H-A.png,H-A.png,hH,hH,mask-3.png,mask-4.png,h,1,0.5783172000665218,h,1,0.08444830006919801,0.04656960000284016,0.048727800021879375,0.09973510005511343,0.10092150000855327,0.2991425000363961
RSVPLG03,md,20251028-094915,1.0.1,20251020-085245,718,Experiment,Both,1,Automatic,main,78,20251028-095705,local,global,750,H,H,A,E,A-H.png,H-E.png,hH,hH,mask-3.png,mask-3.png,h,1,1.2066801999462768,s,0,0.23261960002128035,0.04755199991632253,0.047508399933576584,0.10133350000251085,0.1006504000397399,0.7491879999870434
RSVPLG03,md,20251028-094915,1.0.1,20251020-085245,718,Experiment,Both,1,Automatic,main,79,20251028-095710,global,local,750,S,H,A,A,S-A.png,A-H.png,sS,hH,mask-4.png,mask-4.png,s,1,0.4798132999567315,h,1,0.0602149999467656,0.04672870005015284,0.04752099991310388,0.0998271000571549,0.10056539997458458,0.7477898000506684
RSVPLG03,md,20251028-094915,1.0.1,20251020-085245,718,Experiment,Both,1,Automatic,main,80,20251028-095715,local,local,300,H,H,A,E,A-H.png,E-H.png,hH,hH,mask-1.png,mask-2.png,h,1,1.202272200025618,s,0,0.5495310999685898,0.04658429999835789,0.04756860004272312,0.10055690002627671,0.09956600004807115,0.2989221999887377
RSVPLG03,md,20251028-094915,1.0.1,20251020-085245,718,Experiment,Both,1,Automatic,main,81,20251028-095721,local,global,300,S,H,E,A,E-S.png,H-A.png,sS,hH,mask-1.png,mask-3.png,h,0,0.5142405000515282,s,0,0.7395001000259072,0.04672410001512617,0.04764709994196892,0.09979080001357943,0.09967249992769212,0.2999981000320986
RSVPLG03,md,20251028-094915,1.0.1,20251020-085245,718,Experiment,Both,1,Automatic,main,82,20251028-095726,local,global,300,S,S,E,E,E-S.png,S-E.png,sS,sS,mask-1.png,mask-4.png,s,1,0.3793442000169307,h,0,0.10857919999398291,0.04752959997858852,0.04749640007503331,0.09957799990661442,0.09818590001668781,0.29886889993213117
RSVPLG03,md,20251028-094915,1.0.1,20251020-085245,718,Experiment,Both,1,Automatic,main,83,20251028-095730,local,local,300,H,S,A,A,A-H.png,A-S.png,hH,sS,mask-2.png,mask-4.png,h,1,0.6272901999764144,s,1,0.8927703999215737,0.04640500003006309,0.046529200044460595,0.09883589996024966,0.09953120001591742,0.2993648999836296
RSVPLG03,md,20251028-094915,1.0.1,20251020-085245,718,Experiment,Both,1,Automatic,main,84,20251028-095735,global,local,750,H,S,E,A,H-E.png,A-S.png,hH,sS,mask-3.png,mask-1.png,h,1,0.39929810003377497,s,1,0.2342384000075981,0.04756580002140254,0.04758780007250607,0.09956250002142042,0.10069700004532933,0.7494110999396071
RSVPLG03,md,20251028-094915,1.0.1,20251020-085245,718,Experiment,Both,1,Automatic,main,85,20251028-095740,global,local,300,H,S,A,A,H-A.png,A-S.png,hH,sS,mask-4.png,mask-2.png,h,1,0.6747822999022901,s,1,0.8507999998982996,0.04637560003902763,0.045558499987237155,0.09939970006234944,0.09954339999239892,0.2996513000689447
RSVPLG03,md,20251028-094915,1.0.1,20251020-085245,718,Experiment,Both,1,Automatic,main,86,20251028-095745,global,global,300,S,H,A,A,S-A.png,H-A.png,sS,hH,mask-4.png,mask-4.png,s,1,0.4952756999991834,s,0,0.1252667000517249,0.0478869000216946,0.04644880001433194,0.10096379998140037,0.09764549997635186,0.3011720000067726
RSVPLG03,md,20251028-094915,1.0.1,20251020-085245,718,Experiment,Both,1,Automatic,main,87,20251028-095749,local,local,750,H,H,E,A,E-H.png,A-H.png,hH,hH,mask-1.png,mask-4.png,h,1,0.36557119991630316,h,1,0.18726599996443838,0.04655499989166856,0.04661540000233799,0.10034849995281547,0.09967829997185618,0.7490568999201059
RSVPLG03,md,20251028-094915,1.0.1,20251020-085245,718,Experiment,Both,1,Automatic,main,88,20251028-095754,global,global,300,H,S,A,A,H-A.png,S-A.png,hH,sS,mask-4.png,mask-2.png,s,0,0.7045106999576092,h,0,0.8965988999698311,0.04755239991936833,0.048580899951048195,0.10155149991624057,0.10071449994575232,0.2990494000259787
RSVPLG03,md,20251028-094915,1.0.1,20251020-085245,718,Experiment,Both,1,Automatic,main,89,20251028-095759,local,local,750,H,S,E,A,E-H.png,A-S.png,hH,sS,mask-2.png,mask-1.png,h,1,0.49065409996546805,s,1,0.44528350001201034,0.04851669992785901,0.04559850005898625,0.10103929997421801,0.09964950010180473,0.7507544999243692
RSVPLG03,md,20251028-094915,1.0.1,20251020-085245,718,Experiment,Both,1,Automatic,main,90,20251028-095804,global,global,750,S,H,E,E,S-E.png,H-E.png,sS,hH,mask-4.png,mask-3.png,s,1,1.6599479999858886,h,1,0.03875609999522567,0.048084900015965104,0.046681800042279065,0.10027379996608943,0.09987699997145683,0.7496475999942049
RSVPLG03,md,20251028-094915,1.0.1,20251020-085245,718,Experiment,Both,1,Automatic,main,91,20251028-095810,local,local,300,S,H,E,A,E-S.png,A-H.png,sS,hH,mask-1.png,mask-3.png,s,1,0.8723375999834388,h,1,0.01964469999074936,0.046578300069086254,0.046530600055120885,0.10055249999277294,0.09954259998630732,0.2998745000222698
RSVPLG03,md,20251028-094915,1.0.1,20251020-085245,718,Experiment,Both,1,Automatic,main,92,20251028-095815,global,global,300,H,H,E,A,H-E.png,H-A.png,hH,hH,mask-4.png,mask-2.png,h,1,0.3643869999796152,s,0,0.07123239990323782,0.04654070001561195,0.04753579990938306,0.09855980006977916,0.09963369998149574,0.29892160010058433
RSVPLG03,md,20251028-094915,1.0.1,20251020-085245,718,Experiment,Both,1,Automatic,main,93,20251028-095819,global,global,300,S,H,E,E,S-E.png,H-E.png,sS,hH,mask-2.png,mask-3.png,s,1,0.47328699997160584,h,1,0.0694365999661386,0.045559899997897446,0.04807950009126216,0.09857460006605834,0.09900390007533133,0.2984328999882564
RSVPLG03,md,20251028-094915,1.0.1,20251020-085245,718,Experiment,Both,1,Automatic,main,94,20251028-095824,global,global,300,S,H,A,E,S-A.png,H-E.png,sS,hH,mask-4.png,mask-4.png,s,1,0.27005809999536723,h,1,0.10577079991344362,0.04751340008806437,0.04751609999220818,0.09952430007979274,0.10055179998744279,0.2994361000601202
RSVPLG03,md,20251028-094915,1.0.1,20251020-085245,718,Experiment,Both,1,Automatic,main,95,20251028-095828,local,local,300,S,H,A,A,A-S.png,A-H.png,sS,hH,mask-2.png,mask-2.png,s,1,0.2936020999914035,h,1,0.07641340000554919,0.049249500036239624,0.04746770008932799,0.10127199999988079,0.10048420005477965,0.2996065999614075
RSVPLG03,md,20251028-094915,1.0.1,20251020-085245,718,Experiment,Both,1,Automatic,main,96,20251028-095832,local,global,750,S,S,A,A,A-S.png,S-A.png,sS,sS,mask-1.png,mask-3.png,s,1,0.380862700054422,h,0,0.03517649997957051,0.04749340005218983,0.04763090005144477,0.10030320007354021,0.09981080004945397,0.7492076000198722
RSVPLG03,md,20251028-094915,1.0.1,20251020-085245,718,Experiment,Both,1,Automatic,main,97,20251028-095837,local,global,300,H,H,E,E,E-H.png,H-E.png,hH,hH,mask-4.png,mask-4.png,s,0,0.5393044000957161,h,1,0.003968500066548586,0.04831360001116991,0.04671020002570003,0.10061490000225604,0.09986730001401156,0.300308300065808
RSVPLG03,md,20251028-094915,1.0.1,20251020-085245,718,Experiment,Both,1,Automatic,main,98,20251028-095841,global,local,750,H,S,A,A,H-A.png,A-S.png,hH,sS,mask-4.png,mask-2.png,h,1,0.3248278999235481,s,1,0.12390100001357496,0.04752849997021258,0.04610549996141344,0.10012399998959154,0.09793649998027831,0.7506911000236869
RSVPLG03,md,20251028-094915,1.0.1,20251020-085245,718,Experiment,Both,1,Automatic,main,99,20251028-095846,local,global,300,H,S,A,E,A-H.png,S-E.png,hH,sS,mask-2.png,mask-2.png,h,1,0.7182161000091583,s,1,0.04456479998771101,0.047560099977999926,0.04851550003513694,0.09957209997810423,0.10052520001772791,0.2988745999755338
RSVPLG03,md,20251028-094915,1.0.1,20251020-085245,718,Experiment,Both,1,Automatic,main,100,20251028-095851,local,global,300,S,S,E,E,E-S.png,S-E.png,sS,sS,mask-3.png,mask-2.png,s,1,0.775212400010787,h,0,0.05649350001476705,0.048594099935144186,0.04755410004872829,0.10060349991545081,0.09865470009390265,0.30068549991119653
RSVPLG03,md,20251028-094915,1.0.1,20251020-085245,718,Experiment,Both,1,Automatic,main,101,20251028-095908,global,global,750,S,S,A,E,S-A.png,S-E.png,sS,sS,mask-2.png,mask-2.png,s,1,0.7586298999376595,s,1,0.5429557999596,0.0468440999975428,0.04834159999154508,0.09907770005520433,0.09968720003962517,0.7483977000229061
RSVPLG03,md,20251028-094915,1.0.1,20251020-085245,718,Experiment,Both,1,Automatic,main,102,20251028-095913,local,global,300,H,S,E,E,E-H.png,S-E.png,hH,sS,mask-2.png,mask-4.png,h,1,0.46871449996251613,h,0,0.26842099998611957,0.04573110002093017,0.04575019993353635,0.09988069999963045,0.09890199999790639,0.29952520004007965
RSVPLG03,md,20251028-094915,1.0.1,20251020-085245,718,Experiment,Both,1,Automatic,main,103,20251028-095918,global,local,750,S,S,A,E,S-A.png,E-S.png,sS,sS,mask-3.png,mask-1.png,s,1,2.2424465999938548,h,0,0.02244039997458458,0.04723710007965565,0.046695200027897954,0.10022890008985996,0.09890009998343885,0.7490590000525117
RSVPLG03,md,20251028-094915,1.0.1,20251020-085245,718,Experiment,Both,1,Automatic,main,104,20251028-095924,global,global,300,H,H,A,E,H-A.png,H-E.png,hH,hH,mask-4.png,mask-1.png,h,1,0.4846424999414012,h,1,0.18948320008348674,0.04781709995586425,0.047690299921669066,0.100028199958615,0.10087229998316616,0.2999341000104323
RSVPLG03,md,20251028-094915,1.0.1,20251020-085245,718,Experiment,Both,1,Automatic,main,105,20251028-095929,global,local,300,S,S,E,A,S-E.png,A-S.png,sS,sS,mask-4.png,mask-1.png,s,1,0.32638550002593547,s,1,0.41651250002905726,0.0476927999407053,0.04867420007940382,0.09886759996879846,0.09990290005225688,0.2984590999549255
RSVPLG03,md,20251028-094915,1.0.1,20251020-085245,718,Experiment,Both,1,Automatic,main,106,20251028-095933,global,global,750,S,H,A,A,S-A.png,H-A.png,sS,hH,mask-3.png,mask-4.png,s,1,0.35602020006626844,h,1,0.13834700000006706,0.04751239996403456,0.047385500045493245,0.10153339989483356,0.10044190008193254,0.748946699895896
RSVPLG03,md,20251028-094915,1.0.1,20251020-085245,718,Experiment,Both,1,Automatic,main,107,20251028-095938,local,local,750,H,S,A,E,A-H.png,E-S.png,hH,sS,mask-4.png,mask-1.png,h,1,1.015150099992752,s,1,0.20612059999257326,0.04846499999985099,0.04847510007675737,0.10032990004401654,0.10053210007026792,0.749023100011982
RSVPLG03,md,20251028-094915,1.0.1,20251020-085245,718,Experiment,Both,1,Automatic,main,108,20251028-095943,global,local,750,H,S,A,E,H-A.png,E-S.png,hH,sS,mask-3.png,mask-4.png,h,1,0.561976799974218,s,1,0.40856560005340725,0.047539400053210557,0.04667480010539293,0.10058310010936111,0.0997958000516519,0.7502600000007078
RSVPLG03,md,20251028-094915,1.0.1,20251020-085245,718,Experiment,Both,1,Automatic,main,109,20251028-095949,global,global,750,S,H,E,E,S-E.png,H-E.png,sS,hH,mask-2.png,mask-1.png,s,1,0.5680569999385625,h,1,0.11893369990866631,0.04734749998897314,0.047269799979403615,0.10019080003257841,0.0990981999784708,0.7498695000540465
RSVPLG03,md,20251028-094915,1.0.1,20251020-085245,718,Experiment,Both,1,Automatic,main,110,20251028-095954,local,global,300,S,S,E,E,E-S.png,S-E.png,sS,sS,mask-4.png,mask-2.png,s,1,0.7590547000290826,h,0,0.9188767999876291,0.047513000085018575,0.04740070004481822,0.0985412000445649,0.10035329998936504,0.29819600004702806
RSVPLG03,md,20251028-094915,1.0.1,20251020-085245,718,Experiment,Both,1,Automatic,main,111,20251028-095958,global,local,750,S,S,E,E,S-E.png,E-S.png,sS,sS,mask-3.png,mask-1.png,s,1,0.3391725999535993,s,1,0.05770000000484288,0.046527199912816286,0.04751539998687804,0.09857839997857809,0.09951769991312176,0.7485779999988154
RSVPLG03,md,20251028-094915,1.0.1,20251020-085245,718,Experiment,Both,1,Automatic,main,112,20251028-100003,global,global,750,S,H,E,E,S-E.png,H-E.png,sS,hH,mask-3.png,mask-3.png,s,1,0.2830044999718666,h,1,0.2894979000557214,0.047669899999164045,0.0484633999876678,0.09970719995908439,0.10136500000953674,0.7482843999750912
RSVPLG03,md,20251028-094915,1.0.1,20251020-085245,718,Experiment,Both,1,Automatic,main,113,20251028-100008,global,global,300,S,S,E,A,S-E.png,S-A.png,sS,sS,mask-4.png,mask-1.png,s,1,0.3906481999438256,s,1,0.22419769992120564,0.048531000036746264,0.04761749994941056,0.10160880000330508,0.09966489998623729,0.29987830005120486
RSVPLG03,md,20251028-094915,1.0.1,20251020-085245,718,Experiment,Both,1,Automatic,main,114,20251028-100012,global,local,300,H,H,E,A,H-E.png,A-H.png,hH,hH,mask-1.png,mask-3.png,h,1,0.5888246000977233,s,0,0.24928679992444813,0.04650300007779151,0.04749310004990548,0.10062530008144677,0.09901290002744645,0.29884649999439716
RSVPLG03,md,20251028-094915,1.0.1,20251020-085245,718,Experiment,Both,1,Automatic,main,115,20251028-100017,global,local,300,S,S,A,A,S-A.png,A-S.png,sS,sS,mask-1.png,mask-3.png,s,1,0.2864203999051824,s,1,0.10776699997950345,0.04762430000118911,0.04564489994663745,0.09969290008302778,0.09972950001247227,0.29934470006264746
RSVPLG03,md,20251028-094915,1.0.1,20251020-085245,718,Experiment,Both,1,Automatic,main,116,20251028-100021,global,global,750,H,H,E,E,H-E.png,H-E.png,hH,hH,mask-4.png,mask-2.png,h,1,0.3972965000430122,h,1,0.20437829999718815,0.047936800052411854,0.046709700021892786,0.09979030000977218,0.099110999959521,0.7498983000405133
RSVPLG03,md,20251028-094915,1.0.1,20251020-085245,718,Experiment,Both,1,Automatic,main,117,20251028-100026,local,local,300,H,S,A,A,A-H.png,A-S.png,hH,sS,mask-2.png,mask-3.png,h,1,0.5168674000306055,s,1,0.9843205000506714,0.047483500093221664,0.04763090005144477,0.10142020008061081,0.1005691000027582,0.29957010003272444
RSVPLG03,md,20251028-094915,1.0.1,20251020-085245,718,Experiment,Both,1,Automatic,main,118,20251028-100031,global,local,300,S,H,A,A,S-A.png,A-H.png,sS,hH,mask-1.png,mask-2.png,s,1,0.4037256999872625,h,1,0.05526629998348653,0.04658650001510978,0.046512800035998225,0.09963080007582903,0.09965200000442564,0.3005785000277683
RSVPLG03,md,20251028-094915,1.0.1,20251020-085245,718,Experiment,Both,1,Automatic,main,119,20251028-100035,local,local,300,S,H,E,A,E-S.png,A-H.png,sS,hH,mask-1.png,mask-4.png,s,1,0.2900603999150917,h,1,0.25857649999670684,0.04917759995441884,0.046835399931296706,0.10047980002127588,0.10008799994830042,0.29989410005509853
RSVPLG03,md,20251028-094915,1.0.1,20251020-085245,718,Experiment,Both,1,Automatic,main,120,20251028-100039,local,global,750,S,H,A,A,A-S.png,H-A.png,sS,hH,mask-4.png,mask-2.png,s,1,0.47295850003138185,h,1,0.027806399972178042,0.047573900083079934,0.046515599940903485,0.09865000005811453,0.10053339996375144,0.7485259000677615
RSVPLG03,md,20251028-094915,1.0.1,20251020-085245,718,Experiment,Both,1,Automatic,main,121,20251028-100044,global,global,300,S,S,E,A,S-E.png,S-A.png,sS,sS,mask-2.png,mask-1.png,s,1,0.30783309997059405,s,1,0.40868069999851286,0.046532200067304075,0.04859840008430183,0.09955170005559921,0.1006095000775531,0.2984918999718502
RSVPLG03,md,20251028-094915,1.0.1,20251020-085245,718,Experiment,Both,1,Automatic,main,122,20251028-100049,global,local,300,H,S,A,E,H-A.png,E-S.png,hH,sS,mask-4.png,mask-2.png,s,0,0.628635499975644,s,1,1.4632479000138119,0.047060800017789006,0.047673100023530424,0.09823819994926453,0.10085769998840988,0.297664099955
